datetime_local,uptime_ms,acc_x,acc_y,acc_z,gyro_x,gyro_y,gyro_z,speed_mps,turn_rate_deg_s,gps_valid
2026-01-29 21:00:58,545048,1035.000,-3196.000,5227.000,-1010.000,236.000,-382.000,0.000,0.000,0
2026-01-29 21:00:58,545088,723.000,-3624.000,5293.000,-504.000,-175.000,-439.000,0.000,0.000,0
2026-01-29 21:00:58,545128,656.000,-3408.000,5409.000,-418.000,-333.000,-643.000,0.000,0.000,0
2026-01-29 21:00:58,545168,454.000,-4032.000,6545.000,-111.000,-533.000,-785.000,0.000,0.000,0
2026-01-29 21:00:58,545208,978.000,-4203.000,7117.000,290.000,-814.000,-675.000,0.000,0.000,0
2026-01-29 21:00:58,545248,1532.000,-4553.000,7742.000,264.000,-725.000,-175.000,0.000,0.000,0
2026-01-29 21:00:58,545288,1639.000,-4534.000,8783.000,-13.000,-817.000,-60.000,0.000,0.000,0
2026-01-29 21:00:58,545328,2565.000,-5738.000,8517.000,-381.000,-1387.000,271.000,0.000,0.000,0
2026-01-29 21:00:58,545368,4198.000,-4606.000,8335.000,980.000,-1103.000,262.000,0.000,0.000,0
2026-01-29 21:00:58,545408,4396.000,-3771.000,7889.000,969.000,-547.000,751.000,0.000,0.000,0
2026-01-29 21:00:58,545448,3932.000,-3298.000,7430.000,1686.000,-426.000,1157.000,0.000,0.000,0
2026-01-29 21:00:58,545488,3293.000,-2640.000,6386.000,2456.000,-197.000,1551.000,0.000,0.000,0
2026-01-29 21:00:58,545528,1847.000,-2178.000,5185.000,3036.000,387.000,1836.000,0.000,0.000,0
2026-01-29 21:00:58,545568,933.000,-2238.000,3811.000,3962.000,1006.000,2106.000,0.000,0.000,0
2026-01-29 21:00:58,545608,855.000,-1822.000,2916.000,5969.000,1503.000,2643.000,0.000,0.000,0
2026-01-29 21:00:58,545648,-671.000,-4054.000,3327.000,7679.000,2325.000,5019.000,0.000,0.000,0
2026-01-29 21:00:58,545688,175.000,-3469.000,3127.000,9450.000,560.000,2930.000,0.000,0.000,0
2026-01-29 21:00:58,545728,1430.000,-3411.000,2921.000,13636.000,-137.000,3304.000,0.000,0.000,0
2026-01-29 21:00:59,545768,1277.000,-787.000,3419.000,18347.000,-616.000,4155.000,0.000,0.000,0
2026-01-29 21:00:59,545808,2736.000,3416.000,6455.000,20862.000,-1761.000,4453.000,0.000,0.000,0
2026-01-29 21:00:59,545848,2738.000,8950.000,8056.000,19384.000,-1899.000,4293.000,0.000,0.000,0
2026-01-29 21:00:59,545888,6954.000,22642.000,14438.000,8129.000,-3036.000,4977.000,0.000,0.000,0
2026-01-29 21:00:59,545928,2717.000,9012.000,10394.000,-5349.000,802.000,5009.000,0.000,0.000,0
2026-01-29 21:00:59,545968,3566.000,5450.000,9764.000,-402.000,-124.000,2555.000,0.000,0.000,0
2026-01-29 21:00:59,546008,1997.000,6152.000,8946.000,3663.000,777.000,1039.000,0.000,0.000,0
2026-01-29 21:00:59,546048,1854.000,7219.000,5753.000,4080.000,625.000,1607.000,0.000,0.000,0
2026-01-29 21:00:59,546088,1651.000,5278.000,4956.000,3019.000,538.000,1815.000,0.000,0.000,0
2026-01-29 21:00:59,546128,1872.000,5113.000,3255.000,1035.000,-520.000,156.000,0.000,0.000,0
2026-01-29 21:00:59,546168,1095.000,1816.000,2127.000,689.000,-902.000,-1346.000,0.000,0.000,0
2026-01-29 21:00:59,546208,1674.000,2293.000,1776.000,5280.000,-2411.000,-2815.000,0.000,0.000,0
2026-01-29 21:00:59,546248,2682.000,4158.000,1090.000,9272.000,-2183.000,-2789.000,0.000,0.000,0
2026-01-29 21:00:59,546288,3812.000,6339.000,1340.000,12317.000,-1611.000,-1554.000,0.000,0.000,0
2026-01-29 21:00:59,546328,5678.000,10867.000,268.000,14387.000,-466.000,-1521.000,0.000,0.000,0
2026-01-29 21:00:59,546368,3905.000,10621.000,335.000,13515.000,4637.000,-731.000,0.000,0.000,0
2026-01-29 21:00:59,546408,2010.000,12602.000,929.000,11719.000,5831.000,-2408.000,0.000,0.000,0
2026-01-29 21:00:59,546448,1974.000,12728.000,-2318.000,9940.000,6004.000,-2984.000,0.000,0.000,0
2026-01-29 21:00:59,546488,1594.000,10639.000,-2785.000,9178.000,6146.000,-3803.000,0.000,0.000,0
2026-01-29 21:00:59,546528,3537.000,8080.000,-2384.000,10814.000,3569.000,-4962.000,0.000,0.000,0
2026-01-29 21:00:59,546568,2921.000,5458.000,-2713.000,11834.000,3840.000,-4299.000,0.000,0.000,0
2026-01-29 21:00:59,546608,1570.000,3626.000,-1956.000,12261.000,3094.000,-2709.000,0.000,0.000,0
2026-01-29 21:00:59,546648,645.000,2442.000,-2421.000,14047.000,1156.000,-1983.000,0.000,0.000,0
2026-01-29 21:00:59,546688,738.000,2982.000,-3261.000,15071.000,129.000,-2159.000,0.000,0.000,0
2026-01-29 21:00:59,546728,188.000,3327.000,-3874.000,12878.000,-292.000,-1616.000,0.000,0.000,0
2026-01-29 21:01:00,546768,-124.000,1204.000,-4012.000,10333.000,4.000,-3.000,0.000,0.000,0
2026-01-29 21:01:00,546808,-1328.000,2726.000,-9374.000,6373.000,-110.000,445.000,0.000,0.000,0
2026-01-29 21:01:00,546848,-1469.000,4027.000,-9636.000,2760.000,-538.000,707.000,0.000,0.000,0
2026-01-29 21:01:00,546888,-846.000,3969.000,-11416.000,489.000,-1626.000,684.000,0.000,0.000,0
2026-01-29 21:01:00,546928,-1068.000,4533.000,-11417.000,-406.000,-2954.000,563.000,0.000,0.000,0
2026-01-29 21:01:00,546968,-879.000,3628.000,-12603.000,-2143.000,-4378.000,1691.000,0.000,0.000,0
2026-01-29 21:01:00,547008,-1150.000,2818.000,-11173.000,-5054.000,-4759.000,3759.000,0.000,0.000,0
2026-01-29 21:01:00,547048,-899.000,2170.000,-10425.000,-6220.000,-4698.000,4924.000,0.000,0.000,0
2026-01-29 21:01:00,547088,-401.000,1649.000,-8271.000,-8793.000,-4222.000,6013.000,0.000,0.000,0
2026-01-29 21:01:00,547128,87.000,877.000,-3931.000,-10044.000,-4316.000,6349.000,0.000,0.000,0
2026-01-29 21:01:00,547168,611.000,1141.000,-3258.000,-4540.000,-5486.000,5289.000,0.000,0.000,0
2026-01-29 21:01:00,547208,-176.000,2917.000,-4060.000,-1750.000,-4618.000,4903.000,0.000,0.000,0
2026-01-29 21:01:00,547248,-208.000,1982.000,-3007.000,-2611.000,-5181.000,3871.000,0.000,0.000,0
2026-01-29 21:01:00,547288,-235.000,4709.000,-4053.000,-3210.000,-3754.000,2606.000,0.000,0.000,0
2026-01-29 21:01:00,547328,-675.000,5534.000,-4919.000,-4418.000,-2164.000,1929.000,0.000,0.000,0
2026-01-29 21:01:00,547368,1433.000,8801.000,-5037.000,-47.000,-1129.000,-1529.000,0.000,0.000,0
2026-01-29 21:01:00,547408,775.000,8385.000,-6745.000,-5657.000,2174.000,-1980.000,0.000,0.000,0
2026-01-29 21:01:00,547448,-174.000,7678.000,-6673.000,-3211.000,2591.000,-1382.000,0.000,0.000,0
2026-01-29 21:01:00,547488,2283.000,9876.000,-7122.000,-1361.000,2432.000,-912.000,0.000,0.000,0
2026-01-29 21:01:00,547528,1967.000,7844.000,-5276.000,-3163.000,4490.000,-972.000,0.000,0.000,0
2026-01-29 21:01:00,547568,6074.000,8101.000,-2225.000,-6462.000,4142.000,433.000,0.000,0.000,0
2026-01-29 21:01:00,547608,3858.000,3605.000,-2553.000,-10664.000,9739.000,4156.000,0.000,0.000,0
2026-01-29 21:01:00,547648,1341.000,2139.000,-1214.000,-8830.000,11068.000,7612.000,0.000,0.000,0
2026-01-29 21:01:00,547688,976.000,2974.000,-1015.000,-7108.000,9143.000,9760.000,0.000,0.000,0
2026-01-29 21:01:00,547728,919.000,7417.000,-2976.000,-7198.000,6388.000,11604.000,0.000,0.000,0
2026-01-29 21:01:01,547768,1732.000,6376.000,-3019.000,-5792.000,4821.000,11939.000,0.000,0.000,0
2026-01-29 21:01:01,547808,1722.000,4616.000,-1077.000,-2423.000,3947.000,9041.000,0.000,0.000,0
2026-01-29 21:01:01,547848,4931.000,10490.000,242.000,6651.000,482.000,1869.000,0.000,0.000,0
2026-01-29 21:01:01,547888,4654.000,14046.000,490.000,8036.000,-1090.000,-15.000,0.000,0.000,0
2026-01-29 21:01:01,547928,5127.000,12171.000,-163.000,4078.000,-1486.000,-1461.000,0.000,0.000,0
2026-01-29 21:01:01,547968,4184.000,14039.000,1666.000,2018.000,-1708.000,-3074.000,0.000,0.000,0
2026-01-29 21:01:01,548008,5014.000,14446.000,742.000,-986.000,-2374.000,-1715.000,0.000,0.000,0
2026-01-29 21:01:01,548048,4140.000,10915.000,-861.000,-8173.000,-2576.000,-2827.000,0.000,0.000,0
2026-01-29 21:01:01,548088,4618.000,11455.000,-1049.000,-8545.000,-3563.000,-3129.000,0.000,0.000,0
2026-01-29 21:01:01,548128,4235.000,8771.000,-1516.000,-9761.000,-4170.000,-3526.000,0.000,0.000,0
2026-01-29 21:01:01,548168,3097.000,5465.000,-1076.000,-10112.000,-4457.000,-5235.000,0.000,0.000,0
2026-01-29 21:01:01,548208,2349.000,3856.000,-465.000,-9485.000,-4665.000,-6619.000,0.000,0.000,0
2026-01-29 21:01:01,548248,2668.000,2766.000,-614.000,-8920.000,-5202.000,-6860.000,0.000,0.000,0
2026-01-29 21:01:01,548288,3345.000,2272.000,-517.000,-7493.000,-4869.000,-6241.000,0.000,0.000,0
2026-01-29 21:01:01,548328,3724.000,2432.000,-404.000,-5378.000,-4607.000,-4184.000,0.000,0.000,0
2026-01-29 21:01:01,548368,5606.000,2275.000,410.000,-487.000,-4672.000,-1507.000,0.000,0.000,0
2026-01-29 21:01:01,548408,6845.000,3023.000,919.000,4490.000,-3436.000,1916.000,0.000,0.000,0
2026-01-29 21:01:01,548448,8020.000,5224.000,-956.000,10086.000,-750.000,4606.000,0.000,0.000,0
2026-01-29 21:01:01,548488,8107.000,7055.000,-2284.000,16628.000,3641.000,4179.000,0.000,0.000,0
2026-01-29 21:01:01,548528,7174.000,16979.000,-4826.000,24459.000,8737.000,2511.000,0.000,0.000,0
2026-01-29 21:01:01,548568,4373.000,13079.000,-843.000,16820.000,10225.000,895.000,0.000,0.000,0
2026-01-29 21:01:01,548608,4260.000,10925.000,11.000,5071.000,5558.000,-715.000,0.000,0.000,0
2026-01-29 21:01:01,548648,3094.000,7250.000,-306.000,-1899.000,2561.000,-365.000,0.000,0.000,0
2026-01-29 21:01:01,548688,924.000,4320.000,-728.000,-3521.000,2443.000,-122.000,0.000,0.000,0
2026-01-29 21:01:01,548728,483.000,3286.000,40.000,-2317.000,2177.000,-488.000,0.000,0.000,0
2026-01-29 21:01:02,548768,-365.000,2593.000,-164.000,-1033.000,3162.000,-788.000,0.000,0.000,0
2026-01-29 21:01:02,548808,-612.000,2749.000,-91.000,1168.000,2970.000,-762.000,0.000,0.000,0
2026-01-29 21:01:02,548848,-563.000,4524.000,783.000,4550.000,2343.000,-662.000,0.000,0.000,0
2026-01-29 21:01:02,548888,557.000,9504.000,-1399.000,7167.000,886.000,-344.000,0.000,0.000,0
2026-01-29 21:01:02,548928,2008.000,13398.000,-840.000,6727.000,464.000,456.000,0.000,0.000,0
2026-01-29 21:01:02,548968,4563.000,14620.000,-228.000,5156.000,36.000,-79.000,0.000,0.000,0
2026-01-29 21:01:02,549008,4806.000,14677.000,-2166.000,-3106.000,-5081.000,-1598.000,0.000,0.000,0
2026-01-29 21:01:02,549048,4967.000,12365.000,-3190.000,-7309.000,-4222.000,-1086.000,0.000,0.000,0
2026-01-29 21:01:02,549088,4005.000,10742.000,-2842.000,-11164.000,-3694.000,-935.000,0.000,0.000,0
2026-01-29 21:01:02,549128,3143.000,8364.000,-2242.000,-13944.000,-5270.000,-282.000,0.000,0.000,0
2026-01-29 21:01:02,549168,2783.000,6412.000,-1646.000,-13378.000,-6378.000,-581.000,0.000,0.000,0
2026-01-29 21:01:02,549208,2181.000,4614.000,-1082.000,-13730.000,-6248.000,-1452.000,0.000,0.000,0
2026-01-29 21:01:02,549248,2023.000,1978.000,-593.000,-14106.000,-5403.000,-2360.000,0.000,0.000,0
2026-01-29 21:01:02,549288,1860.000,570.000,148.000,-10631.000,-4389.000,-2759.000,0.000,0.000,0
2026-01-29 21:01:02,549328,2871.000,355.000,431.000,-6549.000,-4255.000,-1792.000,0.000,0.000,0
2026-01-29 21:01:02,549368,4740.000,3789.000,704.000,-2606.000,-3404.000,857.000,0.000,0.000,0
2026-01-29 21:01:02,549408,6396.000,4477.000,956.000,-1466.000,-1757.000,5222.000,0.000,0.000,0
2026-01-29 21:01:02,549448,12231.000,6607.000,-1040.000,2385.000,-2517.000,7908.000,0.000,0.000,0
2026-01-29 21:01:02,549488,13142.000,7564.000,2266.000,8300.000,5781.000,6587.000,0.000,0.000,0
2026-01-29 21:01:02,549528,10102.000,8826.000,1693.000,19622.000,5524.000,2424.000,0.000,0.000,0
2026-01-29 21:01:02,549568,4087.000,15849.000,3805.000,24213.000,7054.000,-679.000,0.000,0.000,0
2026-01-29 21:01:02,549608,4040.000,11553.000,4343.000,8332.000,2965.000,-1788.000,0.000,0.000,0
2026-01-29 21:01:02,549648,2464.000,7306.000,2869.000,312.000,2892.000,-1289.000,0.000,0.000,0
2026-01-29 21:01:02,549688,1380.000,3919.000,528.000,-162.000,3630.000,-694.000,0.000,0.000,0
2026-01-29 21:01:02,549728,-86.000,3925.000,1172.000,2986.000,4781.000,-791.000,0.000,0.000,0
2026-01-29 21:01:03,549768,-539.000,3869.000,1246.000,2433.000,3861.000,-1324.000,0.000,0.000,0
2026-01-29 21:01:03,549808,-114.000,4797.000,898.000,-381.000,2942.000,-1095.000,0.000,0.000,0
2026-01-29 21:01:03,549848,917.000,5478.000,83.000,-3607.000,2813.000,-294.000,0.000,0.000,0
2026-01-29 21:01:03,549888,1201.000,7221.000,1164.000,-3891.000,3507.000,153.000,0.000,0.000,0
2026-01-29 21:01:03,549928,1861.000,7100.000,1609.000,-2370.000,3710.000,18.000,0.000,0.000,0
2026-01-29 21:01:03,549968,2374.000,10522.000,3150.000,10834.000,976.000,-1913.000,0.000,0.000,0
2026-01-29 21:01:03,550008,2780.000,13796.000,3581.000,9400.000,-2105.000,-1319.000,0.000,0.000,0
2026-01-29 21:01:03,550048,4615.000,16933.000,3546.000,1717.000,-4997.000,431.000,0.000,0.000,0
2026-01-29 21:01:03,550088,3271.000,11073.000,1629.000,-7519.000,-5098.000,-561.000,0.000,0.000,0
2026-01-29 21:01:03,550128,3419.000,10063.000,220.000,-6942.000,-4108.000,-565.000,0.000,0.000,0
2026-01-29 21:01:03,550168,2700.000,9093.000,399.000,-7704.000,-4327.000,270.000,0.000,0.000,0
2026-01-29 21:01:03,550208,1635.000,5881.000,-11.000,-9943.000,-4637.000,17.000,0.000,0.000,0
2026-01-29 21:01:03,550248,1178.000,3283.000,-186.000,-10198.000,-5302.000,-1721.000,0.000,0.000,0
2026-01-29 21:01:03,550288,1324.000,2565.000,-190.000,-7777.000,-5457.000,-2507.000,0.000,0.000,0
2026-01-29 21:01:03,550328,1667.000,2211.000,-123.000,-4730.000,-5229.000,-2138.000,0.000,0.000,0
2026-01-29 21:01:03,550368,1669.000,1989.000,-61.000,-1325.000,-4580.000,-1709.000,0.000,0.000,0
2026-01-29 21:01:03,550408,4151.000,6275.000,1110.000,3504.000,-4597.000,-294.000,0.000,0.000,0
2026-01-29 21:01:03,550448,5518.000,8132.000,1678.000,1241.000,-2627.000,2375.000,0.000,0.000,0
2026-01-29 21:01:03,550488,5789.000,5490.000,989.000,-363.000,-412.000,4157.000,0.000,0.000,0
2026-01-29 21:01:03,550528,5768.000,3668.000,2794.000,1696.000,1907.000,5602.000,0.000,0.000,0
2026-01-29 21:01:03,550568,8688.000,6452.000,2103.000,3785.000,1580.000,8102.000,0.000,0.000,0
2026-01-29 21:01:03,550608,8080.000,3593.000,674.000,3143.000,4186.000,11122.000,0.000,0.000,0
2026-01-29 21:01:03,550648,8743.000,1370.000,-982.000,7339.000,3829.000,11806.000,0.000,0.000,0
2026-01-29 21:01:03,550688,9613.000,1935.000,-1089.000,16073.000,2932.000,9039.000,0.000,0.000,0
2026-01-29 21:01:03,550728,8530.000,4092.000,-1379.000,23813.000,2650.000,7124.000,0.000,0.000,0
2026-01-29 21:01:04,550768,7261.000,6656.000,-465.000,23303.000,2740.000,7433.000,0.000,0.000,0
2026-01-29 21:01:04,550808,5349.000,4797.000,-614.000,13813.000,2785.000,7787.000,0.000,0.000,0
2026-01-29 21:01:04,550848,4994.000,4691.000,-2508.000,5431.000,2363.000,6704.000,0.000,0.000,0
2026-01-29 21:01:04,550888,5308.000,3695.000,-2131.000,2791.000,2170.000,6147.000,0.000,0.000,0
2026-01-29 21:01:04,550928,9253.000,3365.000,-3414.000,3989.000,-2311.000,1795.000,0.000,0.000,0
2026-01-29 21:01:04,550968,9772.000,4453.000,-3998.000,10025.000,-720.000,76.000,0.000,0.000,0
2026-01-29 21:01:04,551008,8803.000,7302.000,-1224.000,10652.000,-988.000,-1502.000,0.000,0.000,0
2026-01-29 21:01:04,551048,10390.000,5912.000,-3641.000,6133.000,-2473.000,-2235.000,0.000,0.000,0
2026-01-29 21:01:04,551088,10624.000,6925.000,-1710.000,5157.000,-49.000,-3056.000,0.000,0.000,0
2026-01-29 21:01:04,551128,9435.000,6022.000,-1292.000,415.000,-974.000,-3033.000,0.000,0.000,0
2026-01-29 21:01:04,551168,12266.000,6435.000,-938.000,-5294.000,-2094.000,-2599.000,0.000,0.000,0
2026-01-29 21:01:04,551208,11597.000,3637.000,-2703.000,-13596.000,-2626.000,-1933.000,0.000,0.000,0
2026-01-29 21:01:04,551248,6290.000,2203.000,-1118.000,-16375.000,-1305.000,-2171.000,0.000,0.000,0
2026-01-29 21:01:04,551288,4494.000,2189.000,-643.000,-16079.000,-2970.000,-2715.000,0.000,0.000,0
2026-01-29 21:01:04,551328,4242.000,888.000,-2003.000,-13339.000,-3289.000,-2905.000,0.000,0.000,0
2026-01-29 21:01:04,551368,4299.000,560.000,-3798.000,-8762.000,-1721.000,-3852.000,0.000,0.000,0
2026-01-29 21:01:04,551408,5001.000,582.000,-3390.000,-6984.000,409.000,-5610.000,0.000,0.000,0
2026-01-29 21:01:04,551448,6217.000,-236.000,-3989.000,-7077.000,947.000,-6190.000,0.000,0.000,0
2026-01-29 21:01:04,551488,7915.000,78.000,-2705.000,680.000,470.000,-4124.000,0.000,0.000,0
2026-01-29 21:01:04,551528,7616.000,5144.000,208.000,7547.000,-822.000,934.000,0.000,0.000,0
2026-01-29 21:01:04,551568,8798.000,3825.000,1072.000,3735.000,-3042.000,6864.000,0.000,0.000,0
2026-01-29 21:01:04,551608,13618.000,3267.000,-915.000,-338.000,-3134.000,8379.000,0.000,0.000,0
2026-01-29 21:01:04,551648,11239.000,4371.000,2823.000,609.000,1955.000,8489.000,0.000,0.000,0
2026-01-29 21:01:04,551688,8969.000,3361.000,2497.000,-1063.000,1094.000,8113.000,0.000,0.000,0
2026-01-29 21:01:04,551728,12328.000,436.000,-1603.000,1156.000,-232.000,3882.000,0.000,0.000,0
2026-01-29 21:01:05,551768,7092.000,1101.000,-1226.000,6417.000,3865.000,-55.000,0.000,0.000,0
2026-01-29 21:01:05,551808,3903.000,1566.000,-367.000,10095.000,4223.000,-1518.000,0.000,0.000,0
2026-01-29 21:01:05,551848,2564.000,2786.000,9.000,10704.000,3552.000,-2088.000,0.000,0.000,0
2026-01-29 21:01:05,551888,3165.000,2770.000,-602.000,4798.000,-129.000,199.000,0.000,0.000,0
2026-01-29 21:01:05,551928,3858.000,1928.000,-1183.000,1718.000,-808.000,1722.000,0.000,0.000,0
2026-01-29 21:01:05,551968,5891.000,1531.000,-2020.000,4074.000,-1964.000,2702.000,0.000,0.000,0
2026-01-29 21:01:05,552008,8892.000,3047.000,-1740.000,8198.000,-1786.000,2645.000,0.000,0.000,0
2026-01-29 21:01:05,552048,11991.000,7105.000,-1292.000,7234.000,-2767.000,2777.000,0.000,0.000,0
2026-01-29 21:01:05,552088,9538.000,5813.000,-1950.000,2516.000,-33.000,4023.000,0.000,0.000,0
2026-01-29 21:01:05,552128,14278.000,4515.000,-3000.000,2168.000,-495.000,3027.000,0.000,0.000,0
2026-01-29 21:01:05,552168,9545.000,6247.000,-607.000,3105.000,1497.000,603.000,0.000,0.000,0
2026-01-29 21:01:05,552208,10905.000,5708.000,-2087.000,-806.000,-190.000,-1080.000,0.000,0.000,0
2026-01-29 21:01:05,552248,11542.000,4173.000,-2624.000,-6366.000,294.000,-2159.000,0.000,0.000,0
2026-01-29 21:01:05,552288,8492.000,2609.000,-1896.000,-10802.000,522.000,-2473.000,0.000,0.000,0
2026-01-29 21:01:05,552328,5673.000,2091.000,-995.000,-12976.000,-574.000,-3373.000,0.000,0.000,0
2026-01-29 21:01:05,552368,4695.000,2308.000,-747.000,-14547.000,-1710.000,-4286.000,0.000,0.000,0
2026-01-29 21:01:05,552408,4843.000,1252.000,-1759.000,-15163.000,-2106.000,-4500.000,0.000,0.000,0
2026-01-29 21:01:05,552448,5154.000,244.000,-2202.000,-13015.000,-635.000,-4499.000,0.000,0.000,0
2026-01-29 21:01:05,552488,5818.000,-260.000,-1909.000,-9372.000,958.000,-4028.000,0.000,0.000,0
2026-01-29 21:01:05,552528,7663.000,-423.000,-2219.000,-4983.000,1785.000,-2718.000,0.000,0.000,0
2026-01-29 21:01:05,552568,9753.000,660.000,-3096.000,1278.000,2929.000,-559.000,0.000,0.000,0
2026-01-29 21:01:05,552608,9030.000,261.000,-3286.000,5532.000,3409.000,793.000,0.000,0.000,0
2026-01-29 21:01:05,552648,9677.000,2078.000,-1216.000,6655.000,1776.000,1570.000,0.000,0.000,0
2026-01-29 21:01:05,552688,11255.000,1196.000,-1593.000,4664.000,-1320.000,3766.000,0.000,0.000,0
2026-01-29 21:01:05,552728,9402.000,1592.000,-129.000,3386.000,-2513.000,5509.000,0.000,0.000,0
2026-01-29 21:01:06,552768,9431.000,-14.000,-1089.000,2441.000,-2934.000,5855.000,0.000,0.000,0
2026-01-29 21:01:06,552808,8392.000,513.000,-1164.000,6163.000,-292.000,2566.000,0.000,0.000,0
2026-01-29 21:01:06,552848,5278.000,2550.000,45.000,11893.000,1752.000,1930.000,0.000,0.000,0
2026-01-29 21:01:06,552888,4381.000,2367.000,-220.000,10115.000,1159.000,1437.000,0.000,0.000,0
2026-01-29 21:01:06,552928,4051.000,2334.000,-582.000,8786.000,1107.000,2430.000,0.000,0.000,0
2026-01-29 21:01:06,552968,5838.000,2584.000,-1690.000,7965.000,893.000,3312.000,0.000,0.000,0
2026-01-29 21:01:06,553008,7896.000,3257.000,-1883.000,7923.000,1409.000,4482.000,0.000,0.000,0
2026-01-29 21:01:06,553048,9398.000,4288.000,-2335.000,8437.000,1461.000,4688.000,0.000,0.000,0
2026-01-29 21:01:06,553088,10099.000,6372.000,-1642.000,6922.000,1460.000,3998.000,0.000,0.000,0
2026-01-29 21:01:06,553128,8367.000,6708.000,-826.000,2243.000,876.000,2503.000,0.000,0.000,0
2026-01-29 21:01:06,553168,11189.000,5288.000,-1986.000,-346.000,-2114.000,-46.000,0.000,0.000,0
2026-01-29 21:01:06,553208,9869.000,6031.000,-823.000,-1104.000,-1847.000,-2274.000,0.000,0.000,0
2026-01-29 21:01:06,553248,11777.000,5621.000,-2152.000,-6025.000,-1651.000,-3141.000,0.000,0.000,0
2026-01-29 21:01:06,553288,13147.000,4447.000,-3191.000,-11347.000,-611.000,-3895.000,0.000,0.000,0
2026-01-29 21:01:06,553328,10711.000,2384.000,-3422.000,-13974.000,108.000,-5173.000,0.000,0.000,0
2026-01-29 21:01:06,553368,7657.000,2059.000,-2435.000,-13070.000,-337.000,-7121.000,0.000,0.000,0
2026-01-29 21:01:06,553408,6300.000,1986.000,-1828.000,-12562.000,-1174.000,-8384.000,0.000,0.000,0
2026-01-29 21:01:06,553448,6658.000,1541.000,-2397.000,-12920.000,-1097.000,-8593.000,0.000,0.000,0
2026-01-29 21:01:06,553488,6655.000,835.000,-2415.000,-12501.000,269.000,-7843.000,0.000,0.000,0
2026-01-29 21:01:06,553528,7774.000,532.000,-2853.000,-10847.000,1328.000,-6043.000,0.000,0.000,0
2026-01-29 21:01:06,553568,8736.000,-136.000,-2679.000,-7050.000,2781.000,-3747.000,0.000,0.000,0
2026-01-29 21:01:06,553608,9097.000,20.000,-3285.000,-2761.000,3700.000,-1980.000,0.000,0.000,0
2026-01-29 21:01:06,553648,7909.000,291.000,-2222.000,1488.000,4088.000,-1207.000,0.000,0.000,0
2026-01-29 21:01:06,553688,9592.000,1190.000,-1064.000,4127.000,1706.000,451.000,0.000,0.000,0
2026-01-29 21:01:06,553728,9895.000,902.000,-1366.000,4330.000,-372.000,2872.000,0.000,0.000,0
2026-01-29 21:01:07,553768,8571.000,1470.000,752.000,4381.000,-853.000,3933.000,0.000,0.000,0
2026-01-29 21:01:07,553808,9394.000,205.000,-1146.000,4792.000,-4228.000,6418.000,0.000,0.000,0
2026-01-29 21:01:07,553848,7831.000,852.000,-1244.000,7405.000,-2212.000,6235.000,0.000,0.000,0
2026-01-29 21:01:07,553888,6075.000,1703.000,-731.000,10573.000,-1239.000,5739.000,0.000,0.000,0
2026-01-29 21:01:07,553928,5351.000,2276.000,-748.000,11523.000,-882.000,6133.000,0.000,0.000,0
2026-01-29 21:01:07,553968,6314.000,2588.000,-1146.000,12232.000,-165.000,7117.000,0.000,0.000,0
2026-01-29 21:01:07,554008,8001.000,3874.000,-2247.000,13429.000,801.000,7007.000,0.000,0.000,0
2026-01-29 21:01:07,554048,9412.000,5620.000,-2284.000,11726.000,2149.000,6274.000,0.000,0.000,0
2026-01-29 21:01:07,554088,9739.000,4939.000,-2837.000,10650.000,2409.000,4445.000,0.000,0.000,0
2026-01-29 21:01:07,554128,9555.000,7821.000,-1925.000,10389.000,2307.000,1895.000,0.000,0.000,0
2026-01-29 21:01:07,554168,8086.000,8029.000,-1037.000,4866.000,462.000,353.000,0.000,0.000,0
2026-01-29 21:01:07,554208,11240.000,6253.000,-3037.000,-1083.000,-2437.000,-915.000,0.000,0.000,0
2026-01-29 21:01:07,554248,8755.000,6257.000,-1966.000,-3663.000,-1223.000,-1968.000,0.000,0.000,0
2026-01-29 21:01:07,554288,10930.000,6053.000,-2708.000,-9273.000,-2570.000,-3289.000,0.000,0.000,0
2026-01-29 21:01:07,554328,14132.000,4600.000,-4510.000,-15228.000,-2510.000,-4358.000,0.000,0.000,0
2026-01-29 21:01:07,554368,12006.000,1676.000,-4681.000,-18172.000,-721.000,-6416.000,0.000,0.000,0
2026-01-29 21:01:07,554408,7780.000,1722.000,-2692.000,-16846.000,-25.000,-8256.000,0.000,0.000,0
2026-01-29 21:01:07,554448,7421.000,1270.000,-2662.000,-14303.000,-1304.000,-9165.000,0.000,0.000,0
2026-01-29 21:01:07,554488,6897.000,1483.000,-2310.000,-11781.000,-789.000,-8816.000,0.000,0.000,0
2026-01-29 21:01:07,554528,6922.000,859.000,-2686.000,-10024.000,240.000,-7992.000,0.000,0.000,0
2026-01-29 21:01:07,554568,7327.000,641.000,-2648.000,-8293.000,1844.000,-6894.000,0.000,0.000,0
2026-01-29 21:01:07,554608,7961.000,339.000,-3188.000,-5461.000,3146.000,-5105.000,0.000,0.000,0
2026-01-29 21:01:07,554648,7814.000,111.000,-3492.000,-1364.000,4411.000,-3560.000,0.000,0.000,0
2026-01-29 21:01:07,554688,7238.000,-106.000,-778.000,3431.000,4549.000,-2538.000,0.000,0.000,0
2026-01-29 21:01:07,554728,7254.000,599.000,352.000,4727.000,3937.000,-2102.000,0.000,0.000,0
2026-01-29 21:01:08,554768,9607.000,1823.000,-343.000,7004.000,-1106.000,5613.000,0.000,0.000,0
2026-01-29 21:01:08,554808,9443.000,1531.000,628.000,7672.000,-2497.000,9905.000,0.000,0.000,0
2026-01-29 21:01:08,554848,12259.000,957.000,-1423.000,12005.000,-1772.000,9629.000,0.000,0.000,0
2026-01-29 21:01:08,554888,11194.000,3990.000,-1135.000,13150.000,1919.000,7552.000,0.000,0.000,0
2026-01-29 21:01:08,554928,7001.000,2636.000,-912.000,12173.000,4243.000,5810.000,0.000,0.000,0
2026-01-29 21:01:08,554968,6033.000,3929.000,-366.000,11845.000,3952.000,5025.000,0.000,0.000,0
2026-01-29 21:01:08,555008,5675.000,3527.000,-956.000,8725.000,3033.000,5717.000,0.000,0.000,0
2026-01-29 21:01:08,555048,6250.000,2214.000,-2519.000,7109.000,3618.000,5744.000,0.000,0.000,0
2026-01-29 21:01:08,555088,7264.000,2508.000,-2200.000,8473.000,4302.000,5365.000,0.000,0.000,0
2026-01-29 21:01:08,555128,9689.000,5658.000,-1481.000,9171.000,4514.000,5733.000,0.000,0.000,0
2026-01-29 21:01:08,555168,9000.000,7673.000,-2657.000,3274.000,5333.000,5997.000,0.000,0.000,0
2026-01-29 21:01:08,555208,9513.000,4490.000,-4576.000,1933.000,5553.000,3402.000,0.000,0.000,0
2026-01-29 21:01:08,555248,8784.000,6402.000,-805.000,4804.000,3904.000,-783.000,0.000,0.000,0
2026-01-29 21:01:08,555288,9968.000,7632.000,-342.000,-702.000,-2270.000,-874.000,0.000,0.000,0
2026-01-29 21:01:08,555328,9486.000,7421.000,-1426.000,-8851.000,-4826.000,-1078.000,0.000,0.000,0
2026-01-29 21:01:08,555368,12377.000,5579.000,-3355.000,-16673.000,-4928.000,-2794.000,0.000,0.000,0
2026-01-29 21:01:08,555408,14891.000,3502.000,-4070.000,-19950.000,-3019.000,-5791.000,0.000,0.000,0
2026-01-29 21:01:08,555448,12067.000,297.000,-3059.000,-17496.000,-767.000,-9364.000,0.000,0.000,0
2026-01-29 21:01:08,555488,8831.000,761.000,-1647.000,-13087.000,-311.000,-12777.000,0.000,0.000,0
2026-01-29 21:01:08,555528,7862.000,1371.000,-1467.000,-10700.000,-647.000,-13366.000,0.000,0.000,0
2026-01-29 21:01:08,555568,8092.000,1512.000,-1605.000,-10657.000,-416.000,-11979.000,0.000,0.000,0
2026-01-29 21:01:08,555608,8238.000,328.000,-2225.000,-10363.000,976.000,-10541.000,0.000,0.000,0
2026-01-29 21:01:08,555648,8570.000,-664.000,-2565.000,-7754.000,2302.000,-8900.000,0.000,0.000,0
2026-01-29 21:01:08,555688,8760.000,-915.000,-2753.000,-5433.000,3042.000,-7685.000,0.000,0.000,0
2026-01-29 21:01:08,555728,6730.000,-528.000,-2503.000,4827.000,4452.000,-2485.000,0.000,0.000,0
2026-01-29 21:01:09,555768,6442.000,1904.000,470.000,6787.000,2779.000,1172.000,0.000,0.000,0
2026-01-29 21:01:09,555808,8822.000,2584.000,1028.000,2964.000,-1567.000,6540.000,0.000,0.000,0
2026-01-29 21:01:09,555848,9026.000,2149.000,-20.000,-897.000,-3426.000,10435.000,0.000,0.000,0
2026-01-29 21:01:09,555888,11373.000,912.000,-1203.000,-1245.000,-4034.000,12470.000,0.000,0.000,0
2026-01-29 21:01:09,555928,12075.000,1273.000,-205.000,3556.000,-3775.000,12249.000,0.000,0.000,0
2026-01-29 21:01:09,555968,10766.000,2469.000,-205.000,6700.000,-3356.000,11216.000,0.000,0.000,0
2026-01-29 21:01:09,556008,7485.000,2065.000,355.000,7428.000,-2418.000,9947.000,0.000,0.000,0
2026-01-29 21:01:09,556048,6362.000,2291.000,-112.000,9109.000,-2929.000,8834.000,0.000,0.000,0
2026-01-29 21:01:09,556088,6833.000,2741.000,-628.000,10041.000,-1552.000,7922.000,0.000,0.000,0
2026-01-29 21:01:09,556128,7768.000,3362.000,-1039.000,11008.000,-392.000,7002.000,0.000,0.000,0
2026-01-29 21:01:09,556168,9109.000,5040.000,-1040.000,11244.000,768.000,5901.000,0.000,0.000,0
2026-01-29 21:01:09,556208,10789.000,7483.000,-652.000,7461.000,1127.000,4767.000,0.000,0.000,0
2026-01-29 21:01:09,556248,9113.000,6539.000,188.000,1658.000,243.000,3475.000,0.000,0.000,0
2026-01-29 21:01:09,556288,8871.000,5040.000,68.000,-1645.000,-1615.000,449.000,0.000,0.000,0
2026-01-29 21:01:09,556328,10497.000,5031.000,-453.000,-3138.000,-2923.000,-2153.000,0.000,0.000,0
2026-01-29 21:01:09,556368,10687.000,5527.000,21.000,-5105.000,-1742.000,-3503.000,0.000,0.000,0
2026-01-29 21:01:09,556408,12269.000,5207.000,-847.000,-10658.000,-1397.000,-4146.000,0.000,0.000,0
2026-01-29 21:01:09,556448,15963.000,3731.000,-2830.000,-15914.000,569.000,-5088.000,0.000,0.000,0
2026-01-29 21:01:09,556488,16682.000,-88.000,-4684.000,-16841.000,4271.000,-7546.000,0.000,0.000,0
2026-01-29 21:01:09,556528,11465.000,-1435.000,-2750.000,-11619.000,7242.000,-11705.000,0.000,0.000,0
2026-01-29 21:01:09,556568,8337.000,-410.000,-1110.000,-5489.000,5972.000,-14565.000,0.000,0.000,0
2026-01-29 21:01:09,556608,6893.000,1246.000,-320.000,-2763.000,3379.000,-15053.000,0.000,0.000,0
2026-01-29 21:01:09,556648,7096.000,1859.000,-871.000,-2823.000,1970.000,-14252.000,0.000,0.000,0
2026-01-29 21:01:09,556688,7419.000,163.000,-2107.000,-6717.000,1923.000,-9239.000,0.000,0.000,0
2026-01-29 21:01:09,556728,7196.000,-1586.000,-2802.000,-4781.000,3700.000,-6794.000,0.000,0.000,0
2026-01-29 21:01:10,556768,6328.000,-1468.000,-3231.000,826.000,5433.000,-4096.000,0.000,0.000,0
2026-01-29 21:01:10,556808,5383.000,523.000,-2680.000,6113.000,5701.000,-300.000,0.000,0.000,0
2026-01-29 21:01:10,556848,6937.000,1822.000,-681.000,7835.000,3709.000,4807.000,0.000,0.000,0
2026-01-29 21:01:10,556888,8528.000,2363.000,-50.000,6474.000,577.000,10174.000,0.000,0.000,0
2026-01-29 21:01:10,556928,10331.000,3516.000,644.000,3965.000,-3486.000,14954.000,0.000,0.000,0
2026-01-29 21:01:10,556968,13281.000,2951.000,1264.000,441.000,-7182.000,17886.000,0.000,0.000,0
2026-01-29 21:01:10,557008,14205.000,2745.000,-1759.000,-3545.000,-8463.000,16661.000,0.000,0.000,0
2026-01-29 21:01:10,557048,6912.000,132.000,469.000,-1531.000,-3043.000,13556.000,0.000,0.000,0
2026-01-29 21:01:10,557088,8193.000,632.000,-972.000,5319.000,-6618.000,8900.000,0.000,0.000,0
2026-01-29 21:01:10,557128,6499.000,708.000,-79.000,10713.000,-1915.000,5545.000,0.000,0.000,0
2026-01-29 21:01:10,557168,8485.000,2962.000,-859.000,15974.000,-2268.000,4347.000,0.000,0.000,0
2026-01-29 21:01:10,557208,8390.000,4684.000,-1175.000,17124.000,-399.000,4070.000,0.000,0.000,0
2026-01-29 21:01:10,557248,9264.000,5926.000,-1525.000,15210.000,1080.000,3692.000,0.000,0.000,0
2026-01-29 21:01:10,557288,10198.000,8008.000,-1706.000,12482.000,2215.000,2676.000,0.000,0.000,0
2026-01-29 21:01:10,557328,8757.000,7293.000,-503.000,4607.000,2251.000,1493.000,0.000,0.000,0
2026-01-29 21:01:10,557368,9322.000,5724.000,-761.000,-2852.000,-651.000,-438.000,0.000,0.000,0
2026-01-29 21:01:10,557408,12550.000,5123.000,-2248.000,-7564.000,-2577.000,-2169.000,0.000,0.000,0
2026-01-29 21:01:10,557448,10494.000,4115.000,-1288.000,-10275.000,-1514.000,-4545.000,0.000,0.000,0
2026-01-29 21:01:10,557488,14399.000,3501.000,-2616.000,-14319.000,-2067.000,-6516.000,0.000,0.000,0
2026-01-29 21:01:10,557528,16678.000,1225.000,-4242.000,-17556.000,885.000,-8994.000,0.000,0.000,0
2026-01-29 21:01:10,557568,13087.000,-562.000,-1726.000,-15512.000,4422.000,-11256.000,0.000,0.000,0
2026-01-29 21:01:10,557608,8751.000,408.000,-1326.000,-13223.000,4401.000,-12242.000,0.000,0.000,0
2026-01-29 21:01:10,557648,7530.000,1433.000,-1013.000,-6831.000,1918.000,-11017.000,0.000,0.000,0
2026-01-29 21:01:10,557688,7761.000,1055.000,-1634.000,-7407.000,1273.000,-9789.000,0.000,0.000,0
2026-01-29 21:01:10,557728,7644.000,617.000,-2191.000,-7861.000,2483.000,-8495.000,0.000,0.000,0
2026-01-29 21:01:11,557768,7678.000,-579.000,-2547.000,-5776.000,3968.000,-7277.000,0.000,0.000,0
2026-01-29 21:01:11,557808,7139.000,-805.000,-2415.000,-1835.000,4881.000,-5928.000,0.000,0.000,0
2026-01-29 21:01:11,557848,5724.000,-571.000,-2065.000,2478.000,4296.000,-3963.000,0.000,0.000,0
2026-01-29 21:01:11,557888,5832.000,753.000,-1020.000,5743.000,2101.000,-1188.000,0.000,0.000,0
2026-01-29 21:01:11,557928,8705.000,1287.000,-1680.000,5576.000,-453.000,3861.000,0.000,0.000,0
2026-01-29 21:01:11,557968,8110.000,2995.000,905.000,4999.000,-964.000,8952.000,0.000,0.000,0
2026-01-29 21:01:11,558008,10257.000,2757.000,1814.000,689.000,-4384.000,14130.000,0.000,0.000,0
2026-01-29 21:01:11,558048,13010.000,585.000,-499.000,-1501.000,-7199.000,15716.000,0.000,0.000,0
2026-01-29 21:01:11,558088,10787.000,732.000,810.000,1740.000,-5044.000,14761.000,0.000,0.000,0
2026-01-29 21:01:11,558128,10023.000,-388.000,-764.000,8777.000,-5996.000,12603.000,0.000,0.000,0
2026-01-29 21:01:11,558168,7463.000,1716.000,474.000,15127.000,-3930.000,9150.000,0.000,0.000,0
2026-01-29 21:01:11,558208,8413.000,2892.000,-1105.000,15578.000,-2244.000,7782.000,0.000,0.000,0
2026-01-29 21:01:11,558248,8788.000,4825.000,-831.000,13361.000,-421.000,6434.000,0.000,0.000,0
2026-01-29 21:01:11,558288,8375.000,4044.000,-1391.000,8109.000,1068.000,5021.000,0.000,0.000,0
2026-01-29 21:01:11,558328,9061.000,3979.000,-919.000,5831.000,277.000,4039.000,0.000,0.000,0
2026-01-29 21:01:11,558368,9825.000,4988.000,-684.000,5894.000,-278.000,2890.000,0.000,0.000,0
2026-01-29 21:01:11,558408,9086.000,7196.000,-241.000,2629.000,-569.000,2160.000,0.000,0.000,0
2026-01-29 21:01:11,558448,9381.000,6181.000,-156.000,-3141.000,-1974.000,794.000,0.000,0.000,0
2026-01-29 21:01:11,558488,12993.000,5418.000,-808.000,-7739.000,-2653.000,-1482.000,0.000,0.000,0
2026-01-29 21:01:11,558528,11654.000,4221.000,-1125.000,-10910.000,-808.000,-4123.000,0.000,0.000,0
2026-01-29 21:01:11,558568,16985.000,2204.000,-3660.000,-14654.000,208.000,-7520.000,0.000,0.000,0
2026-01-29 21:01:11,558608,16459.000,-1227.000,-4603.000,-16534.000,7465.000,-10326.000,0.000,0.000,0
2026-01-29 21:01:11,558648,10981.000,-1527.000,-1723.000,-12659.000,10054.000,-13289.000,0.000,0.000,0
2026-01-29 21:01:11,558688,7142.000,-658.000,-904.000,-7505.000,8101.000,-14525.000,0.000,0.000,0
2026-01-29 21:01:11,558728,6484.000,849.000,-158.000,-2508.000,5111.000,-14311.000,0.000,0.000,0
2026-01-29 21:01:12,558768,7236.000,1412.000,-871.000,-677.000,2194.000,-12089.000,0.000,0.000,0
2026-01-29 21:01:12,558808,6593.000,882.000,-1692.000,-2465.000,2637.000,-9572.000,0.000,0.000,0
2026-01-29 21:01:12,558848,7005.000,-149.000,-2217.000,-3677.000,2890.000,-7009.000,0.000,0.000,0
2026-01-29 21:01:12,558888,6955.000,-649.000,-2563.000,-1556.000,4535.000,-4163.000,0.000,0.000,0
2026-01-29 21:01:12,558928,5716.000,-247.000,-2470.000,2200.000,4922.000,-1048.000,0.000,0.000,0
2026-01-29 21:01:12,558968,6008.000,964.000,-939.000,5296.000,3350.000,2252.000,0.000,0.000,0
2026-01-29 21:01:12,559008,8447.000,1942.000,-323.000,4515.000,-199.000,6989.000,0.000,0.000,0
2026-01-29 21:01:12,559048,9471.000,2534.000,-22.000,3254.000,-3750.000,12052.000,0.000,0.000,0
2026-01-29 21:01:12,559088,12219.000,2776.000,850.000,2115.000,-7344.000,15966.000,0.000,0.000,0
2026-01-29 21:01:12,559128,12910.000,2565.000,479.000,-935.000,-11222.000,16939.000,0.000,0.000,0
2026-01-29 21:01:12,559168,9902.000,1733.000,-160.000,-2428.000,-9339.000,15500.000,0.000,0.000,0
2026-01-29 21:01:12,559208,8666.000,-220.000,-1504.000,-2058.000,-9966.000,12076.000,0.000,0.000,0
2026-01-29 21:01:12,559248,7414.000,-1560.000,-1050.000,5602.000,-6392.000,7985.000,0.000,0.000,0
2026-01-29 21:01:12,559288,8392.000,846.000,-1529.000,15086.000,-4448.000,4833.000,0.000,0.000,0
2026-01-29 21:01:12,559328,9793.000,2583.000,-2235.000,18776.000,-2227.000,3122.000,0.000,0.000,0
2026-01-29 21:01:12,559368,10052.000,6920.000,-545.000,18707.000,308.000,2279.000,0.000,0.000,0
2026-01-29 21:01:12,559408,10703.000,8569.000,999.000,11042.000,-358.000,3714.000,0.000,0.000,0
2026-01-29 21:01:12,559448,9373.000,6613.000,463.000,1477.000,-686.000,3042.000,0.000,0.000,0
2026-01-29 21:01:12,559488,9028.000,3415.000,-644.000,-4957.000,-1232.000,-1084.000,0.000,0.000,0
2026-01-29 21:01:12,559528,11731.000,4107.000,-746.000,-4766.000,-1175.000,-3691.000,0.000,0.000,0
2026-01-29 21:01:12,559568,12001.000,4604.000,-352.000,-6645.000,1492.000,-4671.000,0.000,0.000,0
2026-01-29 21:01:12,559608,14407.000,3860.000,-1464.000,-11253.000,1684.000,-5278.000,0.000,0.000,0
2026-01-29 21:01:12,559648,18488.000,1110.000,-4387.000,-15256.000,3811.000,-7209.000,0.000,0.000,0
2026-01-29 21:01:12,559688,16309.000,-1839.000,-4677.000,-13000.000,9681.000,-11374.000,0.000,0.000,0
2026-01-29 21:01:12,559728,11509.000,-1648.000,-2537.000,-6854.000,11176.000,-15130.000,0.000,0.000,0
2026-01-29 21:01:13,559768,7791.000,-489.000,-1484.000,-2495.000,9228.000,-17172.000,0.000,0.000,0
2026-01-29 21:01:13,559808,5645.000,1190.000,-163.000,-547.000,6095.000,-17011.000,0.000,0.000,0
2026-01-29 21:01:13,559848,6927.000,2086.000,-823.000,-1803.000,2473.000,-13828.000,0.000,0.000,0
2026-01-29 21:01:13,559888,6100.000,228.000,-1553.000,-4670.000,2366.000,-9969.000,0.000,0.000,0
2026-01-29 21:01:13,559928,6620.000,-817.000,-2661.000,-3366.000,2869.000,-6695.000,0.000,0.000,0
2026-01-29 21:01:13,559968,5986.000,-729.000,-2712.000,-84.000,4049.000,-3258.000,0.000,0.000,0
2026-01-29 21:01:13,560008,5102.000,-184.000,-2859.000,3501.000,4485.000,534.000,0.000,0.000,0
2026-01-29 21:01:13,560048,5473.000,1074.000,-1330.000,6023.000,3522.000,4656.000,0.000,0.000,0
2026-01-29 21:01:13,560088,8270.000,2812.000,1343.000,5271.000,-132.000,10360.000,0.000,0.000,0
2026-01-29 21:01:13,560128,9325.000,3939.000,1773.000,1366.000,-4574.000,16608.000,0.000,0.000,0
2026-01-29 21:01:13,560168,14172.000,2541.000,-334.000,-3741.000,-8495.000,20928.000,0.000,0.000,0
2026-01-29 21:01:13,560208,15823.000,4674.000,1545.000,-7470.000,-9195.000,19813.000,0.000,0.000,0
2026-01-29 21:01:13,560248,10395.000,402.000,445.000,-8641.000,-12196.000,16538.000,0.000,0.000,0
2026-01-29 21:01:13,560288,8204.000,-681.000,-1550.000,-1180.000,-9119.000,9612.000,0.000,0.000,0
2026-01-29 21:01:13,560328,6756.000,-1922.000,-1573.000,5539.000,-6007.000,4813.000,0.000,0.000,0
2026-01-29 21:01:13,560368,8037.000,825.000,-1000.000,13256.000,-3630.000,1042.000,0.000,0.000,0
2026-01-29 21:01:13,560408,9784.000,2985.000,-1078.000,19804.000,-3615.000,1506.000,0.000,0.000,0
2026-01-29 21:01:13,560448,9288.000,7137.000,14.000,18560.000,-431.000,3284.000,0.000,0.000,0
2026-01-29 21:01:13,560488,9649.000,10449.000,2499.000,-2393.000,-426.000,7297.000,0.000,0.000,0
2026-01-29 21:01:13,560528,9753.000,6020.000,425.000,-14882.000,-1960.000,6092.000,0.000,0.000,0
2026-01-29 21:01:13,560568,10010.000,1784.000,-398.000,-14171.000,-1228.000,1084.000,0.000,0.000,0
2026-01-29 21:01:13,560608,13482.000,59.000,-1133.000,-7013.000,-154.000,-2655.000,0.000,0.000,0
2026-01-29 21:01:13,560648,13471.000,2582.000,-962.000,-2291.000,4526.000,-6281.000,0.000,0.000,0
2026-01-29 21:01:13,560688,15538.000,1202.000,-3923.000,-2458.000,6897.000,-8921.000,0.000,0.000,0
2026-01-29 21:01:13,560728,16465.000,-81.000,-4554.000,-2534.000,11104.000,-12646.000,0.000,0.000,0
2026-01-29 21:01:14,560768,11791.000,-253.000,-1933.000,-2353.000,11659.000,-15475.000,0.000,0.000,0
2026-01-29 21:01:14,560808,8579.000,1321.000,51.000,-2993.000,7677.000,-16075.000,0.000,0.000,0
2026-01-29 21:01:14,560848,7730.000,2201.000,-91.000,-5235.000,3041.000,-14530.000,0.000,0.000,0
2026-01-29 21:01:14,560888,7304.000,1426.000,-1298.000,-6930.000,466.000,-11959.000,0.000,0.000,0
2026-01-29 21:01:14,560928,8250.000,596.000,-3081.000,-7091.000,393.000,-9481.000,0.000,0.000,0
2026-01-29 21:01:14,560968,6763.000,-167.000,-3043.000,-5919.000,2909.000,-7503.000,0.000,0.000,0
2026-01-29 21:01:14,561008,7709.000,-215.000,-3100.000,-3686.000,3674.000,-5008.000,0.000,0.000,0
2026-01-29 21:01:14,561048,6555.000,-716.000,-2981.000,-372.000,4692.000,-2952.000,0.000,0.000,0
2026-01-29 21:01:14,561088,5518.000,82.000,-2325.000,3499.000,3818.000,-835.000,0.000,0.000,0
2026-01-29 21:01:14,561128,7560.000,1351.000,-206.000,4616.000,462.000,2657.000,0.000,0.000,0
2026-01-29 21:01:14,561168,7677.000,2354.000,843.000,3277.000,-2721.000,7169.000,0.000,0.000,0
2026-01-29 21:01:14,561208,9540.000,3492.000,2015.000,-44.000,-6997.000,12519.000,0.000,0.000,0
2026-01-29 21:01:14,561248,12326.000,1964.000,411.000,-4089.000,-10674.000,15317.000,0.000,0.000,0
2026-01-29 21:01:14,561288,13837.000,1268.000,-1355.000,-6025.000,-10629.000,13795.000,0.000,0.000,0
2026-01-29 21:01:14,561328,7973.000,-502.000,609.000,-3041.000,-9254.000,11437.000,0.000,0.000,0
2026-01-29 21:01:14,561368,7888.000,-1054.000,-671.000,4772.000,-9260.000,6984.000,0.000,0.000,0
2026-01-29 21:01:14,561408,8447.000,108.000,-673.000,11631.000,-6313.000,4971.000,0.000,0.000,0
2026-01-29 21:01:14,561448,9807.000,4190.000,170.000,17618.000,-3858.000,4937.000,0.000,0.000,0
2026-01-29 21:01:14,561488,10262.000,6880.000,936.000,15964.000,-977.000,5438.000,0.000,0.000,0
2026-01-29 21:01:14,561528,11922.000,7186.000,325.000,7897.000,95.000,5177.000,0.000,0.000,0
2026-01-29 21:01:14,561568,10155.000,7126.000,207.000,10.000,1055.000,5268.000,0.000,0.000,0
2026-01-29 21:01:14,561608,9003.000,5791.000,-162.000,-5469.000,570.000,3225.000,0.000,0.000,0
2026-01-29 21:01:14,561648,9194.000,2501.000,-1006.000,-7764.000,-184.000,-84.000,0.000,0.000,0
2026-01-29 21:01:14,561688,11267.000,2946.000,-1299.000,-5073.000,813.000,-3324.000,0.000,0.000,0
2026-01-29 21:01:14,561728,12359.000,3971.000,-1705.000,-5147.000,2389.000,-5227.000,0.000,0.000,0
2026-01-29 21:01:15,561768,15688.000,2844.000,-3461.000,-8844.000,4237.000,-6949.000,0.000,0.000,0
2026-01-29 21:01:15,561808,16644.000,149.000,-4596.000,-10760.000,7713.000,-9853.000,0.000,0.000,0
2026-01-29 21:01:15,561848,12425.000,-932.000,-3100.000,-8748.000,9290.000,-13689.000,0.000,0.000,0
2026-01-29 21:01:15,561888,8328.000,-675.000,-1634.000,-5804.000,7402.000,-16518.000,0.000,0.000,0
2026-01-29 21:01:15,561928,7168.000,1783.000,131.000,-3897.000,3890.000,-16855.000,0.000,0.000,0
2026-01-29 21:01:15,561968,7153.000,2575.000,-569.000,-4984.000,349.000,-14073.000,0.000,0.000,0
2026-01-29 21:01:15,562008,7813.000,1261.000,-1809.000,-7235.000,-131.000,-10751.000,0.000,0.000,0
2026-01-29 21:01:15,562048,7498.000,-286.000,-2741.000,-7212.000,1411.000,-8620.000,0.000,0.000,0
2026-01-29 21:01:15,562088,7402.000,-880.000,-2963.000,-4203.000,2791.000,-5999.000,0.000,0.000,0
2026-01-29 21:01:15,562128,6640.000,-528.000,-2719.000,784.000,3731.000,-3113.000,0.000,0.000,0
2026-01-29 21:01:15,562168,5251.000,516.000,-1075.000,4726.000,3059.000,106.000,0.000,0.000,0
2026-01-29 21:01:15,562208,6898.000,2395.000,1606.000,4182.000,-189.000,4386.000,0.000,0.000,0
2026-01-29 21:01:15,562248,8215.000,2279.000,1763.000,1287.000,-4190.000,9343.000,0.000,0.000,0
2026-01-29 21:01:15,562288,9993.000,1505.000,169.000,2306.000,-7413.000,13109.000,0.000,0.000,0
2026-01-29 21:01:15,562328,14311.000,1070.000,-984.000,4716.000,-7510.000,14167.000,0.000,0.000,0
2026-01-29 21:01:15,562368,12162.000,2460.000,266.000,5120.000,-5157.000,13455.000,0.000,0.000,0
2026-01-29 21:01:15,562408,9715.000,972.000,-1487.000,4590.000,-3547.000,11422.000,0.000,0.000,0
2026-01-29 21:01:15,562448,7272.000,2007.000,-374.000,10291.000,-813.000,7913.000,0.000,0.000,0
2026-01-29 21:01:15,562488,7855.000,1887.000,-1025.000,14914.000,-1300.000,6411.000,0.000,0.000,0
2026-01-29 21:01:15,562528,9396.000,4850.000,-1885.000,19888.000,-577.000,5462.000,0.000,0.000,0
2026-01-29 21:01:15,562568,8409.000,7019.000,-1316.000,17625.000,1582.000,5112.000,0.000,0.000,0
2026-01-29 21:01:15,562608,9708.000,6981.000,-2001.000,10796.000,2079.000,3978.000,0.000,0.000,0
2026-01-29 21:01:15,562648,8775.000,9137.000,-1465.000,4118.000,2614.000,4088.000,0.000,0.000,0
2026-01-29 21:01:15,562688,8123.000,7187.000,-1583.000,-2854.000,1634.000,3497.000,0.000,0.000,0
2026-01-29 21:01:15,562728,10044.000,6127.000,-1108.000,-7076.000,-865.000,879.000,0.000,0.000,0
2026-01-29 21:01:16,562768,11896.000,5155.000,-1777.000,-10405.000,-2180.000,-2472.000,0.000,0.000,0
2026-01-29 21:01:16,562808,13119.000,3834.000,-3043.000,-13097.000,-2065.000,-5723.000,0.000,0.000,0
2026-01-29 21:01:16,562848,17005.000,793.000,-5237.000,-14344.000,168.000,-8618.000,0.000,0.000,0
2026-01-29 21:01:16,562888,14852.000,-576.000,-3889.000,-13086.000,4834.000,-12768.000,0.000,0.000,0
2026-01-29 21:01:16,562928,10289.000,98.000,-1623.000,-10374.000,4921.000,-14828.000,0.000,0.000,0
2026-01-29 21:01:16,562968,7345.000,1201.000,-575.000,-7528.000,2456.000,-14765.000,0.000,0.000,0
2026-01-29 21:01:16,563008,7879.000,1761.000,-887.000,-5535.000,-814.000,-12798.000,0.000,0.000,0
2026-01-29 21:01:16,563048,7820.000,1069.000,-2074.000,-5704.000,-1504.000,-11029.000,0.000,0.000,0
2026-01-29 21:01:16,563088,8041.000,431.000,-2366.000,-6571.000,-42.000,-9537.000,0.000,0.000,0
2026-01-29 21:01:16,563128,7833.000,-800.000,-2763.000,-5771.000,1782.000,-7787.000,0.000,0.000,0
2026-01-29 21:01:16,563168,7214.000,-754.000,-2421.000,-2021.000,3254.000,-5651.000,0.000,0.000,0
2026-01-29 21:01:16,563208,6456.000,-143.000,-1860.000,1714.000,3253.000,-2980.000,0.000,0.000,0
2026-01-29 21:01:16,563248,5510.000,393.000,-471.000,3221.000,2066.000,124.000,0.000,0.000,0
2026-01-29 21:01:16,563288,8232.000,1390.000,-248.000,2229.000,-853.000,5078.000,0.000,0.000,0
2026-01-29 21:01:16,563328,8913.000,1898.000,-2.000,3612.000,-2066.000,10492.000,0.000,0.000,0
2026-01-29 21:01:16,563368,13493.000,2854.000,302.000,8194.000,-4381.000,16107.000,0.000,0.000,0
2026-01-29 21:01:16,563408,13917.000,5028.000,481.000,4820.000,-2957.000,14809.000,0.000,0.000,0
2026-01-29 21:01:16,563448,7408.000,1803.000,-719.000,1708.000,-2446.000,12675.000,0.000,0.000,0
2026-01-29 21:01:16,563488,6663.000,652.000,-1481.000,4775.000,-1279.000,8282.000,0.000,0.000,0
2026-01-29 21:01:16,563528,5501.000,1717.000,-177.000,8524.000,714.000,5278.000,0.000,0.000,0
2026-01-29 21:01:16,563568,7432.000,2497.000,-1352.000,11108.000,-207.000,4605.000,0.000,0.000,0
2026-01-29 21:01:16,563608,8192.000,3746.000,-1364.000,12024.000,811.000,5020.000,0.000,0.000,0
2026-01-29 21:01:16,563648,9727.000,5010.000,-1150.000,11008.000,1249.000,5836.000,0.000,0.000,0
2026-01-29 21:01:16,563688,10826.000,7072.000,-1650.000,8104.000,2064.000,5527.000,0.000,0.000,0
2026-01-29 21:01:16,563728,9243.000,7668.000,-1892.000,2762.000,2582.000,4409.000,0.000,0.000,0
2026-01-29 21:01:17,563768,8221.000,5100.000,-507.000,-2820.000,883.000,1250.000,0.000,0.000,0
2026-01-29 21:01:17,563808,10919.000,4421.000,-1246.000,-4804.000,-2438.000,-2340.000,0.000,0.000,0
2026-01-29 21:01:17,563848,10641.000,5098.000,-1167.000,-5382.000,-2776.000,-4248.000,0.000,0.000,0
2026-01-29 21:01:17,563888,12702.000,4015.000,-2621.000,-9518.000,-2388.000,-5136.000,0.000,0.000,0
2026-01-29 21:01:17,563928,14667.000,2456.000,-3494.000,-13739.000,119.000,-6798.000,0.000,0.000,0
2026-01-29 21:01:17,563968,13368.000,682.000,-3101.000,-14926.000,2954.000,-9038.000,0.000,0.000,0
2026-01-29 21:01:17,564008,9571.000,95.000,-1772.000,-12560.000,3573.000,-11243.000,0.000,0.000,0
2026-01-29 21:01:17,564048,7395.000,570.000,-1345.000,-9533.000,2449.000,-12410.000,0.000,0.000,0
2026-01-29 21:01:17,564088,7010.000,1006.000,-1081.000,-7685.000,1372.000,-11850.000,0.000,0.000,0
2026-01-29 21:01:17,564128,7550.000,1215.000,-1215.000,-6584.000,795.000,-10262.000,0.000,0.000,0
2026-01-29 21:01:17,564168,7457.000,534.000,-2086.000,-6642.000,1558.000,-8377.000,0.000,0.000,0
2026-01-29 21:01:17,564208,8105.000,-250.000,-2574.000,-4750.000,2688.000,-6402.000,0.000,0.000,0
2026-01-29 21:01:17,564248,7415.000,-201.000,-2510.000,-1587.000,3655.000,-4291.000,0.000,0.000,0
2026-01-29 21:01:17,564288,6268.000,398.000,-1128.000,2022.000,3385.000,-1930.000,0.000,0.000,0
2026-01-29 21:01:17,564328,8020.000,2344.000,1110.000,4289.000,-265.000,3584.000,0.000,0.000,0
2026-01-29 21:01:17,564368,8300.000,2200.000,1511.000,555.000,-3058.000,8453.000,0.000,0.000,0
2026-01-29 21:01:17,564408,9815.000,996.000,-787.000,907.000,-5874.000,12266.000,0.000,0.000,0
2026-01-29 21:01:17,564448,12884.000,1319.000,-754.000,4998.000,-5177.000,13173.000,0.000,0.000,0
2026-01-29 21:01:17,564488,12100.000,2519.000,551.000,5413.000,-4740.000,12693.000,0.000,0.000,0
2026-01-29 21:01:17,564528,8942.000,713.000,-495.000,4761.000,-4006.000,9909.000,0.000,0.000,0
2026-01-29 21:01:17,564568,6211.000,1034.000,-545.000,6377.000,-2988.000,7238.000,0.000,0.000,0
2026-01-29 21:01:17,564608,5658.000,1205.000,-333.000,9255.000,-1555.000,5147.000,0.000,0.000,0
2026-01-29 21:01:17,564648,7037.000,2337.000,-848.000,11569.000,-1436.000,4510.000,0.000,0.000,0
2026-01-29 21:01:17,564688,8256.000,3667.000,-541.000,12979.000,-318.000,4497.000,0.000,0.000,0
2026-01-29 21:01:17,564728,8643.000,5888.000,-38.000,11741.000,621.000,4365.000,0.000,0.000,0
2026-01-29 21:01:18,564768,10500.000,7016.000,-108.000,5742.000,111.000,5092.000,0.000,0.000,0
2026-01-29 21:01:18,564808,9585.000,6911.000,-874.000,-915.000,654.000,4841.000,0.000,0.000,0
2026-01-29 21:01:18,564848,8862.000,5094.000,-661.000,-5121.000,-30.000,2671.000,0.000,0.000,0
2026-01-29 21:01:18,564888,12229.000,3606.000,-1681.000,-7496.000,-1894.000,-691.000,0.000,0.000,0
2026-01-29 21:01:18,564928,11548.000,3711.000,-1375.000,-6999.000,-378.000,-3986.000,0.000,0.000,0
2026-01-29 21:01:18,564968,13140.000,2728.000,-2767.000,-7918.000,287.000,-6571.000,0.000,0.000,0
2026-01-29 21:01:18,565008,14500.000,873.000,-3797.000,-9388.000,2782.000,-9407.000,0.000,0.000,0
2026-01-29 21:01:18,565048,12252.000,271.000,-2747.000,-8943.000,5092.000,-11901.000,0.000,0.000,0
2026-01-29 21:01:18,565088,8662.000,776.000,-1245.000,-7945.000,4348.000,-13044.000,0.000,0.000,0
2026-01-29 21:01:18,565128,7033.000,1827.000,-383.000,-7491.000,2214.000,-12594.000,0.000,0.000,0
2026-01-29 21:01:18,565168,7249.000,1522.000,-686.000,-8137.000,-34.000,-10734.000,0.000,0.000,0
2026-01-29 21:01:18,565208,7792.000,921.000,-1733.000,-8045.000,-334.000,-9151.000,0.000,0.000,0
2026-01-29 21:01:18,565248,7177.000,-316.000,-2673.000,-7160.000,1370.000,-8181.000,0.000,0.000,0
2026-01-29 21:01:18,565288,7829.000,-233.000,-2443.000,-1854.000,3461.000,-5689.000,0.000,0.000,0
2026-01-29 21:01:18,565328,7343.000,-169.000,-2643.000,1966.000,4012.000,-2676.000,0.000,0.000,0
2026-01-29 21:01:18,565368,6740.000,887.000,-951.000,4691.000,3243.000,199.000,0.000,0.000,0
2026-01-29 21:01:18,565408,8568.000,1578.000,237.000,3262.000,-182.000,4426.000,0.000,0.000,0
2026-01-29 21:01:18,565448,8695.000,2498.000,988.000,1337.000,-2700.000,8829.000,0.000,0.000,0
2026-01-29 21:01:18,565488,10075.000,1641.000,349.000,-213.000,-5579.000,12736.000,0.000,0.000,0
2026-01-29 21:01:18,565528,12699.000,1228.000,-200.000,2160.000,-6733.000,13704.000,0.000,0.000,0
2026-01-29 21:01:18,565568,11612.000,2512.000,-324.000,2351.000,-4030.000,12732.000,0.000,0.000,0
2026-01-29 21:01:18,565608,7242.000,738.000,88.000,3458.000,-4783.000,9800.000,0.000,0.000,0
2026-01-29 21:01:18,565648,6951.000,1107.000,-543.000,5978.000,-3722.000,7684.000,0.000,0.000,0
2026-01-29 21:01:18,565688,6478.000,922.000,-925.000,9534.000,-2606.000,6639.000,0.000,0.000,0
2026-01-29 21:01:18,565728,8419.000,2736.000,-641.000,12319.000,-1638.000,6047.000,0.000,0.000,0
2026-01-29 21:01:19,565768,9317.000,4091.000,-414.000,11828.000,-744.000,6046.000,0.000,0.000,0
2026-01-29 21:01:19,565808,10704.000,6197.000,52.000,9956.000,-81.000,5540.000,0.000,0.000,0
2026-01-29 21:01:19,565848,9981.000,6724.000,-167.000,4984.000,75.000,4592.000,0.000,0.000,0
2026-01-29 21:01:19,565888,9076.000,5608.000,-339.000,64.000,-105.000,2086.000,0.000,0.000,0
2026-01-29 21:01:19,565928,9070.000,4110.000,-388.000,-3597.000,-1304.000,-893.000,0.000,0.000,0
2026-01-29 21:01:19,565968,12154.000,3906.000,-1192.000,-4530.000,-1714.000,-3159.000,0.000,0.000,0
2026-01-29 21:01:19,566008,11981.000,3889.000,-1209.000,-6306.000,-111.000,-4897.000,0.000,0.000,0
2026-01-29 21:01:19,566048,13900.000,2288.000,-2778.000,-9646.000,1017.000,-6756.000,0.000,0.000,0
2026-01-29 21:01:19,566088,14537.000,743.000,-3559.000,-11043.000,3562.000,-9382.000,0.000,0.000,0
2026-01-29 21:01:19,566128,12324.000,-61.000,-2641.000,-10219.000,5593.000,-11628.000,0.000,0.000,0
2026-01-29 21:01:19,566168,8758.000,399.000,-1663.000,-8715.000,5444.000,-12939.000,0.000,0.000,0
2026-01-29 21:01:19,566208,6860.000,887.000,-728.000,-7164.000,3812.000,-12467.000,0.000,0.000,0
2026-01-29 21:01:19,566248,6915.000,1420.000,-576.000,-5743.000,1650.000,-9756.000,0.000,0.000,0
2026-01-29 21:01:19,566288,7325.000,534.000,-1860.000,-6862.000,914.000,-7949.000,0.000,0.000,0
2026-01-29 21:01:19,566328,8297.000,-111.000,-2857.000,-5134.000,2107.000,-6183.000,0.000,0.000,0
2026-01-29 21:01:19,566368,7991.000,-201.000,-2948.000,-2064.000,3904.000,-4226.000,0.000,0.000,0
2026-01-29 21:01:19,566408,6774.000,-524.000,-2717.000,2210.000,4308.000,-2240.000,0.000,0.000,0
2026-01-29 21:01:19,566448,6846.000,629.000,-880.000,5249.000,2573.000,141.000,0.000,0.000,0
2026-01-29 21:01:19,566488,8918.000,1723.000,-290.000,5058.000,-589.000,4604.000,0.000,0.000,0
2026-01-29 21:01:19,566528,8008.000,3702.000,2645.000,3418.000,-3396.000,9804.000,0.000,0.000,0
2026-01-29 21:01:19,566568,10577.000,2492.000,1445.000,-634.000,-7888.000,14298.000,0.000,0.000,0
2026-01-29 21:01:19,566608,13249.000,1485.000,-764.000,-1269.000,-8810.000,14613.000,0.000,0.000,0
2026-01-29 21:01:19,566648,10445.000,1238.000,-938.000,97.000,-3170.000,12181.000,0.000,0.000,0
2026-01-29 21:01:19,566688,6259.000,-660.000,-76.000,4315.000,-2917.000,7655.000,0.000,0.000,0
2026-01-29 21:01:19,566728,6227.000,1513.000,287.000,8246.000,-2945.000,4432.000,0.000,0.000,0
2026-01-29 21:01:20,566768,6376.000,1325.000,-277.000,10289.000,-2081.000,3585.000,0.000,0.000,0
2026-01-29 21:01:20,566808,7322.000,2825.000,-757.000,12405.000,-1329.000,3890.000,0.000,0.000,0
2026-01-29 21:01:20,566848,8233.000,3843.000,-306.000,11860.000,-336.000,4332.000,0.000,0.000,0
2026-01-29 21:01:20,566888,9408.000,5212.000,-109.000,9381.000,16.000,4637.000,0.000,0.000,0
2026-01-29 21:01:20,566928,10179.000,5919.000,-401.000,5077.000,188.000,4645.000,0.000,0.000,0
2026-01-29 21:01:20,566968,9163.000,5904.000,-399.000,712.000,473.000,3487.000,0.000,0.000,0
2026-01-29 21:01:20,567008,8413.000,4285.000,-352.000,-2795.000,-535.000,1071.000,0.000,0.000,0
2026-01-29 21:01:20,567048,12390.000,3655.000,-1618.000,-4644.000,-2162.000,-1673.000,0.000,0.000,0
2026-01-29 21:01:20,567088,12199.000,3726.000,-1382.000,-5280.000,-34.000,-3916.000,0.000,0.000,0
2026-01-29 21:01:20,567128,13003.000,2609.000,-2720.000,-7405.000,600.000,-5962.000,0.000,0.000,0
2026-01-29 21:01:20,567168,14419.000,1056.000,-3687.000,-9357.000,2800.000,-8421.000,0.000,0.000,0
2026-01-29 21:01:20,567208,9335.000,687.000,-1765.000,-9192.000,4785.000,-10740.000,0.000,0.000,0
2026-01-29 21:01:20,567248,6982.000,1284.000,-883.000,-8846.000,3237.000,-10852.000,0.000,0.000,0
2026-01-29 21:01:20,567288,6853.000,1486.000,-747.000,-8913.000,812.000,-9800.000,0.000,0.000,0
2026-01-29 21:01:20,567329,6927.000,505.000,-1588.000,-9396.000,125.000,-8982.000,0.000,0.000,0
2026-01-29 21:01:20,567368,6888.000,175.000,-2064.000,-7743.000,1040.000,-8313.000,0.000,0.000,0
2026-01-29 21:01:20,567408,7730.000,-138.000,-2248.000,-5552.000,2270.000,-6938.000,0.000,0.000,0
2026-01-29 21:01:20,567448,8496.000,32.000,-2405.000,-2892.000,3038.000,-4536.000,0.000,0.000,0
2026-01-29 21:01:20,567488,7471.000,-135.000,-2683.000,922.000,3439.000,-1948.000,0.000,0.000,0
2026-01-29 21:01:20,567528,6469.000,240.000,-1284.000,4289.000,2499.000,-102.000,0.000,0.000,0
2026-01-29 21:01:20,567568,8601.000,1675.000,421.000,3966.000,-575.000,2868.000,0.000,0.000,0
2026-01-29 21:01:20,567608,8998.000,2260.000,1062.000,1649.000,-2827.000,6756.000,0.000,0.000,0
2026-01-29 21:01:20,567648,10087.000,2132.000,94.000,-302.000,-5314.000,10334.000,0.000,0.000,0
2026-01-29 21:01:20,567688,11852.000,959.000,-229.000,424.000,-5962.000,11180.000,0.000,0.000,0
2026-01-29 21:01:20,567728,10878.000,1072.000,-876.000,1982.000,-4753.000,9546.000,0.000,0.000,0
2026-01-29 21:01:21,567768,7924.000,-1135.000,-645.000,3676.000,-2835.000,7189.000,0.000,0.000,0
2026-01-29 21:01:21,567808,6144.000,1666.000,243.000,10142.000,-3045.000,5234.000,0.000,0.000,0
2026-01-29 21:01:21,567848,6107.000,1643.000,-436.000,12555.000,-2238.000,4619.000,0.000,0.000,0
2026-01-29 21:01:21,567888,6769.000,2956.000,-482.000,15750.000,-1046.000,4833.000,0.000,0.000,0
2026-01-29 21:01:21,567928,8623.000,4795.000,-884.000,16715.000,-294.000,4427.000,0.000,0.000,0
2026-01-29 21:01:21,567968,9576.000,6217.000,-1020.000,12939.000,1193.000,3753.000,0.000,0.000,0
2026-01-29 21:01:21,568008,9848.000,7337.000,-900.000,5911.000,2204.000,3405.000,0.000,0.000,0
2026-01-29 21:01:21,568048,9820.000,6476.000,-1194.000,-752.000,1679.000,3640.000,0.000,0.000,0
2026-01-29 21:01:21,568088,8951.000,4842.000,-1095.000,-4625.000,1054.000,2490.000,0.000,0.000,0
2026-01-29 21:01:21,568128,9868.000,3582.000,-1185.000,-5926.000,-936.000,4.000,0.000,0.000,0
2026-01-29 21:01:21,568168,11014.000,4127.000,-1280.000,-6140.000,-1319.000,-3373.000,0.000,0.000,0
2026-01-29 21:01:21,568208,13185.000,2965.000,-3054.000,-9142.000,-251.000,-4865.000,0.000,0.000,0
2026-01-29 21:01:21,568248,14170.000,915.000,-3885.000,-11295.000,2639.000,-7201.000,0.000,0.000,0
2026-01-29 21:01:21,568288,10732.000,145.000,-2340.000,-11220.000,4774.000,-9720.000,0.000,0.000,0
2026-01-29 21:01:21,568328,7377.000,583.000,-1028.000,-10359.000,3770.000,-11185.000,0.000,0.000,0
2026-01-29 21:01:21,568368,6199.000,1185.000,-635.000,-9152.000,1590.000,-11029.000,0.000,0.000,0
2026-01-29 21:01:21,568408,6524.000,1240.000,-907.000,-8204.000,-46.000,-9360.000,0.000,0.000,0
2026-01-29 21:01:21,568448,7071.000,905.000,-1688.000,-7964.000,146.000,-7965.000,0.000,0.000,0
2026-01-29 21:01:21,568488,7734.000,-15.000,-2581.000,-6923.000,1530.000,-6798.000,0.000,0.000,0
2026-01-29 21:01:21,568528,8608.000,-236.000,-2548.000,-4396.000,3277.000,-5150.000,0.000,0.000,0
2026-01-29 21:01:21,568568,8371.000,-664.000,-2809.000,-527.000,4152.000,-3431.000,0.000,0.000,0
2026-01-29 21:01:21,568608,7215.000,165.000,-1347.000,3548.000,3709.000,-1871.000,0.000,0.000,0
2026-01-29 21:01:21,568648,9022.000,1597.000,470.000,3986.000,325.000,1327.000,0.000,0.000,0
2026-01-29 21:01:21,568688,8766.000,2078.000,684.000,2291.000,-2222.000,5326.000,0.000,0.000,0
2026-01-29 21:01:21,568728,9143.000,2947.000,1327.000,-928.000,-5075.000,9381.000,0.000,0.000,0
2026-01-29 21:01:22,568768,10782.000,917.000,-33.000,-2800.000,-7129.000,11011.000,0.000,0.000,0
2026-01-29 21:01:22,568808,10774.000,295.000,-1392.000,-1370.000,-6576.000,9943.000,0.000,0.000,0
2026-01-29 21:01:22,568848,7820.000,-650.000,-721.000,1967.000,-5508.000,8795.000,0.000,0.000,0
2026-01-29 21:01:22,568888,5981.000,687.000,267.000,8853.000,-4525.000,6434.000,0.000,0.000,0
2026-01-29 21:01:22,568928,6512.000,1803.000,46.000,12070.000,-4742.000,5851.000,0.000,0.000,0
2026-01-29 21:01:22,568968,7637.000,2767.000,47.000,12474.000,-3608.000,6291.000,0.000,0.000,0
2026-01-29 21:01:22,569008,9252.000,3827.000,158.000,11520.000,-2577.000,6885.000,0.000,0.000,0
2026-01-29 21:01:22,569048,10643.000,4563.000,770.000,7903.000,-1535.000,6990.000,0.000,0.000,0
2026-01-29 21:01:22,569088,10083.000,5922.000,1084.000,4662.000,-426.000,5500.000,0.000,0.000,0
2026-01-29 21:01:22,569128,9855.000,5122.000,-195.000,-414.000,-1311.000,3377.000,0.000,0.000,0
2026-01-29 21:01:22,569168,11181.000,3540.000,-897.000,-5250.000,-880.000,182.000,0.000,0.000,0
2026-01-29 21:01:22,569208,12314.000,3503.000,-662.000,-5845.000,912.000,-2790.000,0.000,0.000,0
2026-01-29 21:01:22,569248,11793.000,2371.000,-2029.000,-6070.000,2231.000,-5511.000,0.000,0.000,0
2026-01-29 21:01:22,569288,15023.000,827.000,-3677.000,-6762.000,4335.000,-8804.000,0.000,0.000,0
2026-01-29 21:01:22,569328,13048.000,-29.000,-2795.000,-6010.000,7498.000,-11793.000,0.000,0.000,0
2026-01-29 21:01:22,569368,9726.000,598.000,-1075.000,-4734.000,7419.000,-13802.000,0.000,0.000,0
2026-01-29 21:01:22,569408,7780.000,1400.000,-435.000,-5166.000,4895.000,-14043.000,0.000,0.000,0
2026-01-29 21:01:22,569448,6687.000,1164.000,-624.000,-5912.000,2245.000,-12521.000,0.000,0.000,0
2026-01-29 21:01:22,569488,7673.000,1190.000,-1078.000,-6452.000,473.000,-10223.000,0.000,0.000,0
2026-01-29 21:01:22,569528,7444.000,559.000,-1895.000,-6990.000,1071.000,-8535.000,0.000,0.000,0
2026-01-29 21:01:22,569568,7667.000,-299.000,-2237.000,-6011.000,2247.000,-6792.000,0.000,0.000,0
2026-01-29 21:01:22,569608,7698.000,-878.000,-2406.000,-3268.000,3391.000,-5038.000,0.000,0.000,0
2026-01-29 21:01:22,569648,6892.000,-897.000,-2506.000,1404.000,3917.000,-2754.000,0.000,0.000,0
2026-01-29 21:01:22,569688,6238.000,957.000,76.000,5085.000,2865.000,113.000,0.000,0.000,0
2026-01-29 21:01:22,569728,8418.000,1936.000,1162.000,3063.000,-1048.000,5237.000,0.000,0.000,0
2026-01-29 21:01:23,569768,8618.000,2708.000,1329.000,309.000,-3682.000,10448.000,0.000,0.000,0
2026-01-29 21:01:23,569808,10816.000,1247.000,-22.000,-106.000,-6225.000,14742.000,0.000,0.000,0
2026-01-29 21:01:23,569848,13097.000,1144.000,1277.000,2665.000,-8104.000,15318.000,0.000,0.000,0
2026-01-29 21:01:23,569888,12809.000,1456.000,-1572.000,2774.000,-6500.000,13087.000,0.000,0.000,0
2026-01-29 21:01:23,569928,6182.000,-1005.000,206.000,3482.000,-3472.000,8887.000,0.000,0.000,0
2026-01-29 21:01:23,569968,8203.000,1821.000,-1083.000,9030.000,-4672.000,6557.000,0.000,0.000,0
2026-01-29 21:01:23,570008,5674.000,1031.000,-749.000,11072.000,-1464.000,5083.000,0.000,0.000,0
2026-01-29 21:01:23,570048,7820.000,2590.000,-1271.000,13340.000,-1465.000,4476.000,0.000,0.000,0
2026-01-29 21:01:23,570088,9041.000,4618.000,-369.000,13117.000,-604.000,4824.000,0.000,0.000,0
2026-01-29 21:01:23,570128,10233.000,5558.000,-342.000,8263.000,-730.000,4693.000,0.000,0.000,0
2026-01-29 21:01:23,570168,9976.000,7144.000,-41.000,3081.000,-641.000,3631.000,0.000,0.000,0
2026-01-29 21:01:23,570208,8812.000,4743.000,25.000,-2343.000,-1265.000,1332.000,0.000,0.000,0
2026-01-29 21:01:23,570248,11016.000,4508.000,-156.000,-5118.000,-2637.000,-1665.000,0.000,0.000,0
2026-01-29 21:01:23,570288,13300.000,4598.000,-874.000,-6548.000,-1803.000,-3409.000,0.000,0.000,0
2026-01-29 21:01:23,570328,12694.000,3556.000,-1159.000,-9486.000,208.000,-5003.000,0.000,0.000,0
2026-01-29 21:01:23,570368,15501.000,1995.000,-2795.000,-12652.000,1729.000,-7250.000,0.000,0.000,0
2026-01-29 21:01:23,570408,15074.000,-527.000,-3604.000,-12715.000,5675.000,-9948.000,0.000,0.000,0
2026-01-29 21:01:23,570448,10741.000,-427.000,-1813.000,-9909.000,7811.000,-12549.000,0.000,0.000,0
2026-01-29 21:01:23,570488,7333.000,215.000,-438.000,-7724.000,6518.000,-13383.000,0.000,0.000,0
2026-01-29 21:01:23,570528,7381.000,795.000,-1082.000,-6222.000,3165.000,-12113.000,0.000,0.000,0
2026-01-29 21:01:23,570568,6996.000,1028.000,-1230.000,-4418.000,2220.000,-10445.000,0.000,0.000,0
2026-01-29 21:01:23,570608,6415.000,286.000,-1956.000,-4479.000,2399.000,-8934.000,0.000,0.000,0
2026-01-29 21:01:23,570648,7535.000,-135.000,-2540.000,-3583.000,3016.000,-6922.000,0.000,0.000,0
2026-01-29 21:01:23,570688,7412.000,-543.000,-2814.000,-1932.000,4622.000,-4248.000,0.000,0.000,0
2026-01-29 21:01:23,570728,6983.000,-796.000,-3228.000,2246.000,5220.000,-1805.000,0.000,0.000,0
2026-01-29 21:01:24,570768,6141.000,644.000,-1593.000,6025.000,4377.000,586.000,0.000,0.000,0
2026-01-29 21:01:24,570808,7529.000,2808.000,1403.000,5397.000,652.000,4709.000,0.000,0.000,0
2026-01-29 21:01:24,570848,8803.000,2602.000,1182.000,1304.000,-3313.000,9943.000,0.000,0.000,0
2026-01-29 21:01:24,570888,10541.000,1192.000,-980.000,233.000,-6154.000,14039.000,0.000,0.000,0
2026-01-29 21:01:24,570928,13540.000,1332.000,-270.000,4302.000,-6794.000,15022.000,0.000,0.000,0
2026-01-29 21:01:24,570968,14108.000,1818.000,-1217.000,5671.000,-7352.000,13838.000,0.000,0.000,0
2026-01-29 21:01:24,571008,8337.000,-3081.000,-1904.000,9696.000,-2977.000,9684.000,0.000,0.000,0
2026-01-29 21:01:24,571048,7865.000,5926.000,-1435.000,24710.000,-3254.000,2933.000,0.000,0.000,0
2026-01-29 21:01:24,571088,6033.000,4293.000,-1472.000,15262.000,929.000,3438.000,0.000,0.000,0
2026-01-29 21:01:24,571128,7869.000,4154.000,-2391.000,12357.000,2228.000,3707.000,0.000,0.000,0
2026-01-29 21:01:24,571168,8164.000,5362.000,-1264.000,8573.000,3669.000,5030.000,0.000,0.000,0
2026-01-29 21:01:24,571208,9680.000,4598.000,-3203.000,5994.000,2883.000,5394.000,0.000,0.000,0
2026-01-29 21:01:24,571248,8786.000,4985.000,-3033.000,7541.000,3726.000,4138.000,0.000,0.000,0
2026-01-29 21:01:24,571288,8203.000,4865.000,-2739.000,7308.000,325.000,1365.000,0.000,0.000,0
2026-01-29 21:01:24,571328,10468.000,5488.000,-3936.000,2479.000,-3536.000,-1966.000,0.000,0.000,0
2026-01-29 21:01:24,571368,11660.000,6174.000,-2731.000,-2780.000,-4051.000,-2639.000,0.000,0.000,0
2026-01-29 21:01:24,571408,11214.000,6527.000,-2480.000,-11942.000,-5409.000,-3158.000,0.000,0.000,0
2026-01-29 21:01:24,571448,15274.000,4499.000,-5102.000,-23727.000,-4559.000,-4304.000,0.000,0.000,0
2026-01-29 21:01:24,571488,15552.000,-470.000,-6196.000,-27443.000,563.000,-6161.000,0.000,0.000,0
2026-01-29 21:01:24,571528,11327.000,-1216.000,-3618.000,-24864.000,4868.000,-9544.000,0.000,0.000,0
2026-01-29 21:01:24,571568,7843.000,-1928.000,-2344.000,-16395.000,4725.000,-10865.000,0.000,0.000,0
2026-01-29 21:01:24,571608,6484.000,-843.000,-338.000,-6245.000,3392.000,-10462.000,0.000,0.000,0
2026-01-29 21:01:24,571648,7745.000,178.000,-1522.000,-3167.000,1964.000,-9109.000,0.000,0.000,0
2026-01-29 21:01:24,571688,6923.000,-581.000,-2266.000,-1839.000,4117.000,-8334.000,0.000,0.000,0
2026-01-29 21:01:24,571728,8431.000,-1953.000,-3169.000,-137.000,4758.000,-7298.000,0.000,0.000,0
2026-01-29 21:01:25,571768,8524.000,-322.000,-2578.000,3091.000,5395.000,-6086.000,0.000,0.000,0
2026-01-29 21:01:25,571808,8159.000,2318.000,-1583.000,-990.000,3701.000,100.000,0.000,0.000,0
2026-01-29 21:01:25,571848,4916.000,2246.000,-1232.000,-11275.000,1156.000,7502.000,0.000,0.000,0
2026-01-29 21:01:25,571888,5231.000,-1693.000,-5785.000,-19559.000,-6485.000,14009.000,0.000,0.000,0
2026-01-29 21:01:25,571928,8270.000,-3738.000,-3620.000,-16645.000,-12854.000,13957.000,0.000,0.000,0
2026-01-29 21:01:25,571968,14232.000,-5635.000,-1396.000,-11432.000,-17720.000,9219.000,0.000,0.000,0
2026-01-29 21:01:25,572008,14969.000,-66.000,2010.000,-518.000,-16152.000,3445.000,0.000,0.000,0
2026-01-29 21:01:25,572048,8117.000,-2540.000,-1295.000,10534.000,-8453.000,-221.000,0.000,0.000,0
2026-01-29 21:01:25,572088,6464.000,-1500.000,-813.000,11189.000,-8204.000,-731.000,0.000,0.000,0
2026-01-29 21:01:25,572128,5534.000,250.000,774.000,13382.000,-6326.000,-2930.000,0.000,0.000,0
2026-01-29 21:01:25,572168,7236.000,4534.000,1212.000,11820.000,-4890.000,-2599.000,0.000,0.000,0
2026-01-29 21:01:25,572208,7946.000,4906.000,1726.000,5360.000,-2731.000,1183.000,0.000,0.000,0
2026-01-29 21:01:25,572248,10018.000,4574.000,2613.000,-3541.000,-1122.000,4086.000,0.000,0.000,0
2026-01-29 21:01:25,572288,11304.000,2794.000,2817.000,-7958.000,552.000,6875.000,0.000,0.000,0
2026-01-29 21:01:25,572328,11025.000,926.000,2019.000,-10090.000,2940.000,6182.000,0.000,0.000,0
2026-01-29 21:01:25,572368,10367.000,-1260.000,593.000,-3241.000,3885.000,3171.000,0.000,0.000,0
2026-01-29 21:01:25,572408,11849.000,1917.000,752.000,2958.000,4224.000,-2038.000,0.000,0.000,0
2026-01-29 21:01:25,572448,13707.000,3238.000,480.000,4143.000,3303.000,-4044.000,0.000,0.000,0
2026-01-29 21:01:25,572488,13950.000,4164.000,-915.000,700.000,4020.000,-4903.000,0.000,0.000,0
2026-01-29 21:01:25,572528,15967.000,2092.000,-4008.000,-3292.000,5531.000,-5669.000,0.000,0.000,0
2026-01-29 21:01:25,572568,13593.000,689.000,-4672.000,-4418.000,8858.000,-8039.000,0.000,0.000,0
2026-01-29 21:01:25,572608,9027.000,1126.000,-2865.000,-6238.000,9397.000,-9729.000,0.000,0.000,0
2026-01-29 21:01:25,572648,6135.000,668.000,-2759.000,-9343.000,5277.000,-10196.000,0.000,0.000,0
2026-01-29 21:01:25,572688,5422.000,766.000,-3059.000,-9065.000,1961.000,-9148.000,0.000,0.000,0
2026-01-29 21:01:25,572728,6380.000,462.000,-3454.000,-8744.000,2079.000,-6986.000,0.000,0.000,0
2026-01-29 21:01:26,572768,8401.000,497.000,-3142.000,-7196.000,3761.000,-4925.000,0.000,0.000,0
2026-01-29 21:01:26,572808,7798.000,-873.000,-3494.000,-5525.000,6343.000,-3912.000,0.000,0.000,0
2026-01-29 21:01:26,572848,7702.000,-2177.000,-4039.000,-7.000,6657.000,-3922.000,0.000,0.000,0
2026-01-29 21:01:26,572888,7441.000,-2076.000,-5932.000,8518.000,5731.000,-5166.000,0.000,0.000,0
2026-01-29 21:01:26,572928,5443.000,560.000,-3391.000,13387.000,3583.000,-6252.000,0.000,0.000,0
2026-01-29 21:01:26,572968,8409.000,2338.000,3016.000,8056.000,-1868.000,-1580.000,0.000,0.000,0
2026-01-29 21:01:26,573008,7188.000,1252.000,2767.000,-2501.000,-6492.000,9927.000,0.000,0.000,0
2026-01-29 21:01:26,573048,11872.000,77.000,-1097.000,-4777.000,-9854.000,14463.000,0.000,0.000,0
2026-01-29 21:01:26,573088,14385.000,-905.000,2277.000,20.000,-9069.000,16135.000,0.000,0.000,0
2026-01-29 21:01:26,573128,14331.000,1293.000,1857.000,5369.000,-11207.000,14692.000,0.000,0.000,0
2026-01-29 21:01:26,573168,8783.000,277.000,-3326.000,9925.000,-11620.000,10361.000,0.000,0.000,0
2026-01-29 21:01:26,573208,7283.000,4041.000,-2944.000,14232.000,-6659.000,1196.000,0.000,0.000,0
2026-01-29 21:01:26,573248,6921.000,5050.000,-2011.000,18765.000,-1685.000,-3157.000,0.000,0.000,0
2026-01-29 21:01:26,573288,6554.000,5462.000,-2087.000,19847.000,711.000,-4384.000,0.000,0.000,0
2026-01-29 21:01:26,573328,6653.000,6404.000,-1037.000,17334.000,1029.000,-2849.000,0.000,0.000,0
2026-01-29 21:01:26,573368,8760.000,9282.000,-499.000,9840.000,740.000,736.000,0.000,0.000,0
2026-01-29 21:01:26,573408,9108.000,9323.000,-1423.000,-3273.000,1590.000,4200.000,0.000,0.000,0
2026-01-29 21:01:26,573448,8483.000,7196.000,-1393.000,-13189.000,852.000,4418.000,0.000,0.000,0
2026-01-29 21:01:26,573488,11517.000,4008.000,-3193.000,-15122.000,-1902.000,888.000,0.000,0.000,0
2026-01-29 21:01:26,573528,12130.000,3625.000,-2507.000,-10689.000,-325.000,-3055.000,0.000,0.000,0
2026-01-29 21:01:26,573568,13823.000,3528.000,-3186.000,-8674.000,413.000,-5664.000,0.000,0.000,0
2026-01-29 21:01:26,573608,16171.000,3382.000,-3760.000,-9237.000,2252.000,-7394.000,0.000,0.000,0
2026-01-29 21:01:26,573648,14649.000,2111.000,-4680.000,-12532.000,4231.000,-8113.000,0.000,0.000,0
2026-01-29 21:01:26,573688,10895.000,-104.000,-3643.000,-12360.000,5686.000,-8951.000,0.000,0.000,0
2026-01-29 21:01:26,573728,7935.000,415.000,-1925.000,-10998.000,4757.000,-10302.000,0.000,0.000,0
2026-01-29 21:01:27,573768,6419.000,272.000,-1882.000,-9996.000,3044.000,-10035.000,0.000,0.000,0
2026-01-29 21:01:27,573808,6049.000,433.000,-1868.000,-8429.000,2128.000,-8595.000,0.000,0.000,0
2026-01-29 21:01:27,573848,6591.000,12.000,-2629.000,-7246.000,2206.000,-6276.000,0.000,0.000,0
2026-01-29 21:01:27,573888,6876.000,-737.000,-2904.000,-5196.000,3578.000,-4285.000,0.000,0.000,0
2026-01-29 21:01:27,573928,6396.000,-1581.000,-2697.000,-1848.000,3831.000,-2078.000,0.000,0.000,0
2026-01-29 21:01:27,573969,5288.000,-1112.000,-2839.000,4163.000,1473.000,165.000,0.000,0.000,0
2026-01-29 21:01:27,574008,6047.000,-383.000,-2252.000,6203.000,-2508.000,2369.000,0.000,0.000,0
2026-01-29 21:01:27,574048,7953.000,-2445.000,-1471.000,6865.000,-5248.000,6353.000,0.000,0.000,0
2026-01-29 21:01:27,574088,11724.000,755.000,-2222.000,10689.000,-6027.000,11115.000,0.000,0.000,0
2026-01-29 21:01:27,574128,17031.000,5462.000,-2333.000,8006.000,-2000.000,16648.000,0.000,0.000,0
2026-01-29 21:01:27,574168,13874.000,3428.000,-486.000,-2229.000,-1488.000,19305.000,0.000,0.000,0
2026-01-29 21:01:27,574208,9432.000,669.000,-38.000,-6025.000,-4692.000,16052.000,0.000,0.000,0
2026-01-29 21:01:27,574248,7473.000,-840.000,-1303.000,942.000,-8187.000,10128.000,0.000,0.000,0
2026-01-29 21:01:27,574288,6808.000,242.000,-1183.000,7686.000,-6991.000,4776.000,0.000,0.000,0
2026-01-29 21:01:27,574328,8194.000,903.000,-1964.000,12033.000,-5976.000,2220.000,0.000,0.000,0
2026-01-29 21:01:27,574368,8757.000,2354.000,-1531.000,13679.000,-3749.000,446.000,0.000,0.000,0
2026-01-29 21:01:27,574408,10108.000,6256.000,508.000,12310.000,-3539.000,1394.000,0.000,0.000,0
2026-01-29 21:01:27,574448,10986.000,10588.000,2126.000,2698.000,-3226.000,5498.000,0.000,0.000,0
2026-01-29 21:01:27,574488,9746.000,7827.000,875.000,-11696.000,-2603.000,7521.000,0.000,0.000,0
2026-01-29 21:01:27,574528,11446.000,-1064.000,-1470.000,-15795.000,-1401.000,3179.000,0.000,0.000,0
2026-01-29 21:01:27,574568,12290.000,-2736.000,-1800.000,-4236.000,2723.000,-3321.000,0.000,0.000,0
2026-01-29 21:01:27,574608,12265.000,1008.000,-630.000,4237.000,5204.000,-9374.000,0.000,0.000,0
2026-01-29 21:01:27,574648,13479.000,2058.000,-2633.000,3904.000,5040.000,-12563.000,0.000,0.000,0
2026-01-29 21:01:27,574688,16389.000,2230.000,-3819.000,-1503.000,7782.000,-14342.000,0.000,0.000,0
2026-01-29 21:01:27,574728,13904.000,717.000,-1967.000,-6157.000,10123.000,-13768.000,0.000,0.000,0
2026-01-29 21:01:28,574768,9901.000,691.000,-1669.000,-8843.000,7222.000,-12256.000,0.000,0.000,0
2026-01-29 21:01:28,574808,7250.000,-405.000,-1469.000,-10085.000,5370.000,-11067.000,0.000,0.000,0
2026-01-29 21:01:28,574848,5623.000,-1211.000,-1469.000,-7310.000,3433.000,-9985.000,0.000,0.000,0
2026-01-29 21:01:28,574888,6666.000,1231.000,423.000,-5125.000,2484.000,-6411.000,0.000,0.000,0
2026-01-29 21:01:28,574928,6986.000,-1773.000,-2938.000,-6549.000,182.000,-3115.000,0.000,0.000,0
2026-01-29 21:01:28,574968,6840.000,-3560.000,-3835.000,-2260.000,2547.000,-1646.000,0.000,0.000,0
2026-01-29 21:01:28,575008,6851.000,-3482.000,-4125.000,4015.000,3321.000,-265.000,0.000,0.000,0
2026-01-29 21:01:28,575048,7162.000,-220.000,-3635.000,8052.000,3053.000,2028.000,0.000,0.000,0
2026-01-29 21:01:28,575088,8871.000,1489.000,-2115.000,6918.000,952.000,6392.000,0.000,0.000,0
2026-01-29 21:01:28,575128,10685.000,1591.000,-669.000,5433.000,-3029.000,11710.000,0.000,0.000,0
2026-01-29 21:01:28,575168,12490.000,1884.000,-378.000,4771.000,-7045.000,15977.000,0.000,0.000,0
2026-01-29 21:01:28,575208,15164.000,3274.000,1339.000,1056.000,-8869.000,17824.000,0.000,0.000,0
2026-01-29 21:01:28,575248,14470.000,2276.000,-603.000,-3495.000,-11182.000,17762.000,0.000,0.000,0
2026-01-29 21:01:28,575288,7741.000,-903.000,-1657.000,-1972.000,-9632.000,11771.000,0.000,0.000,0
2026-01-29 21:01:28,575328,6426.000,-2248.000,-1929.000,-740.000,-5815.000,5388.000,0.000,0.000,0
2026-01-29 21:01:28,575368,5940.000,-960.000,-793.000,5428.000,-2853.000,628.000,0.000,0.000,0
2026-01-29 21:01:28,575408,6603.000,1199.000,-484.000,8031.000,-1533.000,-1083.000,0.000,0.000,0
2026-01-29 21:01:28,575448,8683.000,3524.000,1275.000,11559.000,-1343.000,-535.000,0.000,0.000,0
2026-01-29 21:01:28,575488,8545.000,4444.000,960.000,11669.000,-3086.000,1548.000,0.000,0.000,0
2026-01-29 21:01:28,575528,10492.000,4337.000,719.000,4152.000,-3856.000,2463.000,0.000,0.000,0
2026-01-29 21:01:28,575568,11025.000,4334.000,1091.000,-11.000,-1804.000,2009.000,0.000,0.000,0
2026-01-29 21:01:28,575608,10615.000,3589.000,927.000,-4076.000,458.000,448.000,0.000,0.000,0
2026-01-29 21:01:28,575648,12022.000,1239.000,-260.000,-5084.000,1461.000,-2182.000,0.000,0.000,0
2026-01-29 21:01:28,575688,12002.000,1930.000,34.000,-3066.000,3753.000,-4881.000,0.000,0.000,0
2026-01-29 21:01:28,575728,12782.000,2732.000,-1170.000,-3992.000,4588.000,-6154.000,0.000,0.000,0
2026-01-29 21:01:29,575768,15112.000,1755.000,-3137.000,-7779.000,5954.000,-7952.000,0.000,0.000,0
2026-01-29 21:01:29,575808,15194.000,130.000,-3752.000,-10090.000,9717.000,-9454.000,0.000,0.000,0
2026-01-29 21:01:29,575848,8904.000,-804.000,-2699.000,-10292.000,11293.000,-11464.000,0.000,0.000,0
2026-01-29 21:01:29,575888,8263.000,-540.000,-1755.000,-9636.000,8584.000,-10541.000,0.000,0.000,0
2026-01-29 21:01:29,575928,6496.000,-530.000,-1274.000,-5512.000,6877.000,-10203.000,0.000,0.000,0
2026-01-29 21:01:29,575968,6344.000,221.000,-1048.000,-2890.000,4744.000,-9716.000,0.000,0.000,0
2026-01-29 21:01:29,576008,7393.000,-185.000,-1926.000,-2163.000,3242.000,-7354.000,0.000,0.000,0
2026-01-29 21:01:29,576048,7572.000,-357.000,-2593.000,-237.000,3464.000,-5399.000,0.000,0.000,0
2026-01-29 21:01:29,576088,7039.000,-665.000,-2820.000,2608.000,3081.000,-2473.000,0.000,0.000,0
2026-01-29 21:01:29,576128,6112.000,347.000,-631.000,4118.000,1613.000,-39.000,0.000,0.000,0
2026-01-29 21:01:29,576168,7478.000,1421.000,1915.000,2444.000,-3159.000,3915.000,0.000,0.000,0
2026-01-29 21:01:29,576208,9229.000,667.000,1648.000,719.000,-6448.000,9192.000,0.000,0.000,0
2026-01-29 21:01:29,576248,9820.000,-932.000,852.000,-2173.000,-7608.000,11235.000,0.000,0.000,0
2026-01-29 21:01:29,576288,12458.000,-2969.000,-352.000,-313.000,-8013.000,9779.000,0.000,0.000,0
2026-01-29 21:01:29,576328,11895.000,-1524.000,-1112.000,9393.000,-7306.000,8066.000,0.000,0.000,0
2026-01-29 21:01:29,576368,10384.000,4004.000,-865.000,9972.000,-5007.000,7348.000,0.000,0.000,0
2026-01-29 21:01:29,576408,8117.000,5025.000,146.000,4130.000,-1896.000,9563.000,0.000,0.000,0
2026-01-29 21:01:29,576448,4531.000,1854.000,2174.000,-4659.000,-2547.000,12750.000,0.000,0.000,0
2026-01-29 21:01:29,576488,7307.000,-435.000,-207.000,-3845.000,-6880.000,11032.000,0.000,0.000,0
2026-01-29 21:01:29,576528,9651.000,320.000,964.000,978.000,-7272.000,8457.000,0.000,0.000,0
2026-01-29 21:01:29,576568,11933.000,660.000,2410.000,3483.000,-6700.000,5381.000,0.000,0.000,0
2026-01-29 21:01:29,576608,11805.000,2082.000,2838.000,6604.000,-4171.000,2171.000,0.000,0.000,0
2026-01-29 21:01:29,576648,11673.000,2841.000,3526.000,4980.000,-1345.000,-791.000,0.000,0.000,0
2026-01-29 21:01:29,576688,11515.000,2368.000,3502.000,1720.000,278.000,-2650.000,0.000,0.000,0
2026-01-29 21:01:29,576728,12027.000,988.000,3134.000,-751.000,1264.000,-3528.000,0.000,0.000,0
2026-01-29 21:01:30,576768,11199.000,1473.000,2107.000,-2008.000,2331.000,-5980.000,0.000,0.000,0
2026-01-29 21:01:30,576808,15652.000,1877.000,-2356.000,-2556.000,4130.000,-8122.000,0.000,0.000,0
2026-01-29 21:01:30,576848,12216.000,84.000,-1967.000,-5049.000,10131.000,-9981.000,0.000,0.000,0
2026-01-29 21:01:30,576888,8616.000,398.000,-641.000,-4563.000,9778.000,-10695.000,0.000,0.000,0
2026-01-29 21:01:30,576928,7329.000,747.000,-886.000,-6966.000,7185.000,-10807.000,0.000,0.000,0
2026-01-29 21:01:30,576968,7043.000,-18.000,-1734.000,-7609.000,5517.000,-10124.000,0.000,0.000,0
2026-01-29 21:01:30,577008,7946.000,199.000,-1746.000,-6565.000,5027.000,-9925.000,0.000,0.000,0
2026-01-29 21:01:30,577048,9308.000,-7.000,-1827.000,-6614.000,5823.000,-8738.000,0.000,0.000,0
2026-01-29 21:01:30,577088,8938.000,-2431.000,-2725.000,-8005.000,7131.000,-7126.000,0.000,0.000,0
2026-01-29 21:01:30,577128,7492.000,-4642.000,-2682.000,-1803.000,5225.000,-4591.000,0.000,0.000,0
2026-01-29 21:01:30,577168,6896.000,-717.000,-2105.000,8050.000,-130.000,282.000,0.000,0.000,0
2026-01-29 21:01:30,577208,6572.000,447.000,-50.000,612.000,-4463.000,3538.000,0.000,0.000,0
2026-01-29 21:01:30,577248,9261.000,-1177.000,-369.000,-519.000,-8302.000,6435.000,0.000,0.000,0
2026-01-29 21:01:30,577288,10701.000,-247.000,-899.000,2509.000,-8267.000,7625.000,0.000,0.000,0
2026-01-29 21:01:30,577328,12071.000,543.000,-405.000,7469.000,-7060.000,8273.000,0.000,0.000,0
2026-01-29 21:01:30,577368,12768.000,2098.000,-320.000,11860.000,-7258.000,9033.000,0.000,0.000,0
2026-01-29 21:01:30,577408,10523.000,2675.000,-165.000,12616.000,-6276.000,8850.000,0.000,0.000,0
2026-01-29 21:01:30,577448,7593.000,2398.000,246.000,11927.000,-3800.000,7817.000,0.000,0.000,0
2026-01-29 21:01:30,577488,6422.000,2476.000,308.000,9956.000,-2502.000,6610.000,0.000,0.000,0
2026-01-29 21:01:30,577528,6773.000,1937.000,-317.000,9724.000,-2054.000,5727.000,0.000,0.000,0
2026-01-29 21:01:30,577568,8641.000,3991.000,-518.000,9119.000,-961.000,4734.000,0.000,0.000,0
2026-01-29 21:01:30,577608,10636.000,6905.000,2045.000,4280.000,362.000,4098.000,0.000,0.000,0
2026-01-29 21:01:30,577648,9326.000,8647.000,4268.000,-5574.000,-1918.000,5436.000,0.000,0.000,0
2026-01-29 21:01:30,577688,9413.000,5842.000,3021.000,-11683.000,-5391.000,4242.000,0.000,0.000,0
2026-01-29 21:01:30,577728,10358.000,2611.000,1382.000,-9845.000,-5083.000,1097.000,0.000,0.000,0
2026-01-29 21:01:31,577768,14255.000,1848.000,-49.000,-3474.000,-1059.000,-2665.000,0.000,0.000,0
2026-01-29 21:01:31,577808,13707.000,1197.000,-1250.000,-2147.000,5473.000,-5483.000,0.000,0.000,0
2026-01-29 21:01:31,577848,14872.000,1031.000,-2487.000,-4687.000,7817.000,-7791.000,0.000,0.000,0
2026-01-29 21:01:31,577888,12233.000,807.000,-1712.000,-10690.000,10193.000,-9043.000,0.000,0.000,0
2026-01-29 21:01:31,577928,8969.000,417.000,-2179.000,-12374.000,9158.000,-7114.000,0.000,0.000,0
2026-01-29 21:01:31,577968,6447.000,542.000,-1863.000,-10421.000,7304.000,-5489.000,0.000,0.000,0
2026-01-29 21:01:31,578008,6497.000,514.000,-1699.000,-10047.000,5673.000,-5406.000,0.000,0.000,0
2026-01-29 21:01:31,578048,7035.000,-77.000,-2193.000,-8474.000,5568.000,-4781.000,0.000,0.000,0
2026-01-29 21:01:31,578088,7169.000,137.000,-2203.000,-6500.000,6529.000,-4009.000,0.000,0.000,0
2026-01-29 21:01:31,578128,7917.000,-311.000,-2558.000,-4079.000,5777.000,-3043.000,0.000,0.000,0
2026-01-29 21:01:31,578168,8584.000,-552.000,-3604.000,-1096.000,5151.000,-2313.000,0.000,0.000,0
2026-01-29 21:01:31,578208,6840.000,-908.000,-3679.000,800.000,4038.000,-1500.000,0.000,0.000,0
2026-01-29 21:01:31,578248,5893.000,-500.000,-684.000,2009.000,724.000,-565.000,0.000,0.000,0
2026-01-29 21:01:31,578288,8768.000,-1094.000,180.000,1316.000,-5752.000,2625.000,0.000,0.000,0
2026-01-29 21:01:31,578328,8664.000,-999.000,1380.000,2669.000,-9761.000,4883.000,0.000,0.000,0
2026-01-29 21:01:31,578368,11450.000,19.000,-383.000,3562.000,-11488.000,6752.000,0.000,0.000,0
2026-01-29 21:01:31,578408,12820.000,-777.000,-39.000,2900.000,-10724.000,5994.000,0.000,0.000,0
2026-01-29 21:01:31,578448,11688.000,776.000,-208.000,3708.000,-9043.000,5803.000,0.000,0.000,0
2026-01-29 21:01:31,578488,7744.000,670.000,1352.000,1918.000,-6175.000,5147.000,0.000,0.000,0
2026-01-29 21:01:31,578528,6180.000,-253.000,421.000,2723.000,-6405.000,3685.000,0.000,0.000,0
2026-01-29 21:01:31,578568,6604.000,699.000,-5.000,8191.000,-6139.000,2706.000,0.000,0.000,0
2026-01-29 21:01:31,578608,8308.000,2126.000,693.000,9807.000,-4920.000,2620.000,0.000,0.000,0
2026-01-29 21:01:31,578648,9428.000,2814.000,1602.000,9408.000,-3590.000,4002.000,0.000,0.000,0
2026-01-29 21:01:31,578688,11832.000,3407.000,3823.000,9953.000,-2894.000,3077.000,0.000,0.000,0
2026-01-29 21:01:31,578728,10288.000,4637.000,4420.000,6387.000,90.000,1407.000,0.000,0.000,0
2026-01-29 21:01:32,578768,10290.000,2979.000,3936.000,-1106.000,2438.000,-2313.000,0.000,0.000,0
2026-01-29 21:01:32,578808,12172.000,2335.000,3100.000,-494.000,3807.000,-3537.000,0.000,0.000,0
2026-01-29 21:01:32,578848,11355.000,3261.000,3386.000,-374.000,3969.000,-4178.000,0.000,0.000,0
2026-01-29 21:01:32,578888,12855.000,2920.000,1992.000,-4160.000,4581.000,-5230.000,0.000,0.000,0
2026-01-29 21:01:32,578928,14190.000,2377.000,565.000,-6650.000,6667.000,-7297.000,0.000,0.000,0
2026-01-29 21:01:32,578968,12744.000,1873.000,-1203.000,-8720.000,7623.000,-8362.000,0.000,0.000,0
2026-01-29 21:01:32,579008,9430.000,1128.000,-1403.000,-7785.000,8157.000,-9012.000,0.000,0.000,0
2026-01-29 21:01:32,579048,6867.000,401.000,-262.000,-7082.000,7587.000,-9103.000,0.000,0.000,0
2026-01-29 21:01:32,579088,6731.000,1272.000,-41.000,-6192.000,5686.000,-8737.000,0.000,0.000,0
2026-01-29 21:01:32,579128,7483.000,1385.000,-692.000,-6973.000,4607.000,-7291.000,0.000,0.000,0
2026-01-29 21:01:32,579168,8107.000,-216.000,-1827.000,-7608.000,4882.000,-5995.000,0.000,0.000,0
2026-01-29 21:01:32,579208,8189.000,-1491.000,-1895.000,-4415.000,5219.000,-4370.000,0.000,0.000,0
2026-01-29 21:01:32,579248,7845.000,-1618.000,-839.000,-726.000,4428.000,-2101.000,0.000,0.000,0
2026-01-29 21:01:32,579288,6759.000,-1746.000,-554.000,1983.000,1329.000,1041.000,0.000,0.000,0
2026-01-29 21:01:32,579328,7481.000,-851.000,567.000,1762.000,-1405.000,3125.000,0.000,0.000,0
2026-01-29 21:01:32,579368,10192.000,-243.000,1104.000,1014.000,-4763.000,6044.000,0.000,0.000,0
2026-01-29 21:01:32,579408,9855.000,-212.000,-257.000,3064.000,-6956.000,7114.000,0.000,0.000,0
2026-01-29 21:01:32,579448,11810.000,1449.000,1683.000,5416.000,-7222.000,6187.000,0.000,0.000,0
2026-01-29 21:01:32,579488,11403.000,1193.000,1856.000,5320.000,-7407.000,6218.000,0.000,0.000,0
2026-01-29 21:01:32,579528,9091.000,1427.000,1334.000,7674.000,-7146.000,5568.000,0.000,0.000,0
2026-01-29 21:01:32,579568,6352.000,1990.000,1971.000,9017.000,-6356.000,5316.000,0.000,0.000,0
2026-01-29 21:01:32,579608,5700.000,1366.000,1541.000,8321.000,-6660.000,5224.000,0.000,0.000,0
2026-01-29 21:01:32,579648,7159.000,2041.000,1369.000,9623.000,-6498.000,5657.000,0.000,0.000,0
2026-01-29 21:01:32,579688,9721.000,2884.000,2183.000,7884.000,-4859.000,6697.000,0.000,0.000,0
2026-01-29 21:01:32,579728,11038.000,3828.000,4197.000,4656.000,-4377.000,6778.000,0.000,0.000,0
2026-01-29 21:01:33,579768,11053.000,5910.000,4806.000,3511.000,-2982.000,4523.000,0.000,0.000,0
2026-01-29 21:01:33,579808,9559.000,4913.000,4061.000,2056.000,760.000,360.000,0.000,0.000,0
2026-01-29 21:01:33,579848,10484.000,4826.000,4064.000,2215.000,1938.000,-2574.000,0.000,0.000,0
2026-01-29 21:01:33,579888,11778.000,4881.000,3188.000,-1184.000,2428.000,-3777.000,0.000,0.000,0
2026-01-29 21:01:33,579928,11928.000,3488.000,1934.000,-5708.000,3489.000,-5248.000,0.000,0.000,0
2026-01-29 21:01:33,579968,14229.000,2738.000,815.000,-6336.000,5598.000,-7402.000,0.000,0.000,0
2026-01-29 21:01:33,580008,14312.000,2321.000,-630.000,-6318.000,6522.000,-9404.000,0.000,0.000,0
2026-01-29 21:01:33,580048,10879.000,1497.000,-1073.000,-7295.000,6948.000,-10605.000,0.000,0.000,0
2026-01-29 21:01:33,580088,7723.000,1303.000,-636.000,-6137.000,6746.000,-10667.000,0.000,0.000,0
2026-01-29 21:01:33,580128,6533.000,1111.000,-367.000,-6505.000,6153.000,-10072.000,0.000,0.000,0
2026-01-29 21:01:33,580168,6402.000,1185.000,-101.000,-6097.000,5218.000,-8227.000,0.000,0.000,0
2026-01-29 21:01:33,580208,7334.000,859.000,-187.000,-4959.000,3620.000,-6357.000,0.000,0.000,0
2026-01-29 21:01:33,580248,9072.000,-673.000,-1790.000,-3674.000,3270.000,-5081.000,0.000,0.000,0
2026-01-29 21:01:33,580288,8775.000,-1142.000,-2089.000,-660.000,4021.000,-2815.000,0.000,0.000,0
2026-01-29 21:01:33,580328,7731.000,-1092.000,-1411.000,4477.000,3582.000,-1087.000,0.000,0.000,0
2026-01-29 21:01:33,580368,7385.000,308.000,324.000,5834.000,965.000,1024.000,0.000,0.000,0
2026-01-29 21:01:33,580408,9292.000,1429.000,1986.000,1867.000,-1883.000,4536.000,0.000,0.000,0
2026-01-29 21:01:33,580448,9167.000,672.000,2326.000,-2211.000,-3996.000,7974.000,0.000,0.000,0
2026-01-29 21:01:33,580488,9951.000,-209.000,1264.000,1232.000,-5870.000,9300.000,0.000,0.000,0
2026-01-29 21:01:33,580528,12062.000,1943.000,2241.000,5880.000,-6827.000,9723.000,0.000,0.000,0
2026-01-29 21:01:33,580568,10975.000,1936.000,2231.000,3786.000,-6521.000,9903.000,0.000,0.000,0
2026-01-29 21:01:33,580608,8471.000,1688.000,1195.000,3437.000,-5128.000,8510.000,0.000,0.000,0
2026-01-29 21:01:33,580648,5992.000,2000.000,1545.000,5584.000,-4213.000,7050.000,0.000,0.000,0
2026-01-29 21:01:33,580688,6005.000,2038.000,1535.000,6669.000,-3838.000,6436.000,0.000,0.000,0
2026-01-29 21:01:33,580728,7796.000,3049.000,1669.000,8463.000,-2601.000,6566.000,0.000,0.000,0
2026-01-29 21:01:34,580768,9535.000,4633.000,2535.000,8060.000,-1982.000,7039.000,0.000,0.000,0
2026-01-29 21:01:34,580808,10612.000,5062.000,4922.000,3947.000,-1303.000,7341.000,0.000,0.000,0
2026-01-29 21:01:34,580848,9548.000,5125.000,3696.000,-436.000,-1602.000,3591.000,0.000,0.000,0
2026-01-29 21:01:34,580888,8747.000,4230.000,4117.000,-1815.000,-704.000,705.000,0.000,0.000,0
2026-01-29 21:01:34,580928,10421.000,3758.000,3873.000,-1813.000,-64.000,-1800.000,0.000,0.000,0
2026-01-29 21:01:34,580968,11478.000,3809.000,3550.000,-2726.000,654.000,-3979.000,0.000,0.000,0
2026-01-29 21:01:34,581008,12547.000,3113.000,1976.000,-4586.000,2346.000,-6615.000,0.000,0.000,0
2026-01-29 21:01:34,581048,14207.000,2160.000,662.000,-5088.000,3847.000,-9042.000,0.000,0.000,0
2026-01-29 21:01:34,581088,13846.000,1701.000,-359.000,-5145.000,4537.000,-11548.000,0.000,0.000,0
2026-01-29 21:01:34,581128,10835.000,1633.000,-991.000,-7844.000,4843.000,-12122.000,0.000,0.000,0
2026-01-29 21:01:34,581168,8165.000,1140.000,-621.000,-8666.000,4785.000,-11702.000,0.000,0.000,0
2026-01-29 21:01:34,581208,7334.000,1183.000,-563.000,-9799.000,4166.000,-10237.000,0.000,0.000,0
2026-01-29 21:01:34,581248,7231.000,998.000,-949.000,-10424.000,3827.000,-8131.000,0.000,0.000,0
2026-01-29 21:01:34,581288,8104.000,1216.000,-1502.000,-9080.000,3243.000,-5895.000,0.000,0.000,0
2026-01-29 21:01:34,581328,8590.000,1354.000,-2094.000,-6008.000,3034.000,-4230.000,0.000,0.000,0
2026-01-29 21:01:34,581368,8286.000,2731.000,-1921.000,-597.000,2223.000,-3528.000,0.000,0.000,0
2026-01-29 21:01:34,581408,7369.000,2870.000,-2060.000,2903.000,-468.000,-4707.000,0.000,0.000,0
2026-01-29 21:01:34,581448,5811.000,4164.000,-546.000,5000.000,-2370.000,-5388.000,0.000,0.000,0
2026-01-29 21:01:34,581488,8008.000,4556.000,656.000,5140.000,-6113.000,-4189.000,0.000,0.000,0
2026-01-29 21:01:34,581528,6926.000,5644.000,3320.000,5402.000,-7286.000,-3324.000,0.000,0.000,0
2026-01-29 21:01:34,581568,8159.000,7367.000,4077.000,3682.000,-9659.000,-2837.000,0.000,0.000,0
2026-01-29 21:01:34,581608,9373.000,5760.000,4370.000,-171.000,-8296.000,-2926.000,0.000,0.000,0
2026-01-29 21:01:34,581648,8715.000,3606.000,3661.000,-2663.000,-4979.000,-3027.000,0.000,0.000,0
2026-01-29 21:01:34,581688,4319.000,345.000,2711.000,2884.000,696.000,-4213.000,0.000,0.000,0
2026-01-29 21:01:34,581728,2874.000,1083.000,2977.000,6310.000,2666.000,-4039.000,0.000,0.000,0
2026-01-29 21:01:35,581768,2255.000,2290.000,1133.000,7266.000,3462.000,-3091.000,0.000,0.000,0
2026-01-29 21:01:35,581808,2754.000,6539.000,52.000,6726.000,4157.000,-2150.000,0.000,0.000,0
2026-01-29 21:01:35,581848,1039.000,9783.000,302.000,1140.000,4364.000,-2027.000,0.000,0.000,0
2026-01-29 21:01:35,581888,753.000,14177.000,-1370.000,-58.000,411.000,-2982.000,0.000,0.000,0
2026-01-29 21:01:35,581928,-1655.000,14846.000,-786.000,-23.000,-2464.000,-5466.000,0.000,0.000,0
2026-01-29 21:01:35,581968,-775.000,15451.000,-34.000,-1580.000,-6837.000,-7215.000,0.000,0.000,0
2026-01-29 21:01:35,582008,-1064.000,12796.000,-1096.000,-5506.000,-9151.000,-6743.000,0.000,0.000,0
2026-01-29 21:01:35,582048,1881.000,13093.000,-358.000,-8656.000,-11675.000,-5917.000,0.000,0.000,0
2026-01-29 21:01:35,582088,3017.000,9592.000,-1077.000,-10979.000,-10990.000,-4886.000,0.000,0.000,0
2026-01-29 21:01:35,582128,2684.000,6144.000,-1894.000,-6686.000,-9527.000,-3542.000,0.000,0.000,0
2026-01-29 21:01:35,582168,4058.000,5638.000,-1316.000,1901.000,-6606.000,-2325.000,0.000,0.000,0
2026-01-29 21:01:35,582208,2193.000,4586.000,-710.000,7514.000,-3629.000,-3007.000,0.000,0.000,0
2026-01-29 21:01:35,582248,2311.000,4773.000,-766.000,7602.000,-4065.000,-3633.000,0.000,0.000,0
2026-01-29 21:01:35,582288,1014.000,3538.000,-476.000,5654.000,-3412.000,-2411.000,0.000,0.000,0
2026-01-29 21:01:35,582328,1589.000,4558.000,956.000,2540.000,-2710.000,-235.000,0.000,0.000,0
2026-01-29 21:01:35,582368,-425.000,2836.000,882.000,-3712.000,2360.000,1061.000,0.000,0.000,0
2026-01-29 21:01:35,582408,-359.000,10319.000,4660.000,-1437.000,2831.000,2081.000,0.000,0.000,0
2026-01-29 21:01:35,582448,262.000,11025.000,-192.000,460.000,-512.000,-75.000,0.000,0.000,0
2026-01-29 21:01:35,582488,-2156.000,9483.000,-1187.000,9993.000,-2555.000,-1106.000,0.000,0.000,0
2026-01-29 21:01:35,582528,2884.000,9085.000,1521.000,-1093.000,-3620.000,855.000,0.000,0.000,0
2026-01-29 21:01:35,582568,2423.000,16013.000,-3073.000,6265.000,386.000,2244.000,0.000,0.000,0
2026-01-29 21:01:35,582608,2013.000,17417.000,-4169.000,1693.000,1124.000,2030.000,0.000,0.000,0
2026-01-29 21:01:35,582648,2533.000,7556.000,-2839.000,-13090.000,3734.000,401.000,0.000,0.000,0
2026-01-29 21:01:35,582688,771.000,3633.000,-1309.000,-5936.000,5951.000,-211.000,0.000,0.000,0
2026-01-29 21:01:35,582728,-826.000,7137.000,1807.000,806.000,3526.000,-773.000,0.000,0.000,0
2026-01-29 21:01:36,582768,-733.000,4150.000,1687.000,-2276.000,2492.000,-741.000,0.000,0.000,0
2026-01-29 21:01:36,582808,-23.000,3680.000,1972.000,-6.000,858.000,-1559.000,0.000,0.000,0
2026-01-29 21:01:36,582848,-261.000,640.000,-1577.000,3847.000,-1858.000,-2953.000,0.000,0.000,0
2026-01-29 21:01:36,582888,792.000,6465.000,1839.000,8857.000,-954.000,-3928.000,0.000,0.000,0
2026-01-29 21:01:36,582928,198.000,6823.000,851.000,9673.000,-138.000,-3966.000,0.000,0.000,0
2026-01-29 21:01:36,582968,-1362.000,11318.000,-2467.000,16380.000,-48.000,-3961.000,0.000,0.000,0
2026-01-29 21:01:36,583008,-1944.000,12853.000,-1794.000,6586.000,859.000,-2151.000,0.000,0.000,0
2026-01-29 21:01:36,583048,-2501.000,9859.000,-2198.000,1936.000,1282.000,-665.000,0.000,0.000,0
2026-01-29 21:01:36,583088,68.000,8930.000,-3183.000,5924.000,4620.000,57.000,0.000,0.000,0
2026-01-29 21:01:36,583128,-3443.000,7567.000,3672.000,5209.000,13983.000,458.000,0.000,0.000,0
2026-01-29 21:01:36,583168,1580.000,3772.000,-8531.000,-9294.000,9657.000,4114.000,0.000,0.000,0
2026-01-29 21:01:36,583208,4899.000,5529.000,-12899.000,-1622.000,4741.000,7531.000,0.000,0.000,0
2026-01-29 21:01:36,583248,1431.000,5154.000,-1461.000,-4499.000,9360.000,7395.000,0.000,0.000,0
2026-01-29 21:01:36,583288,4496.000,6457.000,-496.000,-3985.000,6581.000,6154.000,0.000,0.000,0
2026-01-29 21:01:36,583328,3598.000,9342.000,-3420.000,567.000,1324.000,4707.000,0.000,0.000,0
2026-01-29 21:01:36,583368,1996.000,8325.000,-1013.000,-7902.000,-769.000,998.000,0.000,0.000,0
2026-01-29 21:01:36,583408,2913.000,5639.000,-1866.000,-12696.000,-3660.000,-237.000,0.000,0.000,0
2026-01-29 21:01:36,583448,3061.000,1895.000,145.000,-5459.000,-1945.000,1273.000,0.000,0.000,0
2026-01-29 21:01:36,583488,5848.000,5544.000,284.000,-231.000,-2483.000,-151.000,0.000,0.000,0
2026-01-29 21:01:36,583528,6594.000,2996.000,-575.000,-1887.000,-5.000,153.000,0.000,0.000,0
2026-01-29 21:01:36,583568,7649.000,4214.000,-736.000,9824.000,2690.000,4170.000,0.000,0.000,0
2026-01-29 21:01:36,583608,9647.000,3470.000,-4111.000,16110.000,4546.000,5465.000,0.000,0.000,0
2026-01-29 21:01:36,583648,10661.000,6088.000,-5234.000,15044.000,10976.000,5288.000,0.000,0.000,0
2026-01-29 21:01:36,583688,12708.000,3178.000,-6996.000,3371.000,13773.000,8187.000,0.000,0.000,0
2026-01-29 21:01:36,583728,13339.000,1385.000,-7763.000,2643.000,16306.000,10077.000,0.000,0.000,0
2026-01-29 21:01:37,583768,9344.000,1716.000,-6216.000,9109.000,13490.000,10394.000,0.000,0.000,0
2026-01-29 21:01:37,583808,6117.000,2420.000,-2901.000,12517.000,7713.000,8544.000,0.000,0.000,0
2026-01-29 21:01:37,583848,6132.000,4105.000,-1191.000,10481.000,4422.000,7932.000,0.000,0.000,0
2026-01-29 21:01:37,583888,5791.000,2823.000,-3171.000,5949.000,4129.000,8707.000,0.000,0.000,0
2026-01-29 21:01:37,583928,7578.000,1352.000,-4658.000,3868.000,5380.000,8178.000,0.000,0.000,0
2026-01-29 21:01:37,583968,7846.000,1273.000,-4455.000,6112.000,7151.000,7152.000,0.000,0.000,0
2026-01-29 21:01:37,584008,8730.000,3730.000,-2302.000,9898.000,5582.000,6808.000,0.000,0.000,0
2026-01-29 21:01:37,584048,7818.000,7292.000,-1453.000,9501.000,2184.000,6608.000,0.000,0.000,0
2026-01-29 21:01:37,584088,6115.000,6340.000,-1265.000,5145.000,-796.000,4274.000,0.000,0.000,0
2026-01-29 21:01:37,584128,10047.000,5701.000,-937.000,1705.000,-6384.000,-684.000,0.000,0.000,0
2026-01-29 21:01:37,584168,11045.000,8167.000,597.000,-1653.000,-8048.000,-1465.000,0.000,0.000,0
2026-01-29 21:01:37,584208,12278.000,7023.000,-845.000,-11123.000,-9145.000,-2204.000,0.000,0.000,0
2026-01-29 21:01:37,584248,16370.000,4398.000,-2798.000,-15864.000,-7143.000,-5788.000,0.000,0.000,0
2026-01-29 21:01:37,584288,16554.000,2594.000,-2231.000,-17471.000,-3823.000,-9505.000,0.000,0.000,0
2026-01-29 21:01:37,584328,12729.000,1754.000,-945.000,-18762.000,-1636.000,-12164.000,0.000,0.000,0
2026-01-29 21:01:37,584368,9719.000,1441.000,-1383.000,-20215.000,-816.000,-13078.000,0.000,0.000,0
2026-01-29 21:01:37,584408,7949.000,254.000,-1927.000,-19273.000,661.000,-12209.000,0.000,0.000,0
2026-01-29 21:01:37,584448,7606.000,-696.000,-1599.000,-14103.000,1570.000,-9595.000,0.000,0.000,0
2026-01-29 21:01:37,584488,7840.000,-1236.000,-1761.000,-5976.000,3031.000,-5578.000,0.000,0.000,0
2026-01-29 21:01:37,584528,8269.000,-1893.000,-3023.000,196.000,4812.000,-3222.000,0.000,0.000,0
2026-01-29 21:01:37,584568,8549.000,-559.000,-3520.000,4829.000,7303.000,-1300.000,0.000,0.000,0
2026-01-29 21:01:37,584608,7212.000,-95.000,-3102.000,7395.000,8048.000,357.000,0.000,0.000,0
2026-01-29 21:01:37,584648,6712.000,1294.000,-578.000,8317.000,5793.000,2784.000,0.000,0.000,0
2026-01-29 21:01:37,584688,8782.000,2726.000,506.000,6088.000,566.000,7714.000,0.000,0.000,0
2026-01-29 21:01:37,584728,10031.000,2472.000,-95.000,3346.000,-3331.000,13357.000,0.000,0.000,0
2026-01-29 21:01:38,584768,12067.000,2392.000,722.000,1758.000,-5506.000,16434.000,0.000,0.000,0
2026-01-29 21:01:38,584808,12212.000,2684.000,687.000,-3395.000,-6961.000,15352.000,0.000,0.000,0
2026-01-29 21:01:38,584848,9555.000,566.000,-585.000,-3859.000,-6159.000,12729.000,0.000,0.000,0
2026-01-29 21:01:38,584888,7258.000,247.000,-1309.000,3420.000,-4752.000,8587.000,0.000,0.000,0
2026-01-29 21:01:38,584928,5739.000,2437.000,777.000,9843.000,-3508.000,5462.000,0.000,0.000,0
2026-01-29 21:01:38,584968,7216.000,1503.000,-347.000,9714.000,-4324.000,5514.000,0.000,0.000,0
2026-01-29 21:01:38,585008,8415.000,3322.000,-699.000,12379.000,-2310.000,5091.000,0.000,0.000,0
2026-01-29 21:01:38,585048,10295.000,4341.000,10.000,11098.000,-581.000,5106.000,0.000,0.000,0
2026-01-29 21:01:38,585088,9995.000,6808.000,1890.000,8265.000,88.000,4819.000,0.000,0.000,0
2026-01-29 21:01:38,585128,8833.000,8145.000,2035.000,2592.000,-609.000,2184.000,0.000,0.000,0
2026-01-29 21:01:38,585168,9170.000,5003.000,530.000,-4867.000,-2176.000,-386.000,0.000,0.000,0
2026-01-29 21:01:38,585208,11033.000,3502.000,-503.000,-4877.000,-1445.000,-3232.000,0.000,0.000,0
2026-01-29 21:01:38,585248,11705.000,4401.000,345.000,-5502.000,685.000,-4434.000,0.000,0.000,0
2026-01-29 21:01:38,585288,14655.000,4474.000,-1274.000,-9846.000,979.000,-4752.000,0.000,0.000,0
2026-01-29 21:01:38,585328,17009.000,1770.000,-3492.000,-12974.000,3466.000,-6617.000,0.000,0.000,0
2026-01-29 21:01:38,585368,15146.000,-985.000,-3535.000,-10763.000,6458.000,-9924.000,0.000,0.000,0
2026-01-29 21:01:38,585408,10763.000,72.000,-1814.000,-7545.000,6730.000,-13215.000,0.000,0.000,0
2026-01-29 21:01:38,585448,6947.000,878.000,-970.000,-7536.000,3811.000,-13068.000,0.000,0.000,0
2026-01-29 21:01:38,585488,7134.000,1057.000,-841.000,-7912.000,2007.000,-10764.000,0.000,0.000,0
2026-01-29 21:01:38,585528,7315.000,421.000,-1537.000,-7709.000,1809.000,-8411.000,0.000,0.000,0
2026-01-29 21:01:38,585568,7490.000,-1316.000,-2540.000,-6355.000,2956.000,-6569.000,0.000,0.000,0
2026-01-29 21:01:38,585608,7891.000,-2747.000,-3261.000,-1440.000,4651.000,-5439.000,0.000,0.000,0
2026-01-29 21:01:38,585648,7502.000,-1288.000,-3215.000,5291.000,6164.000,-3570.000,0.000,0.000,0
2026-01-29 21:01:38,585688,6578.000,-35.000,-2919.000,8775.000,5921.000,-1519.000,0.000,0.000,0
2026-01-29 21:01:38,585728,7575.000,1358.000,-971.000,8711.000,3281.000,2217.000,0.000,0.000,0
2026-01-29 21:01:39,585768,8752.000,2712.000,726.000,5909.000,-156.000,7637.000,0.000,0.000,0
2026-01-29 21:01:39,585808,8599.000,4961.000,3761.000,-12.000,-4429.000,13326.000,0.000,0.000,0
2026-01-29 21:01:39,585848,11594.000,2894.000,1565.000,-9727.000,-10168.000,17348.000,0.000,0.000,0
2026-01-29 21:01:39,585888,12588.000,1164.000,166.000,-12527.000,-11246.000,15343.000,0.000,0.000,0
2026-01-29 21:01:39,585928,8421.000,-1389.000,-9.000,-7931.000,-9419.000,12393.000,0.000,0.000,0
2026-01-29 21:01:39,585968,6947.000,-2117.000,-798.000,3140.000,-7297.000,6933.000,0.000,0.000,0
2026-01-29 21:01:39,586008,6287.000,28.000,-137.000,12444.000,-5384.000,3536.000,0.000,0.000,0
2026-01-29 21:01:39,586048,7852.000,1885.000,-708.000,16390.000,-4886.000,3163.000,0.000,0.000,0
2026-01-29 21:01:39,586088,9637.000,3985.000,-540.000,17104.000,-2775.000,3674.000,0.000,0.000,0
2026-01-29 21:01:39,586128,10395.000,7189.000,1561.000,10020.000,-423.000,4909.000,0.000,0.000,0
2026-01-29 21:01:39,586168,10873.000,8762.000,4244.000,-594.000,465.000,7738.000,0.000,0.000,0
2026-01-29 21:01:39,586208,9813.000,3901.000,1860.000,-10058.000,-2623.000,7551.000,0.000,0.000,0
2026-01-29 21:01:39,586248,10746.000,-26.000,-725.000,-13075.000,-2503.000,3422.000,0.000,0.000,0
2026-01-29 21:01:39,586288,13037.000,77.000,-200.000,-6607.000,1749.000,-1278.000,0.000,0.000,0
2026-01-29 21:01:39,586328,12051.000,809.000,546.000,-2281.000,4129.000,-4932.000,0.000,0.000,0
2026-01-29 21:01:39,586368,13410.000,438.000,-731.000,-1230.000,4190.000,-8110.000,0.000,0.000,0
2026-01-29 21:01:39,586408,15173.000,1092.000,-2729.000,-1712.000,5074.000,-11530.000,0.000,0.000,0
2026-01-29 21:01:39,586448,11774.000,-212.000,-1849.000,-4118.000,7182.000,-12385.000,0.000,0.000,0
2026-01-29 21:01:39,586488,8273.000,547.000,-1605.000,-5266.000,5078.000,-12452.000,0.000,0.000,0
2026-01-29 21:01:39,586528,6557.000,399.000,-1928.000,-6303.000,3025.000,-11236.000,0.000,0.000,0
2026-01-29 21:01:39,586568,6784.000,242.000,-2375.000,-6940.000,2460.000,-9418.000,0.000,0.000,0
2026-01-29 21:01:39,586608,6332.000,-327.000,-2458.000,-7494.000,4204.000,-7410.000,0.000,0.000,0
2026-01-29 21:01:39,586648,6561.000,-1220.000,-2280.000,-6973.000,5206.000,-5350.000,0.000,0.000,0
2026-01-29 21:01:39,586688,7629.000,-2671.000,-3014.000,-3496.000,6225.000,-3507.000,0.000,0.000,0
2026-01-29 21:01:39,586728,7729.000,-1801.000,-3283.000,4030.000,6673.000,-1594.000,0.000,0.000,0
2026-01-29 21:01:40,586768,7492.000,107.000,-2979.000,9320.000,5731.000,541.000,0.000,0.000,0
2026-01-29 21:01:40,586808,8605.000,2232.000,174.000,8990.000,3589.000,4021.000,0.000,0.000,0
2026-01-29 21:01:40,586848,9746.000,2839.000,2084.000,4138.000,-997.000,9313.000,0.000,0.000,0
2026-01-29 21:01:40,586888,9693.000,2344.000,1334.000,-536.000,-5347.000,13275.000,0.000,0.000,0
2026-01-29 21:01:40,586928,10962.000,888.000,188.000,-2792.000,-8171.000,14951.000,0.000,0.000,0
2026-01-29 21:01:40,586968,11545.000,-203.000,402.000,-1418.000,-9320.000,13922.000,0.000,0.000,0
2026-01-29 21:01:40,587008,10538.000,-557.000,-977.000,2272.000,-8078.000,10912.000,0.000,0.000,0
2026-01-29 21:01:40,587048,6954.000,-896.000,-769.000,6496.000,-4584.000,7901.000,0.000,0.000,0
2026-01-29 21:01:40,587088,6625.000,848.000,-1039.000,11972.000,-4107.000,5524.000,0.000,0.000,0
2026-01-29 21:01:40,587128,7078.000,1268.000,-2318.000,15029.000,-3043.000,4188.000,0.000,0.000,0
2026-01-29 21:01:40,587168,10127.000,2870.000,-2242.000,16733.000,-2205.000,3775.000,0.000,0.000,0
2026-01-29 21:01:40,587208,11044.000,5713.000,977.000,15151.000,-514.000,3518.000,0.000,0.000,0
2026-01-29 21:01:40,587248,10327.000,6939.000,2625.000,8010.000,-1016.000,4702.000,0.000,0.000,0
2026-01-29 21:01:40,587288,9653.000,7799.000,2872.000,-578.000,-2391.000,4853.000,0.000,0.000,0
2026-01-29 21:01:40,587328,9630.000,3614.000,216.000,-7673.000,-3051.000,2753.000,0.000,0.000,0
2026-01-29 21:01:40,587368,11639.000,2215.000,-133.000,-6478.000,-414.000,-1065.000,0.000,0.000,0
2026-01-29 21:01:40,587408,12017.000,3078.000,-177.000,-5745.000,3674.000,-4624.000,0.000,0.000,0
2026-01-29 21:01:40,587448,13951.000,2800.000,-1546.000,-8043.000,4219.000,-6039.000,0.000,0.000,0
2026-01-29 21:01:40,587488,16270.000,926.000,-3586.000,-12053.000,6149.000,-7913.000,0.000,0.000,0
2026-01-29 21:01:40,587528,11204.000,-1132.000,-2154.000,-14195.000,10458.000,-11800.000,0.000,0.000,0
2026-01-29 21:01:40,587568,9572.000,-936.000,-2514.000,-13937.000,7884.000,-9911.000,0.000,0.000,0
2026-01-29 21:01:40,587608,7418.000,-1452.000,-1773.000,-12053.000,7328.000,-9326.000,0.000,0.000,0
2026-01-29 21:01:40,587648,7312.000,629.000,-1797.000,-11475.000,5083.000,-8574.000,0.000,0.000,0
2026-01-29 21:01:40,587688,7054.000,-1666.000,-2727.000,-11178.000,4943.000,-6871.000,0.000,0.000,0
2026-01-29 21:01:40,587728,7864.000,-630.000,-2538.000,-5715.000,4638.000,-5149.000,0.000,0.000,0
2026-01-29 21:01:41,587768,8748.000,-3421.000,-3533.000,-1644.000,4547.000,-3574.000,0.000,0.000,0
2026-01-29 21:01:41,587808,7842.000,-4209.000,-4331.000,7575.000,4307.000,-4134.000,0.000,0.000,0
2026-01-29 21:01:41,587848,7751.000,-234.000,-2595.000,13002.000,3814.000,-3740.000,0.000,0.000,0
2026-01-29 21:01:41,587888,7683.000,-53.000,1636.000,8951.000,851.000,-370.000,0.000,0.000,0
2026-01-29 21:01:41,587928,9938.000,980.000,769.000,4095.000,-3601.000,5699.000,0.000,0.000,0
2026-01-29 21:01:41,587968,8851.000,1104.000,846.000,3136.000,-6159.000,11586.000,0.000,0.000,0
2026-01-29 21:01:41,588008,11108.000,223.000,1021.000,3525.000,-8081.000,13469.000,0.000,0.000,0
2026-01-29 21:01:41,588048,12050.000,770.000,1632.000,1431.000,-9894.000,12179.000,0.000,0.000,0
2026-01-29 21:01:41,588088,10995.000,-997.000,-857.000,1513.000,-9001.000,9720.000,0.000,0.000,0
2026-01-29 21:01:41,588128,7136.000,-193.000,-773.000,6989.000,-4761.000,6903.000,0.000,0.000,0
2026-01-29 21:01:41,588168,5656.000,485.000,-175.000,10234.000,-4039.000,4681.000,0.000,0.000,0
2026-01-29 21:01:41,588208,6757.000,917.000,-1152.000,12710.000,-3259.000,3624.000,0.000,0.000,0
2026-01-29 21:01:41,588248,7999.000,2976.000,-707.000,14737.000,-1915.000,3450.000,0.000,0.000,0
2026-01-29 21:01:41,588288,10455.000,5397.000,-440.000,12675.000,-662.000,3475.000,0.000,0.000,0
2026-01-29 21:01:41,588328,10558.000,6400.000,2952.000,4935.000,-693.000,4327.000,0.000,0.000,0
2026-01-29 21:01:41,588368,9558.000,6085.000,2713.000,215.000,-1944.000,4188.000,0.000,0.000,0
2026-01-29 21:01:41,588408,10161.000,398.000,-603.000,-10530.000,-2036.000,1028.000,0.000,0.000,0
2026-01-29 21:01:41,588448,11591.000,-10.000,-642.000,-4139.000,957.000,-2313.000,0.000,0.000,0
2026-01-29 21:01:41,588488,10971.000,2350.000,509.000,-2537.000,4013.000,-5124.000,0.000,0.000,0
2026-01-29 21:01:41,588528,12686.000,4288.000,-661.000,-11628.000,5608.000,-5421.000,0.000,0.000,0
2026-01-29 21:01:41,588568,13858.000,-1362.000,-3017.000,-14123.000,5874.000,-4400.000,0.000,0.000,0
2026-01-29 21:01:41,588608,10469.000,668.000,-1654.000,-11962.000,8085.000,-5896.000,0.000,0.000,0
2026-01-29 21:01:41,588648,7748.000,649.000,-2288.000,-12333.000,7155.000,-5664.000,0.000,0.000,0
2026-01-29 21:01:41,588688,6053.000,774.000,-1701.000,-13711.000,6112.000,-5087.000,0.000,0.000,0
2026-01-29 21:01:41,588728,6669.000,1219.000,-2051.000,-13955.000,5510.000,-4606.000,0.000,0.000,0
2026-01-29 21:01:42,588768,7261.000,401.000,-2141.000,-12462.000,6797.000,-4139.000,0.000,0.000,0
2026-01-29 21:01:42,588808,7199.000,136.000,-3232.000,-12356.000,6292.000,-2082.000,0.000,0.000,0
2026-01-29 21:01:42,588848,9082.000,-13.000,-2916.000,-7825.000,5380.000,458.000,0.000,0.000,0
2026-01-29 21:01:42,588888,8441.000,-3222.000,-4106.000,646.000,3137.000,277.000,0.000,0.000,0
2026-01-29 21:01:42,588928,8135.000,-774.000,-3294.000,11074.000,190.000,-1324.000,0.000,0.000,0
2026-01-29 21:01:42,588968,8657.000,-221.000,-1027.000,10475.000,-1436.000,-1933.000,0.000,0.000,0
2026-01-29 21:01:42,589008,9903.000,-908.000,634.000,9165.000,-4276.000,-1166.000,0.000,0.000,0
2026-01-29 21:01:42,589048,8528.000,56.000,1915.000,9842.000,-6803.000,1512.000,0.000,0.000,0
2026-01-29 21:01:42,589088,11141.000,356.000,366.000,9612.000,-7558.000,3970.000,0.000,0.000,0
2026-01-29 21:01:42,589128,10712.000,-199.000,48.000,7741.000,-4961.000,4172.000,0.000,0.000,0
2026-01-29 21:01:42,589168,7974.000,361.000,1273.000,7788.000,-2123.000,3179.000,0.000,0.000,0
2026-01-29 21:01:42,589208,5502.000,683.000,1618.000,8453.000,-2340.000,1904.000,0.000,0.000,0
2026-01-29 21:01:42,589248,4340.000,405.000,417.000,10613.000,-1127.000,2225.000,0.000,0.000,0
2026-01-29 21:01:42,589288,5002.000,2211.000,-314.000,12837.000,-1480.000,2568.000,0.000,0.000,0
2026-01-29 21:01:42,589328,8420.000,3070.000,-823.000,9877.000,-360.000,3613.000,0.000,0.000,0
2026-01-29 21:01:42,589368,9974.000,4127.000,-314.000,6333.000,1070.000,5777.000,0.000,0.000,0
2026-01-29 21:01:42,589408,10474.000,4142.000,973.000,1749.000,502.000,6697.000,0.000,0.000,0
2026-01-29 21:01:42,589448,9668.000,4677.000,1112.000,-4050.000,-1967.000,5431.000,0.000,0.000,0
2026-01-29 21:01:42,589488,10760.000,2763.000,-1068.000,-7891.000,-3724.000,3058.000,0.000,0.000,0
2026-01-29 21:01:42,589528,13130.000,-442.000,-1916.000,-6485.000,-1641.000,-1025.000,0.000,0.000,0
2026-01-29 21:01:42,589568,11774.000,1416.000,-531.000,-1191.000,1014.000,-3685.000,0.000,0.000,0
2026-01-29 21:01:42,589608,12997.000,2115.000,-1406.000,-1839.000,1959.000,-5095.000,0.000,0.000,0
2026-01-29 21:01:42,589648,11399.000,2156.000,-1037.000,-8739.000,3485.000,-3977.000,0.000,0.000,0
2026-01-29 21:01:42,589688,8317.000,-1235.000,-1473.000,-10999.000,4091.000,-5440.000,0.000,0.000,0
2026-01-29 21:01:42,589728,6235.000,754.000,-909.000,-9395.000,4753.000,-5928.000,0.000,0.000,0
2026-01-29 21:01:43,589768,4716.000,486.000,-587.000,-11459.000,3071.000,-4092.000,0.000,0.000,0
2026-01-29 21:01:43,589808,5507.000,152.000,-2832.000,-16096.000,931.000,-1258.000,0.000,0.000,0
2026-01-29 21:01:43,589848,4358.000,26.000,-4375.000,-19960.000,634.000,788.000,0.000,0.000,0
2026-01-29 21:01:43,589888,6961.000,-2640.000,-4295.000,-16460.000,3807.000,2852.000,0.000,0.000,0
2026-01-29 21:01:43,589928,8620.000,262.000,-3458.000,-7462.000,3016.000,5778.000,0.000,0.000,0
2026-01-29 21:01:43,589968,9106.000,-1352.000,-3949.000,-1154.000,1103.000,5144.000,0.000,0.000,0
2026-01-29 21:01:43,590008,9606.000,-888.000,-3141.000,9100.000,-23.000,2256.000,0.000,0.000,0
2026-01-29 21:01:43,590048,11346.000,-1171.000,-1070.000,13846.000,-2756.000,-1360.000,0.000,0.000,0
2026-01-29 21:01:43,590088,10084.000,-186.000,-45.000,14587.000,-5867.000,-2556.000,0.000,0.000,0
2026-01-29 21:01:43,590128,9173.000,175.000,1519.000,11235.000,-8031.000,-1822.000,0.000,0.000,0
2026-01-29 21:01:43,590168,11097.000,-963.000,-1772.000,5489.000,-7641.000,356.000,0.000,0.000,0
2026-01-29 21:01:43,590208,9725.000,-2338.000,-1285.000,4618.000,-2227.000,1017.000,0.000,0.000,0
2026-01-29 21:01:43,590248,6005.000,-109.000,1892.000,6572.000,165.000,596.000,0.000,0.000,0
2026-01-29 21:01:43,590288,4136.000,1261.000,1272.000,7502.000,-1651.000,945.000,0.000,0.000,0
2026-01-29 21:01:43,590328,4100.000,2008.000,872.000,5960.000,-1472.000,1901.000,0.000,0.000,0
2026-01-29 21:01:43,590368,5750.000,1631.000,703.000,2641.000,-1175.000,2502.000,0.000,0.000,0
2026-01-29 21:01:43,590408,7310.000,1561.000,581.000,1489.000,-852.000,2869.000,0.000,0.000,0
2026-01-29 21:01:43,590448,10421.000,1592.000,412.000,1548.000,-1101.000,3324.000,0.000,0.000,0
2026-01-29 21:01:43,590488,11231.000,2741.000,2310.000,229.000,-1209.000,3677.000,0.000,0.000,0
2026-01-29 21:01:43,590528,11170.000,2219.000,1553.000,-3224.000,-2139.000,3858.000,0.000,0.000,0
2026-01-29 21:01:43,590568,12180.000,1160.000,-15.000,-4837.000,-2488.000,2715.000,0.000,0.000,0
2026-01-29 21:01:43,590608,12534.000,755.000,30.000,-3543.000,-315.000,1148.000,0.000,0.000,0
2026-01-29 21:01:43,590648,11535.000,2242.000,177.000,-2716.000,2271.000,-827.000,0.000,0.000,0
2026-01-29 21:01:43,590688,13049.000,1973.000,-1757.000,-5245.000,4136.000,-1480.000,0.000,0.000,0
2026-01-29 21:01:43,590728,11556.000,-498.000,-3264.000,-5690.000,8459.000,-2295.000,0.000,0.000,0
2026-01-29 21:01:44,590768,8810.000,-1889.000,-3116.000,-4793.000,11062.000,-5472.000,0.000,0.000,0
2026-01-29 21:01:44,590808,5526.000,1846.000,139.000,-2829.000,9979.000,-6725.000,0.000,0.000,0
2026-01-29 21:01:44,590848,4741.000,1211.000,-407.000,-8391.000,5064.000,-5346.000,0.000,0.000,0
2026-01-29 21:01:44,590888,6323.000,679.000,-2782.000,-15070.000,3355.000,-5109.000,0.000,0.000,0
2026-01-29 21:01:44,590928,6624.000,545.000,-3916.000,-15899.000,4931.000,-4079.000,0.000,0.000,0
2026-01-29 21:01:44,590968,7531.000,16.000,-4406.000,-14887.000,4330.000,-857.000,0.000,0.000,0
2026-01-29 21:01:44,591008,8381.000,-861.000,-3465.000,-9323.000,4470.000,1354.000,0.000,0.000,0
2026-01-29 21:01:44,591048,9180.000,-30.000,-3810.000,-2446.000,1537.000,1535.000,0.000,0.000,0
2026-01-29 21:01:44,591088,8495.000,-2422.000,-5164.000,-1041.000,2783.000,649.000,0.000,0.000,0
2026-01-29 21:01:44,591128,11082.000,-1388.000,-284.000,-1894.000,550.000,-2079.000,0.000,0.000,0
2026-01-29 21:01:44,591168,8885.000,-1767.000,1412.000,-473.000,-7355.000,-801.000,0.000,0.000,0
2026-01-29 21:01:44,591208,10017.000,-6900.000,-1994.000,8996.000,-14207.000,-452.000,0.000,0.000,0
2026-01-29 21:01:44,591248,11586.000,-5103.000,-3572.000,16034.000,-15848.000,-2468.000,0.000,0.000,0
2026-01-29 21:01:44,591288,8506.000,2621.000,-314.000,23470.000,-5115.000,-2052.000,0.000,0.000,0
2026-01-29 21:01:44,591328,5844.000,3532.000,1541.000,14462.000,-3168.000,361.000,0.000,0.000,0
2026-01-29 21:01:44,591368,5866.000,2968.000,345.000,6402.000,-3255.000,2759.000,0.000,0.000,0
2026-01-29 21:01:44,591408,5442.000,1593.000,374.000,4211.000,-422.000,4135.000,0.000,0.000,0
2026-01-29 21:01:44,591448,6946.000,1870.000,611.000,5595.000,-581.000,4256.000,0.000,0.000,0
2026-01-29 21:01:44,591488,10160.000,2950.000,600.000,4884.000,-1456.000,4620.000,0.000,0.000,0
2026-01-29 21:01:44,591528,10888.000,3512.000,2134.000,2799.000,-2215.000,4524.000,0.000,0.000,0
2026-01-29 21:01:44,591568,10907.000,2261.000,1661.000,430.000,-3391.000,3130.000,0.000,0.000,0
2026-01-29 21:01:44,591608,10948.000,2291.000,558.000,-2210.000,-3096.000,1171.000,0.000,0.000,0
2026-01-29 21:01:44,591648,14646.000,1385.000,-1498.000,-3615.000,-621.000,-729.000,0.000,0.000,0
2026-01-29 21:01:44,591688,9984.000,3166.000,1366.000,-4108.000,5042.000,-1862.000,0.000,0.000,0
2026-01-29 21:01:44,591728,13748.000,1725.000,-2085.000,-7729.000,3986.000,-1645.000,0.000,0.000,0
2026-01-29 21:01:45,591768,12807.000,1300.000,-3165.000,-10495.000,8801.000,-2357.000,0.000,0.000,0
2026-01-29 21:01:45,591808,10101.000,221.000,-2954.000,-11287.000,10965.000,-3899.000,0.000,0.000,0
2026-01-29 21:01:45,591848,8250.000,1080.000,-2795.000,-14975.000,11104.000,-5209.000,0.000,0.000,0
2026-01-29 21:01:45,591888,6407.000,-3516.000,-2210.000,-14720.000,9331.000,-5849.000,0.000,0.000,0
2026-01-29 21:01:45,591928,6351.000,2451.000,-630.000,-11886.000,9792.000,-6649.000,0.000,0.000,0
2026-01-29 21:01:45,591968,5808.000,-141.000,-4335.000,-16014.000,8115.000,-4314.000,0.000,0.000,0
2026-01-29 21:01:45,592008,5640.000,1944.000,-3066.000,-10905.000,9057.000,-1460.000,0.000,0.000,0
2026-01-29 21:01:45,592048,8052.000,-993.000,-3184.000,-8423.000,5871.000,-145.000,0.000,0.000,0
2026-01-29 21:01:45,592088,7506.000,689.000,-2311.000,193.000,2792.000,-258.000,0.000,0.000,0
2026-01-29 21:01:45,592128,7524.000,-340.000,-1315.000,5719.000,-829.000,-380.000,0.000,0.000,0
2026-01-29 21:01:45,592168,8265.000,-1077.000,2055.000,9851.000,-5749.000,-1258.000,0.000,0.000,0
2026-01-29 21:01:45,592208,10647.000,-2419.000,1858.000,11556.000,-11810.000,-1149.000,0.000,0.000,0
2026-01-29 21:01:45,592248,11975.000,-1248.000,-1998.000,10729.000,-13715.000,2801.000,0.000,0.000,0
2026-01-29 21:01:45,592288,13142.000,956.000,257.000,10912.000,-6996.000,4661.000,0.000,0.000,0
2026-01-29 21:01:45,592328,10593.000,-993.000,1433.000,6948.000,-4290.000,4434.000,0.000,0.000,0
2026-01-29 21:01:45,592368,4762.000,-1422.000,1458.000,6623.000,-2349.000,2800.000,0.000,0.000,0
2026-01-29 21:01:45,592408,4594.000,-835.000,1280.000,10086.000,-3601.000,1059.000,0.000,0.000,0
2026-01-29 21:01:45,592448,4445.000,593.000,-129.000,12270.000,-4289.000,929.000,0.000,0.000,0
2026-01-29 21:01:45,592488,6647.000,2179.000,-674.000,10808.000,-3376.000,914.000,0.000,0.000,0
2026-01-29 21:01:45,592528,8805.000,2147.000,-524.000,6580.000,-498.000,2238.000,0.000,0.000,0
2026-01-29 21:01:45,592568,10854.000,2319.000,2163.000,2585.000,1124.000,3705.000,0.000,0.000,0
2026-01-29 21:01:45,592608,11258.000,1691.000,2773.000,-909.000,193.000,5100.000,0.000,0.000,0
2026-01-29 21:01:45,592648,11157.000,882.000,1717.000,-2421.000,-1395.000,5905.000,0.000,0.000,0
2026-01-29 21:01:45,592688,10718.000,-100.000,787.000,-1866.000,-1160.000,4311.000,0.000,0.000,0
2026-01-29 21:01:45,592728,13276.000,570.000,-466.000,257.000,359.000,1908.000,0.000,0.000,0
2026-01-29 21:01:46,592768,11664.000,1832.000,2428.000,-477.000,3496.000,777.000,0.000,0.000,0
2026-01-29 21:01:46,592808,15388.000,5199.000,3.000,-5791.000,3873.000,235.000,0.000,0.000,0
2026-01-29 21:01:46,592848,13728.000,2062.000,-2569.000,-12141.000,6880.000,2440.000,0.000,0.000,0
2026-01-29 21:01:46,592888,9198.000,-43.000,-2755.000,-11966.000,11374.000,853.000,0.000,0.000,0
2026-01-29 21:01:46,592928,6667.000,-1056.000,-2734.000,-8584.000,12961.000,-2777.000,0.000,0.000,0
2026-01-29 21:01:46,592968,4833.000,-412.000,-2433.000,-3203.000,13085.000,-6478.000,0.000,0.000,0
2026-01-29 21:01:46,593008,4364.000,-436.000,-1908.000,644.000,11940.000,-9245.000,0.000,0.000,0
2026-01-29 21:01:46,593048,5006.000,416.000,-1100.000,4524.000,9391.000,-10432.000,0.000,0.000,0
2026-01-29 21:01:46,593088,9775.000,2298.000,-801.000,4016.000,6107.000,-9873.000,0.000,0.000,0
2026-01-29 21:01:46,593128,10300.000,528.000,-2716.000,-490.000,4587.000,-6995.000,0.000,0.000,0
2026-01-29 21:01:46,593168,8744.000,-1265.000,-4355.000,-734.000,2616.000,-5805.000,0.000,0.000,0
2026-01-29 21:01:46,593208,5816.000,-483.000,-2333.000,-1818.000,-3991.000,-3437.000,0.000,0.000,0
2026-01-29 21:01:46,593248,5764.000,-954.000,-1444.000,-2826.000,-9623.000,-1682.000,0.000,0.000,0
2026-01-29 21:01:46,593288,7615.000,-1257.000,3375.000,-3004.000,-13276.000,-459.000,0.000,0.000,0
2026-01-29 21:01:46,593328,16634.000,-1451.000,7983.000,-889.000,-15644.000,-1841.000,0.000,0.000,0
2026-01-29 21:01:46,593368,24871.000,336.000,7563.000,511.000,-9166.000,-3263.000,0.000,0.000,0
2026-01-29 21:01:46,593408,18892.000,1474.000,5091.000,5048.000,4709.000,-1728.000,0.000,0.000,0
2026-01-29 21:01:46,593448,11186.000,3539.000,3823.000,6546.000,11618.000,-1504.000,0.000,0.000,0
2026-01-29 21:01:46,593488,5506.000,4671.000,2062.000,6574.000,11476.000,-1963.000,0.000,0.000,0
2026-01-29 21:01:46,593528,2527.000,6315.000,5557.000,4085.000,9475.000,-2439.000,0.000,0.000,0
2026-01-29 21:01:46,593568,-36.000,8633.000,1474.000,-5140.000,5653.000,1431.000,0.000,0.000,0
2026-01-29 21:01:46,593608,-5635.000,3857.000,2652.000,-10669.000,6385.000,4357.000,0.000,0.000,0
2026-01-29 21:01:46,593648,-8490.000,5173.000,889.000,-7844.000,4045.000,-1107.000,0.000,0.000,0
2026-01-29 21:01:46,593688,-8352.000,9457.000,3894.000,-6720.000,1815.000,-8016.000,0.000,0.000,0
2026-01-29 21:01:46,593728,783.000,12040.000,6289.000,-7457.000,28.000,-13448.000,0.000,0.000,0
2026-01-29 21:01:47,593768,7617.000,21186.000,6604.000,-5092.000,-1834.000,-16128.000,0.000,0.000,0
2026-01-29 21:01:47,593808,16241.000,16921.000,5451.000,-10766.000,-6383.000,-15364.000,0.000,0.000,0
2026-01-29 21:01:47,593848,15635.000,6319.000,129.000,-10688.000,-8267.000,-14865.000,0.000,0.000,0
2026-01-29 21:01:47,593888,12678.000,510.000,-3371.000,-3495.000,-9105.000,-12335.000,0.000,0.000,0
2026-01-29 21:01:47,593928,8520.000,-2494.000,-2435.000,-423.000,-7403.000,-7955.000,0.000,0.000,0
2026-01-29 21:01:47,593968,5513.000,-6181.000,-2808.000,5484.000,-5967.000,-3808.000,0.000,0.000,0
2026-01-29 21:01:47,594008,4429.000,-2271.000,-2012.000,12012.000,-3877.000,-560.000,0.000,0.000,0
2026-01-29 21:01:47,594048,4351.000,-441.000,-87.000,9081.000,-627.000,3374.000,0.000,0.000,0
2026-01-29 21:01:47,594088,10670.000,10543.000,1384.000,12092.000,-525.000,4548.000,0.000,0.000,0
2026-01-29 21:01:47,594128,12639.000,13750.000,1204.000,11544.000,1926.000,3339.000,0.000,0.000,0
2026-01-29 21:01:47,594168,12372.000,10424.000,2399.000,8585.000,5962.000,5865.000,0.000,0.000,0
2026-01-29 21:01:47,594208,8532.000,6285.000,1507.000,5704.000,6562.000,6819.000,0.000,0.000,0
2026-01-29 21:01:47,594248,2241.000,3288.000,1648.000,3088.000,8510.000,7188.000,0.000,0.000,0
2026-01-29 21:01:47,594288,-76.000,3419.000,2819.000,3153.000,5204.000,8546.000,0.000,0.000,0
2026-01-29 21:01:47,594328,-3243.000,7685.000,7982.000,8161.000,1895.000,9283.000,0.000,0.000,0
2026-01-29 21:01:47,594368,-1087.000,15895.000,6820.000,976.000,-2464.000,1929.000,0.000,0.000,0
2026-01-29 21:01:47,594408,56.000,9815.000,4816.000,-8041.000,-722.000,-1511.000,0.000,0.000,0
