datetime_local,uptime_ms,acc_x,acc_y,acc_z,gyro_x,gyro_y,gyro_z,speed_mps,turn_rate_deg_s,gps_valid
2026-01-31 17:15:11,5636534,2507.000,-2984.000,7900.000,-6127.000,867.000,-296.000,0.000,0.000,0
2026-01-31 17:15:11,5636574,2028.000,-345.000,9128.000,103.000,1226.000,-747.000,0.000,0.000,0
2026-01-31 17:15:11,5636614,1592.000,-166.000,9872.000,115.000,1217.000,-343.000,0.000,0.000,0
2026-01-31 17:15:11,5636654,937.000,-87.000,9526.000,855.000,179.000,-1399.000,0.000,0.000,0
2026-01-31 17:15:11,5636694,873.000,140.000,8453.000,199.000,-534.000,-1190.000,0.000,0.000,0
2026-01-31 17:15:12,5636734,1226.000,1243.000,8093.000,801.000,-537.000,-741.000,0.000,0.000,0
2026-01-31 17:15:12,5636774,1652.000,323.000,7867.000,587.000,-562.000,-306.000,0.000,0.000,0
2026-01-31 17:15:12,5636814,1656.000,341.000,7653.000,1235.000,-653.000,-543.000,0.000,0.000,0
2026-01-31 17:15:12,5636854,1567.000,-115.000,6858.000,387.000,-871.000,-849.000,0.000,0.000,0
2026-01-31 17:15:12,5636894,1169.000,284.000,6624.000,667.000,-811.000,-787.000,0.000,0.000,0
2026-01-31 17:15:12,5636934,1017.000,-76.000,7035.000,115.000,-832.000,-673.000,0.000,0.000,0
2026-01-31 17:15:12,5636974,899.000,-71.000,7691.000,-127.000,-1023.000,-489.000,0.000,0.000,0
2026-01-31 17:15:12,5637014,1927.000,-157.000,8401.000,-72.000,-1423.000,-133.000,0.000,0.000,0
2026-01-31 17:15:12,5637054,2476.000,287.000,8882.000,-125.000,-1105.000,204.000,0.000,0.000,0
2026-01-31 17:15:12,5637094,2674.000,-43.000,9565.000,-480.000,-1223.000,330.000,0.000,0.000,0
2026-01-31 17:15:12,5637134,3346.000,563.000,9547.000,851.000,-1136.000,1057.000,0.000,0.000,0
2026-01-31 17:15:12,5637174,4958.000,1397.000,9644.000,1254.000,-987.000,641.000,0.000,0.000,0
2026-01-31 17:15:12,5637214,3652.000,595.000,8402.000,-707.000,-544.000,136.000,0.000,0.000,0
2026-01-31 17:15:12,5637254,3596.000,1370.000,7192.000,644.000,-13.000,587.000,0.000,0.000,0
2026-01-31 17:15:12,5637294,3081.000,1575.000,7323.000,528.000,840.000,676.000,0.000,0.000,0
2026-01-31 17:15:12,5637334,2666.000,-2.000,7518.000,120.000,745.000,540.000,0.000,0.000,0
2026-01-31 17:15:12,5637374,2529.000,-235.000,6737.000,834.000,552.000,230.000,0.000,0.000,0
2026-01-31 17:15:12,5637414,2196.000,80.000,6359.000,569.000,477.000,86.000,0.000,0.000,0
2026-01-31 17:15:12,5637457,2253.000,-532.000,6930.000,274.000,762.000,186.000,0.000,0.000,0
2026-01-31 17:15:12,5637494,2668.000,-466.000,7076.000,-409.000,742.000,-46.000,0.000,0.000,0
2026-01-31 17:15:12,5637536,2496.000,-925.000,8045.000,-1016.000,279.000,-414.000,0.000,0.000,0
2026-01-31 17:15:12,5637575,2595.000,-723.000,8537.000,-816.000,102.000,-611.000,0.000,0.000,0
2026-01-31 17:15:12,5637615,2969.000,-131.000,8899.000,-1586.000,-203.000,-940.000,0.000,0.000,0
2026-01-31 17:15:12,5637654,2952.000,-53.000,8834.000,-1547.000,-95.000,-1289.000,0.000,0.000,0
2026-01-31 17:15:12,5637694,2879.000,777.000,9787.000,325.000,167.000,-529.000,0.000,0.000,0
2026-01-31 17:15:13,5637734,2881.000,1731.000,10007.000,-271.000,-99.000,-1317.000,0.000,0.000,0
2026-01-31 17:15:13,5637774,1595.000,54.000,8974.000,-2468.000,-709.000,-1521.000,0.000,0.000,0
2026-01-31 17:15:13,5637814,2324.000,1701.000,8091.000,468.000,-369.000,-478.000,0.000,0.000,0
2026-01-31 17:15:13,5637854,2198.000,614.000,7924.000,-595.000,-109.000,-154.000,0.000,0.000,0
2026-01-31 17:15:13,5637894,2403.000,-57.000,7408.000,499.000,133.000,3.000,0.000,0.000,0
2026-01-31 17:15:13,5637934,2032.000,-31.000,6504.000,825.000,257.000,156.000,0.000,0.000,0
2026-01-31 17:15:13,5637974,1245.000,163.000,6368.000,770.000,228.000,341.000,0.000,0.000,0
2026-01-31 17:15:13,5638014,1407.000,-657.000,6346.000,-87.000,249.000,433.000,0.000,0.000,0
2026-01-31 17:15:13,5638054,1704.000,-866.000,5818.000,1310.000,138.000,1246.000,0.000,0.000,0
2026-01-31 17:15:13,5638094,1944.000,-369.000,6719.000,2769.000,-882.000,496.000,0.000,0.000,0
2026-01-31 17:15:13,5638134,2582.000,-872.000,6413.000,4015.000,-1053.000,1187.000,0.000,0.000,0
2026-01-31 17:15:13,5638174,4447.000,-1167.000,5378.000,8751.000,-890.000,3123.000,0.000,0.000,0
2026-01-31 17:15:13,5638214,5683.000,1386.000,4584.000,19027.000,-12.000,4927.000,0.000,0.000,0
2026-01-31 17:15:13,5638257,7178.000,10629.000,3303.000,23457.000,3364.000,4724.000,0.000,0.000,0
2026-01-31 17:15:13,5638296,4499.000,11248.000,2818.000,19299.000,5283.000,3966.000,0.000,0.000,0
2026-01-31 17:15:13,5638334,3472.000,10251.000,1874.000,17289.000,5903.000,3199.000,0.000,0.000,0
2026-01-31 17:15:13,5638374,1838.000,9984.000,371.000,16356.000,6634.000,1024.000,0.000,0.000,0
2026-01-31 17:15:13,5638414,497.000,9312.000,-721.000,15163.000,6171.000,-670.000,0.000,0.000,0
2026-01-31 17:15:13,5638454,205.000,8884.000,-764.000,14726.000,5012.000,-2223.000,0.000,0.000,0
2026-01-31 17:15:13,5638494,-797.000,7963.000,-189.000,13194.000,3789.000,-3207.000,0.000,0.000,0
2026-01-31 17:15:13,5638534,-423.000,8071.000,685.000,11200.000,1914.000,-3515.000,0.000,0.000,0
2026-01-31 17:15:13,5638574,-430.000,7924.000,1028.000,4866.000,1146.000,-3194.000,0.000,0.000,0
2026-01-31 17:15:13,5638614,46.000,7589.000,466.000,2202.000,-461.000,-1914.000,0.000,0.000,0
2026-01-31 17:15:13,5638654,706.000,8643.000,-334.000,944.000,-1330.000,-1002.000,0.000,0.000,0
2026-01-31 17:15:13,5638694,874.000,8396.000,-1576.000,-989.000,-1176.000,-466.000,0.000,0.000,0
2026-01-31 17:15:14,5638734,1520.000,9225.000,-2833.000,-1367.000,-1080.000,-231.000,0.000,0.000,0
2026-01-31 17:15:14,5638774,1432.000,9141.000,-3143.000,-1330.000,-1040.000,-255.000,0.000,0.000,0
2026-01-31 17:15:14,5638814,1055.000,10321.000,-2946.000,141.000,-1294.000,144.000,0.000,0.000,0
2026-01-31 17:15:14,5638854,989.000,10972.000,-2578.000,-350.000,-1445.000,853.000,0.000,0.000,0
2026-01-31 17:15:14,5638894,655.000,9725.000,-2439.000,-2819.000,-1434.000,984.000,0.000,0.000,0
2026-01-31 17:15:14,5638934,827.000,8701.000,-3283.000,-3914.000,-1640.000,1687.000,0.000,0.000,0
2026-01-31 17:15:14,5638974,988.000,7224.000,-3352.000,-3399.000,-2266.000,2222.000,0.000,0.000,0
2026-01-31 17:15:14,5639014,1137.000,5784.000,-2401.000,-1394.000,-3144.000,1807.000,0.000,0.000,0
2026-01-31 17:15:14,5639054,1365.000,4872.000,-1448.000,-982.000,-3180.000,1209.000,0.000,0.000,0
2026-01-31 17:15:14,5639094,1471.000,4741.000,-1850.000,-1198.000,-2492.000,678.000,0.000,0.000,0
2026-01-31 17:15:14,5639134,1619.000,5482.000,-1745.000,-654.000,-1544.000,164.000,0.000,0.000,0
2026-01-31 17:15:14,5639174,1446.000,5954.000,-2172.000,-697.000,-372.000,-250.000,0.000,0.000,0
2026-01-31 17:15:14,5639214,1340.000,7663.000,-2476.000,877.000,359.000,-302.000,0.000,0.000,0
2026-01-31 17:15:14,5639254,1870.000,9082.000,-3024.000,1285.000,1103.000,-167.000,0.000,0.000,0
2026-01-31 17:15:14,5639294,1922.000,9206.000,-2669.000,2067.000,2102.000,-340.000,0.000,0.000,0
2026-01-31 17:15:14,5639334,1698.000,10341.000,-2183.000,2396.000,3010.000,-527.000,0.000,0.000,0
2026-01-31 17:15:14,5639374,1289.000,9768.000,-1705.000,3062.000,2567.000,3.000,0.000,0.000,0
2026-01-31 17:15:14,5639414,1548.000,9927.000,-743.000,1999.000,1085.000,-707.000,0.000,0.000,0
2026-01-31 17:15:14,5639454,2540.000,8869.000,-1467.000,-937.000,-13.000,-1061.000,0.000,0.000,0
2026-01-31 17:15:14,5639494,2224.000,7222.000,-2211.000,-2475.000,627.000,-1638.000,0.000,0.000,0
2026-01-31 17:15:14,5639534,1207.000,4636.000,-1674.000,-1694.000,729.000,-1710.000,0.000,0.000,0
2026-01-31 17:15:14,5639574,473.000,3703.000,-959.000,138.000,300.000,-1687.000,0.000,0.000,0
2026-01-31 17:15:14,5639614,302.000,3909.000,-928.000,629.000,384.000,-1307.000,0.000,0.000,0
2026-01-31 17:15:14,5639654,754.000,4999.000,-1169.000,467.000,986.000,-1205.000,0.000,0.000,0
2026-01-31 17:15:14,5639694,126.000,6454.000,-1292.000,59.000,1384.000,-542.000,0.000,0.000,0
2026-01-31 17:15:15,5639734,149.000,9395.000,-1436.000,2185.000,374.000,104.000,0.000,0.000,0
2026-01-31 17:15:15,5639774,486.000,10458.000,-1815.000,588.000,-262.000,515.000,0.000,0.000,0
2026-01-31 17:15:15,5639814,417.000,10945.000,-1696.000,987.000,-852.000,89.000,0.000,0.000,0
2026-01-31 17:15:15,5639854,98.000,11814.000,-1679.000,-387.000,-1037.000,-5.000,0.000,0.000,0
2026-01-31 17:15:15,5639894,222.000,11363.000,-3540.000,-1796.000,-1919.000,761.000,0.000,0.000,0
2026-01-31 17:15:15,5639934,997.000,9752.000,-3718.000,-2043.000,-4023.000,1130.000,0.000,0.000,0
2026-01-31 17:15:15,5639974,1255.000,9516.000,-3992.000,-2842.000,-3597.000,1594.000,0.000,0.000,0
2026-01-31 17:15:15,5640014,1822.000,8017.000,-4122.000,-2634.000,-2208.000,1758.000,0.000,0.000,0
2026-01-31 17:15:15,5640054,1156.000,5906.000,-2220.000,-1170.000,-1918.000,1215.000,0.000,0.000,0
2026-01-31 17:15:15,5640094,1201.000,4223.000,-193.000,-1068.000,-1948.000,633.000,0.000,0.000,0
2026-01-31 17:15:15,5640134,1022.000,4334.000,-442.000,-1362.000,-1291.000,786.000,0.000,0.000,0
2026-01-31 17:15:15,5640174,730.000,5260.000,-1198.000,-852.000,-369.000,974.000,0.000,0.000,0
2026-01-31 17:15:15,5640214,762.000,6907.000,-1703.000,-1083.000,79.000,1187.000,0.000,0.000,0
2026-01-31 17:15:15,5640254,263.000,7852.000,-2442.000,-1362.000,295.000,1840.000,0.000,0.000,0
2026-01-31 17:15:15,5640294,697.000,9453.000,-1782.000,686.000,252.000,1871.000,0.000,0.000,0
2026-01-31 17:15:15,5640334,844.000,10398.000,-2103.000,90.000,1226.000,1381.000,0.000,0.000,0
2026-01-31 17:15:15,5640374,2462.000,9306.000,-3395.000,385.000,1741.000,61.000,0.000,0.000,0
2026-01-31 17:15:15,5640414,3758.000,8464.000,-3555.000,1082.000,5469.000,-1282.000,0.000,0.000,0
2026-01-31 17:15:15,5640454,1757.000,9561.000,1086.000,3837.000,5590.000,-2299.000,0.000,0.000,0
2026-01-31 17:15:15,5640494,2979.000,8934.000,726.000,1907.000,-96.000,-302.000,0.000,0.000,0
2026-01-31 17:15:15,5640540,2054.000,8101.000,-1808.000,754.000,186.000,578.000,0.000,0.000,0
2026-01-31 17:15:15,5640574,1239.000,6887.000,-1635.000,-343.000,76.000,535.000,0.000,0.000,0
2026-01-31 17:15:15,5640614,503.000,4650.000,-1029.000,-1386.000,-107.000,-162.000,0.000,0.000,0
2026-01-31 17:15:15,5640654,405.000,4200.000,-1357.000,-376.000,-90.000,-363.000,0.000,0.000,0
2026-01-31 17:15:15,5640694,286.000,5682.000,-1222.000,297.000,-115.000,-756.000,0.000,0.000,0
2026-01-31 17:15:16,5640734,183.000,6237.000,-923.000,-502.000,-344.000,-872.000,0.000,0.000,0
2026-01-31 17:15:16,5640774,560.000,6963.000,-686.000,110.000,-747.000,-749.000,0.000,0.000,0
2026-01-31 17:15:16,5640814,509.000,8837.000,-925.000,123.000,-1112.000,-789.000,0.000,0.000,0
2026-01-31 17:15:16,5640854,967.000,9962.000,-1309.000,398.000,-1967.000,-588.000,0.000,0.000,0
2026-01-31 17:15:16,5640894,1081.000,10760.000,-1928.000,-683.000,-1911.000,-957.000,0.000,0.000,0
2026-01-31 17:15:16,5640934,1424.000,11019.000,-3253.000,-1070.000,-1786.000,-234.000,0.000,0.000,0
2026-01-31 17:15:16,5640974,2485.000,10933.000,-2739.000,-753.000,-2291.000,214.000,0.000,0.000,0
2026-01-31 17:15:16,5641014,2003.000,8712.000,-2519.000,-2524.000,-1366.000,591.000,0.000,0.000,0
2026-01-31 17:15:16,5641054,2538.000,8794.000,-2955.000,-1439.000,-839.000,850.000,0.000,0.000,0
2026-01-31 17:15:16,5641094,1833.000,8058.000,-2147.000,-1102.000,-502.000,1348.000,0.000,0.000,0
2026-01-31 17:15:16,5641134,1611.000,6154.000,-963.000,-1225.000,-824.000,1450.000,0.000,0.000,0
2026-01-31 17:15:16,5641174,1085.000,4731.000,-138.000,-731.000,-842.000,1347.000,0.000,0.000,0
2026-01-31 17:15:16,5641214,745.000,4367.000,-773.000,-982.000,-380.000,1498.000,0.000,0.000,0
2026-01-31 17:15:16,5641254,543.000,5385.000,-1641.000,-444.000,525.000,1162.000,0.000,0.000,0
2026-01-31 17:15:16,5641294,560.000,6432.000,-2032.000,-368.000,1257.000,997.000,0.000,0.000,0
2026-01-31 17:15:16,5641334,266.000,6506.000,-1875.000,-134.000,1786.000,816.000,0.000,0.000,0
2026-01-31 17:15:16,5641374,266.000,7778.000,-1863.000,729.000,2016.000,582.000,0.000,0.000,0
2026-01-31 17:15:16,5641414,630.000,9447.000,-1837.000,913.000,2263.000,197.000,0.000,0.000,0
2026-01-31 17:15:16,5641454,356.000,9787.000,-1354.000,884.000,2382.000,-212.000,0.000,0.000,0
2026-01-31 17:15:16,5641494,2830.000,11968.000,-2202.000,367.000,2958.000,-149.000,0.000,0.000,0
2026-01-31 17:15:16,5641534,3676.000,10450.000,-1034.000,3101.000,2200.000,129.000,0.000,0.000,0
2026-01-31 17:15:16,5641574,3440.000,10993.000,1303.000,1263.000,-761.000,-570.000,0.000,0.000,0
2026-01-31 17:15:16,5641614,3373.000,8521.000,-1187.000,660.000,-1290.000,844.000,0.000,0.000,0
2026-01-31 17:15:16,5641654,1334.000,5767.000,182.000,6.000,-1599.000,567.000,0.000,0.000,0
2026-01-31 17:15:16,5641694,-31.000,3767.000,-35.000,-1095.000,-1268.000,604.000,0.000,0.000,0
2026-01-31 17:15:17,5641734,63.000,4740.000,-932.000,587.000,-1470.000,356.000,0.000,0.000,0
2026-01-31 17:15:17,5641774,-441.000,5255.000,-944.000,-748.000,-1296.000,20.000,0.000,0.000,0
2026-01-31 17:15:17,5641814,-666.000,4912.000,-1058.000,-1218.000,-1262.000,-61.000,0.000,0.000,0
2026-01-31 17:15:17,5641854,-250.000,7060.000,-977.000,973.000,-2146.000,-543.000,0.000,0.000,0
2026-01-31 17:15:17,5641894,25.000,9045.000,-941.000,-593.000,-2690.000,-865.000,0.000,0.000,0
2026-01-31 17:15:17,5641934,-69.000,8706.000,-1112.000,-582.000,-3748.000,-921.000,0.000,0.000,0
2026-01-31 17:15:17,5641974,-612.000,11835.000,-2028.000,124.000,-5344.000,-859.000,0.000,0.000,0
2026-01-31 17:15:17,5642014,-296.000,12842.000,-3256.000,-2429.000,-7196.000,1675.000,0.000,0.000,0
2026-01-31 17:15:17,5642054,-816.000,10737.000,-3721.000,-3824.000,-8288.000,2675.000,0.000,0.000,0
2026-01-31 17:15:17,5642094,319.000,9429.000,-4295.000,-2057.000,-9224.000,3853.000,0.000,0.000,0
2026-01-31 17:15:17,5642134,145.000,5719.000,-3624.000,1706.000,-8269.000,4437.000,0.000,0.000,0
2026-01-31 17:15:17,5642174,-42.000,5904.000,-5037.000,5748.000,-7330.000,4822.000,0.000,0.000,0
2026-01-31 17:15:17,5642214,-110.000,7797.000,-4575.000,2728.000,-5891.000,4419.000,0.000,0.000,0
2026-01-31 17:15:17,5642257,796.000,3749.000,-4187.000,-5248.000,-3415.000,1405.000,0.000,0.000,0
2026-01-31 17:15:17,5642296,3216.000,5126.000,-4115.000,-3073.000,-2847.000,590.000,0.000,0.000,0
2026-01-31 17:15:17,5642334,4503.000,6248.000,-4105.000,-2822.000,-2474.000,155.000,0.000,0.000,0
2026-01-31 17:15:17,5642374,5590.000,6007.000,-3388.000,-2065.000,-902.000,-949.000,0.000,0.000,0
2026-01-31 17:15:17,5642414,5665.000,8370.000,-2320.000,589.000,-814.000,-1163.000,0.000,0.000,0
2026-01-31 17:15:17,5642454,6501.000,7800.000,-2942.000,-1105.000,438.000,-888.000,0.000,0.000,0
2026-01-31 17:15:17,5642494,5435.000,9700.000,-2428.000,871.000,211.000,153.000,0.000,0.000,0
2026-01-31 17:15:17,5642537,4826.000,7215.000,-3015.000,-1414.000,839.000,-525.000,0.000,0.000,0
2026-01-31 17:15:17,5642574,4395.000,7037.000,-2709.000,-419.000,727.000,-852.000,0.000,0.000,0
2026-01-31 17:15:17,5642614,2353.000,7308.000,-1347.000,-251.000,592.000,-928.000,0.000,0.000,0
2026-01-31 17:15:17,5642654,716.000,6248.000,-958.000,-233.000,551.000,-1099.000,0.000,0.000,0
2026-01-31 17:15:17,5642694,154.000,6098.000,-447.000,-1058.000,352.000,-887.000,0.000,0.000,0
2026-01-31 17:15:18,5642734,562.000,5000.000,-762.000,-3107.000,83.000,-943.000,0.000,0.002,1
2026-01-31 17:15:18,5642774,1263.000,5750.000,-730.000,-2500.000,-165.000,-736.000,0.000,0.002,1
2026-01-31 17:15:18,5642814,1486.000,6060.000,-409.000,-2641.000,-945.000,-623.000,0.000,0.002,1
2026-01-31 17:15:18,5642854,636.000,7290.000,-223.000,-1141.000,-1194.000,859.000,0.000,0.002,1
2026-01-31 17:15:18,5642894,1274.000,9266.000,-1046.000,-407.000,-917.000,1843.000,0.000,0.002,1
2026-01-31 17:15:18,5642934,2043.000,8679.000,-1120.000,-2913.000,-1702.000,2140.000,0.000,0.002,1
2026-01-31 17:15:18,5642974,3731.000,8944.000,-561.000,-198.000,-1985.000,1403.000,0.000,0.002,1
2026-01-31 17:15:18,5643014,3087.000,10838.000,-662.000,-662.000,-1448.000,2174.000,0.000,0.002,1
2026-01-31 17:15:18,5643054,2669.000,9964.000,-2506.000,-3054.000,-594.000,3547.000,0.000,0.002,1
2026-01-31 17:15:18,5643094,2407.000,7596.000,-2694.000,-4252.000,112.000,4496.000,0.000,0.002,1
2026-01-31 17:15:18,5643134,2331.000,4392.000,-1987.000,-1001.000,-1634.000,4004.000,0.000,0.002,1
2026-01-31 17:15:18,5643174,3208.000,7217.000,751.000,-419.000,-1886.000,4125.000,0.000,0.002,1
2026-01-31 17:15:18,5643214,3477.000,3696.000,628.000,-1970.000,-1923.000,2058.000,0.000,0.002,1
2026-01-31 17:15:18,5643254,2896.000,5325.000,1236.000,-907.000,-1684.000,1375.000,0.000,0.002,1
2026-01-31 17:15:18,5643294,3760.000,5477.000,215.000,-2423.000,-376.000,1285.000,0.000,0.002,1
2026-01-31 17:15:18,5643334,5157.000,6076.000,612.000,-2453.000,-301.000,1027.000,0.000,0.002,1
2026-01-31 17:15:18,5643374,6015.000,5178.000,1626.000,-2218.000,-101.000,1431.000,0.000,0.002,1
2026-01-31 17:15:18,5643414,5777.000,5986.000,1686.000,-309.000,542.000,2069.000,0.000,0.002,1
2026-01-31 17:15:18,5643454,7000.000,7817.000,1226.000,-297.000,1071.000,1962.000,0.000,0.002,1
2026-01-31 17:15:18,5643494,8851.000,6923.000,809.000,-742.000,1914.000,2335.000,0.000,0.002,1
2026-01-31 17:15:18,5643534,8151.000,6589.000,783.000,1555.000,2062.000,3037.000,0.000,0.002,1
2026-01-31 17:15:18,5643574,8394.000,4666.000,101.000,912.000,1949.000,2190.000,0.000,0.002,1
2026-01-31 17:15:18,5643614,6816.000,3593.000,1010.000,2559.000,1514.000,1268.000,0.000,0.002,1
2026-01-31 17:15:18,5643654,3776.000,4947.000,1688.000,2942.000,1754.000,1822.000,0.000,0.002,1
2026-01-31 17:15:18,5643694,2313.000,4468.000,1019.000,2067.000,2360.000,2331.000,0.000,0.002,1
2026-01-31 17:15:19,5643734,2518.000,4365.000,1243.000,2819.000,2214.000,1820.000,0.000,106.970,1
2026-01-31 17:15:19,5643774,3046.000,5120.000,2300.000,1336.000,1878.000,1978.000,0.000,106.970,1
2026-01-31 17:15:19,5643814,3877.000,4576.000,1087.000,-937.000,1540.000,1486.000,0.000,106.970,1
2026-01-31 17:15:19,5643854,5502.000,5793.000,1979.000,-1716.000,345.000,1694.000,0.000,106.970,1
2026-01-31 17:15:19,5643894,6584.000,7306.000,1891.000,-337.000,619.000,904.000,0.000,106.970,1
2026-01-31 17:15:19,5643934,7540.000,4762.000,2387.000,-2008.000,-662.000,454.000,0.000,106.970,1
2026-01-31 17:15:19,5643974,10674.000,6872.000,1930.000,-74.000,-1026.000,-919.000,0.000,106.970,1
2026-01-31 17:15:19,5644014,9192.000,6682.000,2465.000,29.000,-369.000,796.000,0.000,106.970,1
2026-01-31 17:15:19,5644054,9391.000,7346.000,2037.000,184.000,373.000,-129.000,0.000,106.970,1
2026-01-31 17:15:19,5644094,9820.000,4494.000,717.000,-1080.000,1296.000,101.000,0.000,106.970,1
2026-01-31 17:15:19,5644134,7707.000,3809.000,1855.000,1722.000,1393.000,469.000,0.000,106.970,1
2026-01-31 17:15:19,5644174,5357.000,3678.000,2560.000,1653.000,1336.000,-407.000,0.000,106.970,1
2026-01-31 17:15:19,5644217,4129.000,1953.000,2129.000,2453.000,1933.000,-1747.000,0.000,106.970,1
2026-01-31 17:15:19,5644255,4035.000,2277.000,1937.000,3198.000,2332.000,-1854.000,0.000,106.970,1
2026-01-31 17:15:19,5644298,5577.000,4691.000,1227.000,2976.000,3891.000,-2550.000,0.000,106.970,1
2026-01-31 17:15:19,5644334,4217.000,3913.000,1107.000,1509.000,4180.000,-2196.000,0.000,106.970,1
2026-01-31 17:15:19,5644374,6974.000,4348.000,562.000,5566.000,3463.000,-3442.000,0.000,106.970,1
2026-01-31 17:15:19,5644414,5441.000,7283.000,1252.000,10517.000,4391.000,-3216.000,0.000,106.970,1
2026-01-31 17:15:19,5644454,5474.000,10576.000,2342.000,8391.000,3804.000,-2100.000,0.000,106.970,1
2026-01-31 17:15:19,5644494,8316.000,7807.000,-402.000,1768.000,4984.000,-2023.000,0.000,106.970,1
2026-01-31 17:15:19,5644537,6230.000,5832.000,1488.000,3756.000,1632.000,-1275.000,0.000,106.970,1
2026-01-31 17:15:19,5644574,7059.000,6475.000,1781.000,5005.000,1332.000,-2752.000,0.000,106.970,1
2026-01-31 17:15:19,5644614,7614.000,6149.000,1366.000,4732.000,1155.000,-4429.000,0.000,106.970,1
2026-01-31 17:15:19,5644654,3970.000,5614.000,885.000,3536.000,1462.000,-4034.000,0.000,106.970,1
2026-01-31 17:15:19,5644694,2019.000,6110.000,168.000,4578.000,1524.000,-4522.000,0.000,106.970,1
2026-01-31 17:15:20,5644734,576.000,5463.000,-816.000,3046.000,1722.000,-5065.000,0.000,106.970,1
2026-01-31 17:15:20,5644774,427.000,5505.000,-1018.000,2677.000,797.000,-5667.000,0.000,0.000,0
2026-01-31 17:15:20,5644814,368.000,5268.000,-1379.000,3234.000,-3.000,-6172.000,0.000,45.611,1
2026-01-31 17:15:20,5644854,-744.000,8161.000,-1132.000,2916.000,-423.000,-5181.000,0.000,45.611,1
2026-01-31 17:15:20,5644894,191.000,8392.000,-2311.000,-413.000,-1002.000,-5396.000,0.000,45.611,1
2026-01-31 17:15:20,5644934,-350.000,8157.000,-2180.000,338.000,-1685.000,-5284.000,0.000,45.611,1
2026-01-31 17:15:20,5644974,-1557.000,8337.000,-3294.000,963.000,-1515.000,-4358.000,0.000,45.611,1
2026-01-31 17:15:20,5645014,-1139.000,9728.000,-4206.000,2812.000,-2309.000,-3128.000,0.000,45.611,1
2026-01-31 17:15:20,5645054,-1954.000,10262.000,-2427.000,3314.000,-1598.000,-1885.000,0.000,45.611,1
2026-01-31 17:15:20,5645094,-2181.000,9153.000,-2680.000,-110.000,-996.000,-270.000,0.000,45.611,1
2026-01-31 17:15:20,5645134,-1080.000,9650.000,-1837.000,1217.000,-1862.000,1386.000,0.000,45.611,1
2026-01-31 17:15:20,5645174,-608.000,9052.000,-758.000,-1923.000,-1769.000,2994.000,0.000,45.611,1
2026-01-31 17:15:20,5645214,-1031.000,5126.000,-29.000,-3062.000,-1550.000,3165.000,0.000,45.611,1
2026-01-31 17:15:20,5645254,162.000,7846.000,1690.000,663.000,-2099.000,2085.000,0.000,45.611,1
2026-01-31 17:15:20,5645294,-765.000,6084.000,973.000,-4394.000,561.000,910.000,0.000,45.611,1
2026-01-31 17:15:20,5645334,-1012.000,6199.000,-306.000,-4136.000,1021.000,128.000,0.000,45.611,1
2026-01-31 17:15:20,5645374,-566.000,7357.000,-66.000,-3281.000,871.000,144.000,0.000,45.611,1
2026-01-31 17:15:20,5645414,-529.000,7537.000,-134.000,-3789.000,1558.000,43.000,0.000,45.611,1
2026-01-31 17:15:20,5645454,113.000,8271.000,-855.000,-1011.000,2474.000,916.000,0.000,45.611,1
2026-01-31 17:15:20,5645494,-516.000,9857.000,-1076.000,-368.000,3029.000,1032.000,0.000,45.611,1
2026-01-31 17:15:20,5645534,355.000,9809.000,-1671.000,282.000,3702.000,1127.000,0.000,45.611,1
2026-01-31 17:15:20,5645574,929.000,10477.000,-1467.000,3640.000,3973.000,587.000,0.000,45.611,1
2026-01-31 17:15:20,5645614,1792.000,9942.000,-1148.000,2295.000,3126.000,13.000,0.000,45.611,1
2026-01-31 17:15:20,5645654,2806.000,9073.000,-2340.000,-168.000,1941.000,53.000,0.000,45.611,1
2026-01-31 17:15:20,5645694,561.000,6972.000,-1413.000,1345.000,1211.000,-34.000,0.000,45.611,1
2026-01-31 17:15:21,5645734,-538.000,6600.000,-580.000,126.000,843.000,-584.000,0.000,8.859,1
2026-01-31 17:15:21,5645774,-2180.000,4453.000,-924.000,-2669.000,511.000,-557.000,0.000,8.859,1
2026-01-31 17:15:21,5645814,-1503.000,5746.000,468.000,-3614.000,-1055.000,-1168.000,0.000,8.859,1
2026-01-31 17:15:21,5645854,-3369.000,6547.000,931.000,-2229.000,-2247.000,-1541.000,0.000,8.859,1
2026-01-31 17:15:21,5645894,-2332.000,8276.000,1885.000,-3072.000,-3344.000,-1622.000,0.000,8.859,1
2026-01-31 17:15:21,5645934,-435.000,6095.000,1933.000,-5047.000,-3235.000,-1342.000,0.000,8.859,1
2026-01-31 17:15:21,5645974,-706.000,7634.000,1421.000,-715.000,-1846.000,-1888.000,0.000,8.859,1
2026-01-31 17:15:21,5646014,-639.000,10290.000,1749.000,477.000,-1283.000,-2219.000,0.000,8.859,1
2026-01-31 17:15:21,5646054,-1899.000,10008.000,377.000,1779.000,-1267.000,-2971.000,0.000,8.859,1
2026-01-31 17:15:21,5646094,-1989.000,10892.000,-797.000,2871.000,-1924.000,-1060.000,0.000,8.859,1
2026-01-31 17:15:21,5646134,-1200.000,11108.000,-1263.000,3114.000,-1686.000,454.000,0.000,8.859,1
2026-01-31 17:15:21,5646174,-1222.000,9307.000,-3234.000,1044.000,-1009.000,2232.000,0.000,8.859,1
2026-01-31 17:15:21,5646217,-1833.000,8378.000,-2073.000,4432.000,-4678.000,3527.000,0.000,8.859,1
2026-01-31 17:15:21,5646257,-3203.000,7137.000,-1525.000,-989.000,-6217.000,3031.000,0.000,8.859,1
2026-01-31 17:15:21,5646294,-3762.000,6299.000,-1245.000,-3174.000,-7026.000,2367.000,0.000,8.859,1
2026-01-31 17:15:21,5646334,-4014.000,5564.000,-1912.000,-6244.000,-8867.000,1485.000,0.000,8.859,1
2026-01-31 17:15:21,5646374,-2447.000,5872.000,-1695.000,-7276.000,-10012.000,1016.000,0.000,8.859,1
2026-01-31 17:15:21,5646414,-949.000,7099.000,-841.000,-5494.000,-9118.000,-642.000,0.000,8.859,1
2026-01-31 17:15:21,5646454,495.000,8587.000,-1346.000,-3934.000,-7818.000,-853.000,0.000,8.859,1
2026-01-31 17:15:21,5646494,3448.000,9295.000,-950.000,-2954.000,-8565.000,-1577.000,0.000,8.859,1
2026-01-31 17:15:21,5646537,3564.000,9867.000,1771.000,-2916.000,-7413.000,-3337.000,0.000,8.859,1
2026-01-31 17:15:21,5646574,2703.000,9997.000,2901.000,-1255.000,-7005.000,-4295.000,0.000,8.859,1
2026-01-31 17:15:21,5646614,2370.000,6449.000,4021.000,814.000,-3355.000,-2578.000,0.000,8.859,1
2026-01-31 17:15:21,5646654,2872.000,10253.000,1207.000,5833.000,-2018.000,-2449.000,0.000,8.859,1
2026-01-31 17:15:21,5646694,-1399.000,7611.000,186.000,2873.000,-721.000,-1339.000,0.000,8.859,1
2026-01-31 17:15:22,5646734,-5664.000,8577.000,880.000,8014.000,-1134.000,-1294.000,0.000,0.000,1
2026-01-31 17:15:22,5646774,-3451.000,8102.000,1666.000,5694.000,-1967.000,-1256.000,0.000,0.000,1
2026-01-31 17:15:22,5646814,530.000,4419.000,2438.000,313.000,-810.000,-495.000,0.000,0.000,1
2026-01-31 17:15:22,5646854,-1338.000,3644.000,-1607.000,4121.000,-933.000,-657.000,0.000,0.000,1
2026-01-31 17:15:22,5646894,303.000,7749.000,1489.000,1199.000,-3614.000,-159.000,0.000,0.000,1
2026-01-31 17:15:22,5646934,-1340.000,3372.000,-2540.000,862.000,-1497.000,-845.000,0.000,0.000,1
2026-01-31 17:15:22,5646974,1051.000,6500.000,-169.000,3092.000,-2533.000,-706.000,0.000,0.000,1
2026-01-31 17:15:22,5647014,-1592.000,9850.000,-543.000,4349.000,-615.000,-1688.000,0.000,0.000,1
2026-01-31 17:15:22,5647054,-2384.000,10126.000,-1042.000,1974.000,-2057.000,-1322.000,0.000,0.000,1
2026-01-31 17:15:22,5647094,-2573.000,11516.000,-588.000,2034.000,-1078.000,-942.000,0.000,0.000,1
2026-01-31 17:15:22,5647134,-7142.000,10208.000,-3667.000,-2264.000,1272.000,632.000,0.000,0.000,1
2026-01-31 17:15:22,5647174,-4145.000,12193.000,-3117.000,-1141.000,-1588.000,1953.000,0.000,0.000,1
2026-01-31 17:15:22,5647214,-2803.000,7445.000,-2499.000,-9682.000,-197.000,4314.000,0.000,0.000,1
2026-01-31 17:15:22,5647254,1217.000,5908.000,-1963.000,630.000,-1606.000,3058.000,0.000,0.000,1
2026-01-31 17:15:22,5647294,-872.000,9661.000,730.000,-2167.000,-1051.000,3490.000,0.000,0.000,1
2026-01-31 17:15:22,5647334,2643.000,2862.000,2212.000,206.000,-1446.000,3065.000,0.000,0.000,1
2026-01-31 17:15:22,5647374,-2054.000,4742.000,-1162.000,-662.000,1759.000,2620.000,0.000,0.000,1
2026-01-31 17:15:22,5647414,-766.000,3184.000,515.000,-4321.000,-776.000,4464.000,0.000,0.000,1
2026-01-31 17:15:22,5647454,1263.000,6440.000,2499.000,1960.000,117.000,4553.000,0.000,0.000,1
2026-01-31 17:15:22,5647494,2908.000,7875.000,3101.000,1158.000,1715.000,4661.000,0.000,0.000,1
2026-01-31 17:15:22,5647534,4725.000,8998.000,2407.000,-1139.000,3034.000,5491.000,0.000,0.000,1
2026-01-31 17:15:22,5647574,2717.000,13011.000,-1545.000,6322.000,2527.000,4441.000,0.000,0.000,1
2026-01-31 17:15:22,5647614,7000.000,15256.000,-2093.000,4711.000,733.000,1292.000,0.000,0.000,1
2026-01-31 17:15:22,5647654,5401.000,10239.000,-2270.000,507.000,1505.000,-768.000,0.000,0.000,1
2026-01-31 17:15:22,5647694,5668.000,7457.000,-1401.000,3206.000,1853.000,-3513.000,0.000,0.000,1
2026-01-31 17:15:23,5647734,2593.000,5692.000,-1955.000,4477.000,4758.000,-4623.000,0.000,-17.140,1
2026-01-31 17:15:23,5647774,704.000,6487.000,-1845.000,7498.000,3866.000,-4658.000,0.000,-17.140,1
2026-01-31 17:15:23,5647814,325.000,6932.000,-159.000,3752.000,2372.000,-4368.000,0.000,-17.140,1
2026-01-31 17:15:23,5647854,-899.000,4618.000,-530.000,324.000,2163.000,-4631.000,0.000,-17.140,1
2026-01-31 17:15:23,5647894,-702.000,6098.000,-922.000,423.000,1744.000,-4713.000,0.000,-17.140,1
2026-01-31 17:15:23,5647934,-981.000,5440.000,-530.000,-389.000,1006.000,-3937.000,0.000,-17.140,1
2026-01-31 17:15:23,5647974,-2503.000,6780.000,-1559.000,-905.000,795.000,-3158.000,0.000,-17.140,1
2026-01-31 17:15:23,5648014,-2337.000,7810.000,-2358.000,-207.000,-107.000,-2220.000,0.000,-17.140,1
2026-01-31 17:15:23,5648054,-3678.000,8680.000,-2489.000,1949.000,-1166.000,-1479.000,0.000,-17.140,1
2026-01-31 17:15:23,5648094,-2701.000,9493.000,-3720.000,1451.000,-3448.000,-854.000,0.000,-17.140,1
2026-01-31 17:15:23,5648134,-2736.000,10711.000,-4195.000,2008.000,-4061.000,528.000,0.000,-17.140,1
2026-01-31 17:15:23,5648174,-2128.000,9756.000,-3920.000,1900.000,-4691.000,1718.000,0.000,-17.140,1
2026-01-31 17:15:23,5648217,-345.000,6487.000,-3196.000,3091.000,-3302.000,3245.000,0.000,-17.140,1
2026-01-31 17:15:23,5648254,419.000,6906.000,-2278.000,6411.000,-2394.000,3322.000,0.000,-17.140,1
2026-01-31 17:15:23,5648294,-142.000,6265.000,-1469.000,6667.000,-513.000,3347.000,0.000,-17.140,1
2026-01-31 17:15:23,5648334,31.000,5972.000,-2230.000,3812.000,-561.000,3190.000,0.000,-17.140,1
2026-01-31 17:15:23,5648374,547.000,3629.000,-1096.000,593.000,-1378.000,2676.000,0.000,-17.140,1
2026-01-31 17:15:23,5648414,-907.000,5167.000,-2125.000,937.000,-1306.000,1949.000,0.000,-17.140,1
2026-01-31 17:15:23,5648454,-750.000,5781.000,-3570.000,-85.000,-1017.000,1407.000,0.000,-17.140,1
2026-01-31 17:15:23,5648494,-543.000,9063.000,-4246.000,-1039.000,422.000,-427.000,0.000,-17.140,1
2026-01-31 17:15:23,5648537,-111.000,9062.000,-5275.000,-1035.000,612.000,-388.000,0.000,-17.140,1
2026-01-31 17:15:23,5648574,269.000,9003.000,-5264.000,-1478.000,681.000,-40.000,0.000,-17.140,1
2026-01-31 17:15:23,5648614,1691.000,10620.000,-5909.000,-1153.000,1562.000,-117.000,0.000,-17.140,1
2026-01-31 17:15:23,5648654,1407.000,9762.000,-4641.000,-418.000,1885.000,-517.000,0.000,-17.140,1
2026-01-31 17:15:23,5648694,1970.000,8622.000,-3337.000,-2197.000,1679.000,-1203.000,0.000,-17.140,1
2026-01-31 17:15:24,5648734,2261.000,6096.000,-4034.000,-3081.000,2575.000,-1446.000,0.000,11.180,1
2026-01-31 17:15:24,5648774,1410.000,5270.000,-3566.000,-60.000,2977.000,-1200.000,0.000,11.180,1
2026-01-31 17:15:24,5648814,562.000,4269.000,-2085.000,673.000,2941.000,-711.000,0.000,11.180,1
2026-01-31 17:15:24,5648854,-738.000,4369.000,-1391.000,1211.000,2709.000,-914.000,0.000,11.180,1
2026-01-31 17:15:24,5648894,-1105.000,4046.000,-1419.000,-273.000,2640.000,-909.000,0.000,11.180,1
2026-01-31 17:15:24,5648934,-1829.000,5224.000,-2144.000,419.000,2172.000,-997.000,0.000,11.180,1
2026-01-31 17:15:24,5648974,-2111.000,6939.000,-1969.000,1403.000,1346.000,-1219.000,0.000,11.180,1
2026-01-31 17:15:24,5649014,-2410.000,7983.000,-2402.000,1299.000,510.000,-1334.000,0.000,11.180,1
2026-01-31 17:15:24,5649054,-1641.000,9315.000,-2744.000,2041.000,-176.000,-1714.000,0.000,11.180,1
2026-01-31 17:15:24,5649094,-759.000,10589.000,-3658.000,1652.000,-566.000,-1719.000,0.000,11.180,1
2026-01-31 17:15:24,5649134,-747.000,11355.000,-4287.000,612.000,-349.000,-1455.000,0.000,11.180,1
2026-01-31 17:15:24,5649174,-1089.000,11913.000,-5391.000,-31.000,-655.000,-647.000,0.000,11.180,1
2026-01-31 17:15:24,5649214,281.000,9378.000,-5699.000,-2089.000,-1413.000,-51.000,0.000,11.180,1
2026-01-31 17:15:24,5649254,220.000,7740.000,-5781.000,-1080.000,-383.000,949.000,0.000,11.180,1
2026-01-31 17:15:24,5649294,-322.000,5495.000,-3199.000,-87.000,-581.000,1283.000,0.000,11.180,1
2026-01-31 17:15:24,5649334,-161.000,4540.000,-1643.000,-404.000,-1235.000,1595.000,0.000,11.180,1
2026-01-31 17:15:24,5649374,-5.000,3967.000,-1362.000,-1496.000,-1524.000,1648.000,0.000,11.180,1
2026-01-31 17:15:24,5649414,-429.000,4113.000,-2115.000,-2342.000,-1424.000,1371.000,0.000,11.180,1
2026-01-31 17:15:24,5649454,-527.000,5274.000,-2794.000,-2249.000,-1060.000,1197.000,0.000,11.180,1
2026-01-31 17:15:24,5649494,-689.000,6679.000,-3179.000,-1684.000,-420.000,863.000,0.000,11.180,1
2026-01-31 17:15:24,5649534,-629.000,8724.000,-4581.000,-1024.000,102.000,741.000,0.000,11.180,1
2026-01-31 17:15:24,5649574,-275.000,9992.000,-4290.000,-228.000,404.000,662.000,0.000,11.180,1
2026-01-31 17:15:24,5649614,926.000,10577.000,-2741.000,-373.000,513.000,128.000,0.000,11.180,1
2026-01-31 17:15:24,5649654,297.000,10180.000,-3306.000,-88.000,1681.000,259.000,0.000,11.180,1
2026-01-31 17:15:24,5649694,1348.000,9167.000,-2396.000,-342.000,255.000,-771.000,0.000,11.180,1
2026-01-31 17:15:25,5649734,2326.000,7447.000,-2829.000,-821.000,14.000,-845.000,0.000,75.890,1
2026-01-31 17:15:25,5649774,1886.000,6556.000,-2605.000,1366.000,779.000,-843.000,0.000,75.890,1
2026-01-31 17:15:25,5649814,560.000,4797.000,-1080.000,1407.000,962.000,-874.000,0.000,75.890,1
2026-01-31 17:15:25,5649854,-55.000,4278.000,-943.000,1141.000,1117.000,-777.000,0.000,75.890,1
2026-01-31 17:15:25,5649894,-600.000,4245.000,-1263.000,755.000,1244.000,-935.000,0.000,75.890,1
2026-01-31 17:15:25,5649934,-1073.000,4956.000,-1249.000,353.000,1159.000,-725.000,0.000,75.890,1
2026-01-31 17:15:25,5649974,-1458.000,7088.000,-344.000,109.000,1241.000,-670.000,0.000,75.890,1
2026-01-31 17:15:25,5650014,-1441.000,9089.000,-1652.000,-1034.000,1014.000,-1104.000,0.000,75.890,1
2026-01-31 17:15:25,5650054,-862.000,10005.000,-1968.000,-508.000,332.000,-1254.000,0.000,75.890,1
2026-01-31 17:15:25,5650094,-1044.000,10606.000,-2513.000,-404.000,173.000,-1895.000,0.000,75.890,1
2026-01-31 17:15:25,5650134,-1810.000,10440.000,-3455.000,-618.000,-156.000,-1485.000,0.000,75.890,1
2026-01-31 17:15:25,5650174,-1912.000,11255.000,-4367.000,63.000,-1321.000,-440.000,0.000,75.890,1
2026-01-31 17:15:25,5650217,-775.000,9345.000,-5210.000,-1428.000,-2903.000,857.000,0.000,75.890,1
2026-01-31 17:15:25,5650257,151.000,8558.000,-4790.000,-511.000,-2881.000,1528.000,0.000,75.890,1
2026-01-31 17:15:25,5650297,62.000,5839.000,-2971.000,325.000,-2590.000,2018.000,0.000,75.890,1
2026-01-31 17:15:25,5650334,223.000,5303.000,-1935.000,849.000,-2721.000,2093.000,0.000,75.890,1
2026-01-31 17:15:25,5650374,638.000,4672.000,-248.000,295.000,-2649.000,1943.000,0.000,75.890,1
2026-01-31 17:15:25,5650414,515.000,4583.000,-1006.000,-1496.000,-1620.000,1139.000,0.000,75.890,1
2026-01-31 17:15:25,5650454,278.000,5315.000,-1936.000,-1603.000,-711.000,1095.000,0.000,75.890,1
2026-01-31 17:15:25,5650494,134.000,6350.000,-2043.000,-526.000,41.000,1139.000,0.000,75.890,1
2026-01-31 17:15:25,5650537,-300.000,9616.000,-3357.000,954.000,896.000,1489.000,0.000,75.890,1
2026-01-31 17:15:25,5650576,-165.000,10061.000,-3111.000,692.000,910.000,1393.000,0.000,75.890,1
2026-01-31 17:15:25,5650614,62.000,10693.000,-2103.000,395.000,1465.000,648.000,0.000,75.890,1
2026-01-31 17:15:25,5650654,767.000,11685.000,-3389.000,-985.000,2786.000,316.000,0.000,75.890,1
2026-01-31 17:15:25,5650694,735.000,10898.000,-2530.000,1084.000,2120.000,-356.000,0.000,75.890,1
2026-01-31 17:15:26,5650734,2175.000,9043.000,-1439.000,-1422.000,620.000,-1674.000,0.000,-37.420,1
2026-01-31 17:15:26,5650774,2801.000,7291.000,-2412.000,296.000,1578.000,-1379.000,0.000,-37.420,1
2026-01-31 17:15:26,5650814,1234.000,5883.000,-933.000,1671.000,1765.000,-961.000,0.000,-37.420,1
2026-01-31 17:15:26,5650854,12.000,4382.000,-512.000,1101.000,1802.000,-519.000,0.000,-37.420,1
2026-01-31 17:15:26,5650894,-169.000,5040.000,-639.000,1307.000,1676.000,-403.000,0.000,-37.420,1
2026-01-31 17:15:26,5650934,-1081.000,4894.000,-830.000,171.000,1828.000,-417.000,0.000,-37.420,1
2026-01-31 17:15:26,5650974,-870.000,5972.000,-661.000,709.000,1294.000,-716.000,0.000,-37.420,1
2026-01-31 17:15:26,5651014,-463.000,6954.000,-1284.000,215.000,1227.000,-1198.000,0.000,-37.420,1
2026-01-31 17:15:26,5651054,-366.000,8130.000,-1789.000,424.000,1032.000,-1830.000,0.000,-37.420,1
2026-01-31 17:15:26,5651094,-157.000,9430.000,-1820.000,620.000,948.000,-2147.000,0.000,-37.420,1
2026-01-31 17:15:26,5651134,161.000,10990.000,-2839.000,332.000,920.000,-2628.000,0.000,-37.420,1
2026-01-31 17:15:26,5651174,304.000,12435.000,-4720.000,633.000,1815.000,-1481.000,0.000,-37.420,1
2026-01-31 17:15:26,5651214,625.000,9716.000,-3441.000,-1043.000,1450.000,-1767.000,0.000,-37.420,1
2026-01-31 17:15:26,5651254,1330.000,9608.000,-4139.000,-823.000,2520.000,-1135.000,0.000,-37.420,1
2026-01-31 17:15:26,5651294,1208.000,9343.000,-4214.000,-1410.000,3679.000,-583.000,0.000,-37.420,1
2026-01-31 17:15:26,5651334,809.000,7184.000,-2292.000,-1390.000,4073.000,-247.000,0.000,-37.420,1
2026-01-31 17:15:26,5651374,-76.000,5520.000,-1316.000,-1522.000,4390.000,174.000,0.000,-37.420,1
2026-01-31 17:15:26,5651414,-446.000,5434.000,-1182.000,-1792.000,4496.000,308.000,0.000,-37.420,1
2026-01-31 17:15:26,5651454,-732.000,4759.000,-1373.000,-2886.000,4793.000,251.000,0.000,-37.420,1
2026-01-31 17:15:26,5651494,-845.000,5076.000,-2072.000,-2578.000,5204.000,354.000,0.000,-37.420,1
2026-01-31 17:15:26,5651534,-1058.000,6560.000,-2780.000,-1151.000,5549.000,532.000,0.000,-37.420,1
2026-01-31 17:15:26,5651574,-1264.000,7439.000,-3006.000,-41.000,5862.000,604.000,0.000,-37.420,1
2026-01-31 17:15:26,5651614,-1706.000,8453.000,-3139.000,833.000,6137.000,265.000,0.000,-37.420,1
2026-01-31 17:15:26,5651654,-1947.000,9382.000,-2235.000,1671.000,5488.000,-401.000,0.000,-37.420,1
2026-01-31 17:15:26,5651694,-1529.000,9932.000,-2819.000,1236.000,5445.000,-843.000,0.000,-37.420,1
2026-01-31 17:15:27,5651734,-1171.000,10829.000,-2409.000,3268.000,4444.000,-1203.000,0.000,-4.230,1
2026-01-31 17:15:27,5651774,-270.000,9046.000,-254.000,2441.000,2389.000,-2145.000,0.000,-4.230,1
2026-01-31 17:15:27,5651814,456.000,9602.000,-21.000,2154.000,809.000,-1614.000,0.000,-4.230,1
2026-01-31 17:15:27,5651854,1324.000,9769.000,-444.000,1582.000,-476.000,-427.000,0.000,-4.230,1
2026-01-31 17:15:27,5651894,98.000,6784.000,-79.000,-556.000,-362.000,59.000,0.000,-4.230,1
2026-01-31 17:15:27,5651934,-743.000,5767.000,-936.000,-638.000,-459.000,465.000,0.000,-4.230,1
2026-01-31 17:15:27,5651974,-1055.000,5726.000,-1009.000,-276.000,-884.000,456.000,0.000,-4.230,1
2026-01-31 17:15:27,5652014,-1128.000,5416.000,-951.000,-196.000,-1349.000,531.000,0.000,-4.230,1
2026-01-31 17:15:27,5652054,-1169.000,6094.000,-725.000,11.000,-1763.000,478.000,0.000,-4.230,1
2026-01-31 17:15:27,5652094,-1263.000,6922.000,-1244.000,-219.000,-2012.000,283.000,0.000,-4.230,1
2026-01-31 17:15:27,5652134,-1656.000,7964.000,-2047.000,497.000,-2441.000,308.000,0.000,-4.230,1
2026-01-31 17:15:27,5652174,-1438.000,8375.000,-2490.000,1140.000,-2883.000,437.000,0.000,-4.230,1
2026-01-31 17:15:27,5652214,-1338.000,9441.000,-2707.000,1685.000,-3249.000,382.000,0.000,-4.230,1
2026-01-31 17:15:27,5652254,-1618.000,12388.000,-4245.000,1928.000,-3201.000,987.000,0.000,-4.230,1
2026-01-31 17:15:27,5652294,140.000,9712.000,-3279.000,-492.000,-4355.000,815.000,0.000,-4.230,1
2026-01-31 17:15:27,5652334,393.000,9831.000,-3813.000,-674.000,-4181.000,1085.000,0.000,-4.230,1
2026-01-31 17:15:27,5652374,580.000,9050.000,-4219.000,-1929.000,-3917.000,1402.000,0.000,-4.230,1
2026-01-31 17:15:27,5652414,668.000,6696.000,-2988.000,-1655.000,-3758.000,1553.000,0.000,-4.230,1
2026-01-31 17:15:27,5652454,701.000,4807.000,-1740.000,-1608.000,-3662.000,1639.000,0.000,-4.230,1
2026-01-31 17:15:27,5652494,269.000,4521.000,-1421.000,-1241.000,-3210.000,1691.000,0.000,-4.230,1
2026-01-31 17:15:27,5652534,-201.000,5156.000,-1746.000,-1454.000,-2378.000,1735.000,0.000,-4.230,1
2026-01-31 17:15:27,5652574,-534.000,5461.000,-2055.000,-1687.000,-1594.000,1547.000,0.000,-4.230,1
2026-01-31 17:15:27,5652614,-928.000,5857.000,-2343.000,-1177.000,-1092.000,1366.000,0.000,-4.230,1
2026-01-31 17:15:27,5652654,-1145.000,7757.000,-3357.000,16.000,-825.000,1316.000,0.000,-4.230,1
2026-01-31 17:15:27,5652694,-578.000,9167.000,-2607.000,482.000,-951.000,886.000,0.000,-4.230,1
2026-01-31 17:15:28,5652734,1392.000,10118.000,-3031.000,74.000,-384.000,216.000,0.000,-22.260,1
2026-01-31 17:15:28,5652774,532.000,10653.000,-3505.000,1726.000,683.000,374.000,0.000,-22.260,1
2026-01-31 17:15:28,5652814,1675.000,11152.000,-1652.000,1705.000,-862.000,-230.000,0.000,-22.260,1
2026-01-31 17:15:28,5652854,2907.000,8907.000,-1332.000,-584.000,-1546.000,-421.000,0.000,-22.260,1
2026-01-31 17:15:28,5652894,3060.000,8292.000,-1604.000,189.000,-1198.000,18.000,0.000,-22.260,1
2026-01-31 17:15:28,5652934,1183.000,6207.000,-948.000,387.000,-699.000,285.000,0.000,-22.260,1
2026-01-31 17:15:28,5652974,10.000,4983.000,-731.000,18.000,-547.000,360.000,0.000,-22.260,1
2026-01-31 17:15:28,5653014,-383.000,4896.000,-825.000,138.000,-545.000,234.000,0.000,-22.260,1
2026-01-31 17:15:28,5653054,-1094.000,5417.000,-1184.000,158.000,-528.000,193.000,0.000,-22.260,1
2026-01-31 17:15:28,5653094,-1085.000,6101.000,-892.000,879.000,-1294.000,140.000,0.000,-22.260,1
2026-01-31 17:15:28,5653134,-844.000,7161.000,-1091.000,711.000,-1963.000,49.000,0.000,-22.260,1
2026-01-31 17:15:28,5653174,-727.000,8716.000,-2042.000,631.000,-2352.000,-155.000,0.000,-22.260,1
2026-01-31 17:15:28,5653214,-617.000,8617.000,-2191.000,500.000,-2946.000,-645.000,0.000,-22.260,1
2026-01-31 17:15:28,5653254,-284.000,9973.000,-2244.000,569.000,-2955.000,-950.000,0.000,-22.260,1
2026-01-31 17:15:28,5653294,-796.000,12721.000,-4122.000,339.000,-2229.000,76.000,0.000,-22.260,1
2026-01-31 17:15:28,5653334,-576.000,11770.000,-3673.000,-200.000,-2940.000,847.000,0.000,-22.260,1
2026-01-31 17:15:28,5653374,-681.000,10153.000,-3536.000,-1876.000,-3151.000,1346.000,0.000,-22.260,1
2026-01-31 17:15:28,5653414,-568.000,9443.000,-4198.000,-3039.000,-3261.000,1732.000,0.000,-22.260,1
2026-01-31 17:15:28,5653454,-546.000,5624.000,-2286.000,-3565.000,-4409.000,1756.000,0.000,-22.260,1
2026-01-31 17:15:28,5653494,-71.000,4375.000,-1915.000,-2874.000,-4599.000,1540.000,0.000,-22.260,1
2026-01-31 17:15:28,5653534,-190.000,3960.000,-1638.000,-1947.000,-4500.000,1572.000,0.000,-22.260,1
2026-01-31 17:15:28,5653574,-71.000,4718.000,-1649.000,-1323.000,-4009.000,1730.000,0.000,-22.260,1
2026-01-31 17:15:28,5653614,-211.000,5311.000,-2056.000,-1061.000,-2851.000,1732.000,0.000,-22.260,1
2026-01-31 17:15:28,5653654,-374.000,6777.000,-2071.000,278.000,-2199.000,1713.000,0.000,-22.260,1
2026-01-31 17:15:28,5653694,-244.000,8785.000,-2981.000,45.000,-1340.000,2068.000,0.000,-22.260,1
2026-01-31 17:15:29,5653734,615.000,9681.000,-2820.000,1457.000,-1004.000,1760.000,0.000,-21.870,1
2026-01-31 17:15:29,5653774,2117.000,10827.000,-1829.000,1844.000,-307.000,1264.000,0.000,-21.870,1
2026-01-31 17:15:29,5653814,2961.000,11614.000,-1356.000,1972.000,1380.000,1488.000,0.000,-21.870,1
2026-01-31 17:15:29,5653854,3151.000,10257.000,-498.000,96.000,642.000,597.000,0.000,-21.870,1
2026-01-31 17:15:29,5653894,3401.000,7544.000,-1145.000,-969.000,437.000,411.000,0.000,-21.870,1
2026-01-31 17:15:29,5653934,2977.000,7206.000,-1486.000,1336.000,858.000,600.000,0.000,-21.870,1
2026-01-31 17:15:29,5653974,1071.000,6105.000,-786.000,2012.000,1113.000,521.000,0.000,-21.870,1
2026-01-31 17:15:29,5654014,-168.000,4673.000,-556.000,1348.000,850.000,480.000,0.000,-21.870,1
2026-01-31 17:15:29,5654054,-592.000,4701.000,-662.000,1048.000,325.000,56.000,0.000,-21.870,1
2026-01-31 17:15:29,5654094,-821.000,4994.000,-1039.000,617.000,-83.000,-278.000,0.000,-21.870,1
2026-01-31 17:15:29,5654134,-386.000,6223.000,-798.000,821.000,-494.000,-785.000,0.000,-21.870,1
2026-01-31 17:15:29,5654174,-41.000,7128.000,-873.000,557.000,-651.000,-1705.000,0.000,-21.870,1
2026-01-31 17:15:29,5654217,-159.000,9677.000,-2248.000,1460.000,-1792.000,-2387.000,0.000,-21.870,1
2026-01-31 17:15:29,5654257,310.000,9900.000,-1883.000,1621.000,-2643.000,-2685.000,0.000,-21.870,1
2026-01-31 17:15:29,5654294,536.000,10465.000,-2170.000,1528.000,-2692.000,-2631.000,0.000,-21.870,1
2026-01-31 17:15:29,5654334,691.000,12572.000,-3772.000,1669.000,-2497.000,-1339.000,0.000,-21.870,1
2026-01-31 17:15:29,5654374,880.000,11285.000,-3529.000,101.000,-3038.000,-571.000,0.000,-21.870,1
2026-01-31 17:15:29,5654414,1059.000,9389.000,-4164.000,-1883.000,-2523.000,126.000,0.000,-21.870,1
2026-01-31 17:15:29,5654454,1304.000,8775.000,-4196.000,-1383.000,-1847.000,812.000,0.000,-21.870,1
2026-01-31 17:15:29,5654494,870.000,6306.000,-2487.000,-1064.000,-1749.000,1216.000,0.000,-21.870,1
2026-01-31 17:15:29,5654537,450.000,4255.000,-1126.000,-680.000,-1899.000,1521.000,0.000,-21.870,1
2026-01-31 17:15:29,5654574,272.000,4693.000,-1372.000,-493.000,-1901.000,1479.000,0.000,-21.870,1
2026-01-31 17:15:29,5654614,-175.000,5110.000,-1770.000,-625.000,-1038.000,1309.000,0.000,-21.870,1
2026-01-31 17:15:29,5654654,-327.000,6625.000,-2104.000,-324.000,-348.000,1023.000,0.000,-21.870,1
2026-01-31 17:15:29,5654694,-649.000,7647.000,-2318.000,-648.000,128.000,434.000,0.000,-21.870,1
2026-01-31 17:15:30,5654734,-595.000,8842.000,-2925.000,-545.000,227.000,392.000,0.000,-5.400,1
2026-01-31 17:15:30,5654774,-225.000,9507.000,-2813.000,29.000,244.000,346.000,0.000,-5.400,1
2026-01-31 17:15:30,5654814,372.000,9494.000,-2116.000,120.000,155.000,209.000,0.000,-5.400,1
2026-01-31 17:15:30,5654854,472.000,10542.000,-3109.000,407.000,897.000,730.000,0.000,-5.400,1
2026-01-31 17:15:30,5654894,1015.000,10628.000,-2616.000,1849.000,-19.000,230.000,0.000,-5.400,1
2026-01-31 17:15:30,5654934,2088.000,8347.000,-1968.000,-690.000,-883.000,-804.000,0.000,-5.400,1
2026-01-31 17:15:30,5654974,2634.000,7815.000,-2599.000,667.000,-410.000,-946.000,0.000,-5.400,1
2026-01-31 17:15:30,5655014,1260.000,5558.000,-1241.000,887.000,30.000,-505.000,0.000,-5.400,1
2026-01-31 17:15:30,5655054,236.000,4570.000,-752.000,1103.000,-50.000,-290.000,0.000,-5.400,1
2026-01-31 17:15:30,5655094,77.000,4623.000,-748.000,752.000,-88.000,-367.000,0.000,-5.400,1
2026-01-31 17:15:30,5655134,-528.000,5091.000,-848.000,236.000,-4.000,-324.000,0.000,-5.400,1
2026-01-31 17:15:30,5655174,-272.000,6123.000,-896.000,-60.000,13.000,-443.000,0.000,-5.400,1
2026-01-31 17:15:30,5655214,289.000,7574.000,-305.000,180.000,-264.000,-785.000,0.000,-5.400,1
2026-01-31 17:15:30,5655254,577.000,9415.000,-398.000,647.000,-536.000,-668.000,0.000,-5.400,1
2026-01-31 17:15:30,5655294,676.000,10750.000,-1190.000,148.000,-908.000,-494.000,0.000,-5.400,1
2026-01-31 17:15:30,5655334,143.000,9223.000,-1724.000,-1146.000,-954.000,-656.000,0.000,-5.400,1
2026-01-31 17:15:30,5655374,-788.000,9586.000,-2258.000,-890.000,-585.000,-763.000,0.000,-5.400,1
2026-01-31 17:15:30,5655414,-1259.000,10622.000,-4003.000,-960.000,-182.000,82.000,0.000,-5.400,1
2026-01-31 17:15:30,5655454,-1077.000,9916.000,-4513.000,-1536.000,-377.000,486.000,0.000,-5.400,1
2026-01-31 17:15:30,5655494,-449.000,9420.000,-4758.000,-1901.000,-300.000,873.000,0.000,-5.400,1
2026-01-31 17:15:30,5655534,287.000,8095.000,-3567.000,-226.000,-171.000,469.000,0.000,-5.400,1
2026-01-31 17:15:30,5655574,113.000,6732.000,-2018.000,-246.000,-175.000,-396.000,0.000,-5.400,1
2026-01-31 17:15:30,5655614,195.000,4640.000,-1434.000,-1930.000,-772.000,-342.000,0.000,-5.400,1
2026-01-31 17:15:30,5655654,-68.000,3935.000,-870.000,-1389.000,-1187.000,-155.000,0.000,-5.400,1
2026-01-31 17:15:30,5655694,-154.000,4247.000,-675.000,-130.000,-1223.000,350.000,0.000,-5.400,1
2026-01-31 17:15:31,5655734,-625.000,6983.000,-1075.000,1017.000,-132.000,577.000,0.000,37.380,1
2026-01-31 17:15:31,5655774,-612.000,8564.000,-1519.000,521.000,286.000,694.000,0.000,37.380,1
2026-01-31 17:15:31,5655814,-418.000,9357.000,-2299.000,-98.000,912.000,698.000,0.000,37.380,1
2026-01-31 17:15:31,5655854,6.000,9975.000,-2040.000,392.000,914.000,691.000,0.000,37.380,1
2026-01-31 17:15:31,5655894,793.000,10886.000,-2312.000,-901.000,1178.000,415.000,0.000,37.380,1
2026-01-31 17:15:31,5655934,1318.000,11149.000,-3767.000,-24.000,2470.000,398.000,0.000,37.380,1
2026-01-31 17:15:31,5655974,1215.000,10695.000,-2144.000,430.000,1582.000,-913.000,0.000,37.380,1
2026-01-31 17:15:31,5656014,1989.000,8708.000,-2852.000,-1872.000,1315.000,-1101.000,0.000,37.380,1
2026-01-31 17:15:31,5656054,1406.000,8391.000,-2181.000,1032.000,1447.000,-687.000,0.000,37.380,1
2026-01-31 17:15:31,5656094,-729.000,4270.000,-484.000,976.000,1555.000,-78.000,0.000,37.380,1
2026-01-31 17:15:31,5656134,-951.000,4302.000,-489.000,1828.000,531.000,549.000,0.000,37.380,1
2026-01-31 17:15:31,5656174,-1273.000,4782.000,-724.000,1841.000,-145.000,687.000,0.000,37.380,1
2026-01-31 17:15:31,5656214,-1193.000,6116.000,-777.000,1661.000,-786.000,567.000,0.000,37.380,1
2026-01-31 17:15:31,5656254,-1368.000,6914.000,-1236.000,1008.000,-1501.000,408.000,0.000,37.380,1
2026-01-31 17:15:31,5656294,-983.000,7037.000,-1236.000,-163.000,-2260.000,-203.000,0.000,37.380,1
2026-01-31 17:15:31,5656334,-769.000,8340.000,-1998.000,866.000,-2500.000,-369.000,0.000,37.380,1
2026-01-31 17:15:31,5656374,-941.000,9311.000,-2392.000,911.000,-2794.000,-659.000,0.000,37.380,1
2026-01-31 17:15:31,5656414,-1322.000,10153.000,-2899.000,980.000,-3025.000,-453.000,0.000,37.380,1
2026-01-31 17:15:31,5656454,-1053.000,12781.000,-4679.000,1327.000,-3477.000,809.000,0.000,37.380,1
2026-01-31 17:15:31,5656494,-845.000,9038.000,-4800.000,-1244.000,-3683.000,1546.000,0.000,37.380,1
2026-01-31 17:15:31,5656549,-1290.000,8392.000,-4772.000,-632.000,-3437.000,2076.000,0.000,37.380,1
2026-01-31 17:15:31,5656574,-1337.000,7665.000,-4292.000,-712.000,-3798.000,2142.000,0.000,37.380,1
2026-01-31 17:15:31,5656614,-1111.000,5776.000,-3237.000,-845.000,-4283.000,2135.000,0.000,37.380,1
2026-01-31 17:15:31,5656654,-626.000,4737.000,-2848.000,-848.000,-4500.000,2128.000,0.000,37.380,1
2026-01-31 17:15:31,5656694,-527.000,4309.000,-2834.000,-768.000,-4287.000,2168.000,0.000,37.380,1
2026-01-31 17:15:32,5656734,-569.000,4729.000,-3040.000,-107.000,-3678.000,2206.000,0.000,13.620,1
2026-01-31 17:15:32,5656774,-719.000,5667.000,-3060.000,346.000,-2863.000,2059.000,0.000,13.620,1
2026-01-31 17:15:32,5656814,-853.000,6293.000,-3193.000,111.000,-2228.000,1847.000,0.000,13.620,1
2026-01-31 17:15:32,5656854,-968.000,8347.000,-3580.000,469.000,-1902.000,1693.000,0.000,13.620,1
2026-01-31 17:15:32,5656894,-398.000,9196.000,-3656.000,535.000,-1493.000,1070.000,0.000,13.620,1
2026-01-31 17:15:32,5656934,26.000,9938.000,-3887.000,-124.000,-1019.000,793.000,0.000,13.620,1
2026-01-31 17:15:32,5656974,843.000,10381.000,-4366.000,-238.000,-39.000,614.000,0.000,13.620,1
2026-01-31 17:15:32,5657014,918.000,10002.000,-2973.000,1325.000,-576.000,-117.000,0.000,13.620,1
2026-01-31 17:15:32,5657054,1540.000,7977.000,-2104.000,-865.000,-1428.000,-669.000,0.000,13.620,1
2026-01-31 17:15:32,5657094,1929.000,8581.000,-2979.000,-376.000,-1536.000,-618.000,0.000,13.620,1
2026-01-31 17:15:32,5657134,1706.000,6518.000,-2751.000,-644.000,-1154.000,-376.000,0.000,13.620,1
2026-01-31 17:15:32,5657174,865.000,5795.000,-1606.000,520.000,-1159.000,92.000,0.000,13.620,1
2026-01-31 17:15:32,5657214,458.000,5269.000,-1308.000,394.000,-1117.000,364.000,0.000,13.620,1
2026-01-31 17:15:32,5657254,-565.000,4858.000,-1052.000,88.000,-797.000,462.000,0.000,13.620,1
2026-01-31 17:15:32,5657294,-445.000,5610.000,-1454.000,593.000,-732.000,391.000,0.000,13.620,1
2026-01-31 17:15:32,5657334,75.000,7073.000,-1654.000,621.000,-1038.000,123.000,0.000,13.620,1
2026-01-31 17:15:32,5657374,52.000,7612.000,-1483.000,482.000,-1004.000,-45.000,0.000,13.620,1
2026-01-31 17:15:32,5657414,112.000,8541.000,-1608.000,765.000,-957.000,-220.000,0.000,13.620,1
2026-01-31 17:15:32,5657454,-354.000,9296.000,-1571.000,958.000,-1368.000,-531.000,0.000,13.620,1
2026-01-31 17:15:32,5657494,-566.000,9378.000,-1181.000,337.000,-1674.000,-997.000,0.000,13.620,1
2026-01-31 17:15:32,5657534,-940.000,10027.000,-2299.000,-454.000,-1452.000,-1266.000,0.000,13.620,1
2026-01-31 17:15:32,5657574,-897.000,11196.000,-4334.000,-343.000,-1475.000,-666.000,0.000,13.620,1
2026-01-31 17:15:32,5657614,103.000,9516.000,-4660.000,-1524.000,-1930.000,-746.000,0.000,13.620,1
2026-01-31 17:15:32,5657654,1125.000,9445.000,-5327.000,-1127.000,-971.000,-5.000,0.000,13.620,1
2026-01-31 17:15:32,5657694,1036.000,7504.000,-4246.000,-1031.000,-264.000,99.000,0.000,13.620,1
2026-01-31 17:15:33,5657734,712.000,6063.000,-2727.000,198.000,-173.000,161.000,0.000,0.830,1
2026-01-31 17:15:33,5657774,590.000,5036.000,-1489.000,500.000,-263.000,302.000,0.000,0.830,1
2026-01-31 17:15:33,5657814,310.000,4645.000,-1057.000,-300.000,54.000,462.000,0.000,0.830,1
2026-01-31 17:15:33,5657854,82.000,4925.000,-1572.000,-787.000,624.000,535.000,0.000,0.830,1
2026-01-31 17:15:33,5657894,-406.000,5322.000,-2042.000,-858.000,1289.000,767.000,0.000,0.830,1
2026-01-31 17:15:33,5657934,-590.000,6739.000,-2346.000,223.000,1638.000,989.000,0.000,0.830,1
2026-01-31 17:15:33,5657974,-634.000,8784.000,-3323.000,130.000,1774.000,1237.000,0.000,0.830,1
2026-01-31 17:15:33,5658014,178.000,9079.000,-2685.000,489.000,1643.000,576.000,0.000,0.830,1
2026-01-31 17:15:33,5658054,628.000,9655.000,-2376.000,1024.000,1949.000,315.000,0.000,0.830,1
2026-01-31 17:15:33,5658094,869.000,10600.000,-3017.000,-65.000,2561.000,-20.000,0.000,0.830,1
2026-01-31 17:15:33,5658134,1514.000,10612.000,-3579.000,374.000,3072.000,-338.000,0.000,0.830,1
2026-01-31 17:15:33,5658174,2005.000,8528.000,-1871.000,-568.000,2468.000,-1719.000,0.000,0.830,1
2026-01-31 17:15:33,5658217,3632.000,8296.000,-2542.000,-332.000,2836.000,-2010.000,0.000,0.830,1
2026-01-31 17:15:33,5658257,2247.000,6679.000,-1294.000,454.000,3387.000,-1780.000,0.000,0.830,1
2026-01-31 17:15:33,5658294,1428.000,5823.000,-765.000,439.000,3526.000,-1551.000,0.000,0.830,1
2026-01-31 17:15:33,5658334,227.000,5314.000,-567.000,597.000,3637.000,-1318.000,0.000,0.830,1
2026-01-31 17:15:33,5658374,-609.000,4773.000,-657.000,323.000,3473.000,-1181.000,0.000,0.830,1
2026-01-31 17:15:33,5658414,-1148.000,6115.000,-876.000,1084.000,2521.000,-741.000,0.000,0.830,1
2026-01-31 17:15:33,5658454,-908.000,6921.000,-948.000,814.000,1689.000,-664.000,0.000,0.830,1
2026-01-31 17:15:33,5658494,-1057.000,8063.000,-1260.000,798.000,1058.000,-528.000,0.000,0.830,1
2026-01-31 17:15:33,5658534,-695.000,9009.000,-1585.000,698.000,-18.000,-568.000,0.000,0.830,1
2026-01-31 17:15:33,5658574,-364.000,9211.000,-1752.000,508.000,-1142.000,-740.000,0.000,0.830,1
2026-01-31 17:15:33,5658614,-417.000,10099.000,-1825.000,400.000,-1906.000,-867.000,0.000,0.830,1
2026-01-31 17:15:33,5658654,-592.000,11387.000,-3449.000,-547.000,-2058.000,-613.000,0.000,0.830,1
2026-01-31 17:15:33,5658694,78.000,10102.000,-4299.000,-1098.000,-2106.000,-367.000,0.000,0.830,1
2026-01-31 17:15:34,5658734,-166.000,7999.000,-4414.000,-1176.000,-1665.000,301.000,0.000,23.330,1
2026-01-31 17:15:34,5658774,55.000,8015.000,-4333.000,258.000,-1535.000,845.000,0.000,23.330,1
2026-01-31 17:15:34,5658814,453.000,6314.000,-2956.000,86.000,-1517.000,530.000,0.000,23.330,1
2026-01-31 17:15:34,5658854,558.000,5496.000,-2043.000,60.000,-1278.000,390.000,0.000,23.330,1
2026-01-31 17:15:34,5658894,197.000,5326.000,-1912.000,-42.000,-827.000,567.000,0.000,23.330,1
2026-01-31 17:15:34,5658934,-269.000,5994.000,-2235.000,-331.000,16.000,706.000,0.000,23.330,1
2026-01-31 17:15:34,5658974,-464.000,6154.000,-2366.000,-594.000,703.000,486.000,0.000,23.330,1
2026-01-31 17:15:34,5659014,-1063.000,6479.000,-2185.000,-462.000,1293.000,525.000,0.000,23.330,1
2026-01-31 17:15:34,5659054,-1139.000,7695.000,-2431.000,-283.000,1426.000,530.000,0.000,23.330,1
2026-01-31 17:15:34,5659094,-823.000,8701.000,-2779.000,-778.000,1447.000,560.000,0.000,23.330,1
2026-01-31 17:15:34,5659134,-723.000,8891.000,-2679.000,-912.000,1584.000,768.000,0.000,23.330,1
2026-01-31 17:15:34,5659174,-508.000,9906.000,-2640.000,-1104.000,1343.000,1415.000,0.000,23.330,1
2026-01-31 17:15:34,5659214,-36.000,11673.000,-3748.000,-1795.000,1663.000,1619.000,0.000,23.330,1
2026-01-31 17:15:34,5659254,193.000,8460.000,-1931.000,-1184.000,1061.000,326.000,0.000,23.330,1
2026-01-31 17:15:34,5659294,-120.000,6940.000,-1389.000,-2231.000,230.000,-62.000,0.000,23.330,1
2026-01-31 17:15:34,5659334,-613.000,7281.000,-2153.000,-274.000,-693.000,116.000,0.000,23.330,1
2026-01-31 17:15:34,5659374,-582.000,7005.000,-1953.000,610.000,-1535.000,831.000,0.000,23.330,1
2026-01-31 17:15:34,5659414,-1096.000,5658.000,-1387.000,326.000,-2184.000,1239.000,0.000,23.330,1
2026-01-31 17:15:34,5659454,-1059.000,5509.000,-1121.000,742.000,-2907.000,1171.000,0.000,23.330,1
2026-01-31 17:15:34,5659494,-1167.000,5630.000,-1305.000,453.000,-3266.000,1101.000,0.000,23.330,1
2026-01-31 17:15:34,5659534,-782.000,6718.000,-1829.000,716.000,-3571.000,970.000,0.000,23.330,1
2026-01-31 17:15:34,5659574,-418.000,7000.000,-1982.000,659.000,-3975.000,1135.000,0.000,23.330,1
2026-01-31 17:15:34,5659614,-115.000,7696.000,-1997.000,847.000,-4554.000,1184.000,0.000,23.330,1
2026-01-31 17:15:34,5659654,-638.000,7732.000,-1895.000,739.000,-5007.000,1027.000,0.000,23.330,1
2026-01-31 17:15:34,5659694,-1459.000,7993.000,-2625.000,696.000,-5189.000,570.000,0.000,23.330,1
2026-01-31 17:15:35,5659734,-1705.000,8851.000,-3419.000,413.000,-5647.000,-349.000,0.000,0.000,1
2026-01-31 17:15:35,5659774,-948.000,10600.000,-5625.000,842.000,-6000.000,-342.000,0.000,0.000,1
2026-01-31 17:15:35,5659814,-385.000,10500.000,-6632.000,497.000,-5654.000,753.000,0.000,0.000,1
2026-01-31 17:15:35,5659854,-67.000,9840.000,-4959.000,1382.000,-5500.000,1354.000,0.000,0.000,1
2026-01-31 17:15:35,5659894,493.000,8055.000,-3782.000,149.000,-5470.000,1784.000,0.000,0.000,1
2026-01-31 17:15:35,5659934,-50.000,6051.000,-2398.000,569.000,-5354.000,2647.000,0.000,0.000,1
2026-01-31 17:15:35,5659974,-496.000,4890.000,-1829.000,-246.000,-5069.000,2919.000,0.000,0.000,1
2026-01-31 17:15:35,5660014,-528.000,5449.000,-2240.000,-882.000,-4588.000,2784.000,0.000,0.000,1
2026-01-31 17:15:35,5660054,-478.000,5552.000,-2823.000,-1633.000,-3555.000,2470.000,0.000,0.000,1
2026-01-31 17:15:35,5660094,-598.000,6136.000,-3005.000,-828.000,-2552.000,2169.000,0.000,0.000,1
2026-01-31 17:15:35,5660134,-352.000,7438.000,-3079.000,-391.000,-2010.000,2382.000,0.000,0.000,1
2026-01-31 17:15:35,5660174,-604.000,9145.000,-3683.000,-119.000,-1327.000,2570.000,0.000,0.000,1
2026-01-31 17:15:35,5660217,459.000,10558.000,-4052.000,232.000,-423.000,2639.000,0.000,0.000,1
2026-01-31 17:15:35,5660256,1263.000,11067.000,-4518.000,209.000,121.000,2441.000,0.000,0.000,1
2026-01-31 17:15:35,5660294,1497.000,9262.000,-3622.000,577.000,-59.000,1072.000,0.000,0.000,1
2026-01-31 17:15:35,5660334,3088.000,7934.000,-3970.000,-1817.000,-570.000,-737.000,0.000,0.000,1
2026-01-31 17:15:35,5660374,4298.000,6678.000,-4158.000,-1271.000,891.000,-1771.000,0.000,0.000,1
2026-01-31 17:15:35,5660414,3023.000,4488.000,-2321.000,1206.000,1656.000,-1771.000,0.000,0.000,1
2026-01-31 17:15:35,5660454,1323.000,4617.000,-322.000,3632.000,1156.000,-1069.000,0.000,0.000,1
2026-01-31 17:15:35,5660494,674.000,5047.000,-230.000,2697.000,429.000,-487.000,0.000,0.000,1
2026-01-31 17:15:35,5660537,-218.000,5615.000,-572.000,73.000,233.000,-805.000,0.000,0.000,1
2026-01-31 17:15:35,5660574,-81.000,5751.000,-1191.000,-636.000,207.000,-1005.000,0.000,0.000,1
2026-01-31 17:15:35,5660614,-477.000,6810.000,-1869.000,-235.000,-195.000,-1437.000,0.000,0.000,1
2026-01-31 17:15:35,5660654,-574.000,7896.000,-1782.000,-40.000,-1015.000,-1845.000,0.000,0.000,1
2026-01-31 17:15:35,5660694,-204.000,9875.000,-2200.000,-50.000,-1422.000,-2350.000,0.000,0.000,1
2026-01-31 17:15:36,5660734,-602.000,9972.000,-3915.000,-464.000,-1411.000,-2177.000,0.000,0.000,1
2026-01-31 17:15:36,5660774,322.000,11088.000,-7574.000,295.000,-557.000,-794.000,0.000,0.000,1
2026-01-31 17:15:36,5660814,1370.000,10599.000,-6022.000,1603.000,-177.000,-343.000,0.000,0.000,1
2026-01-31 17:15:36,5660854,948.000,9562.000,-4670.000,-130.000,418.000,831.000,0.000,0.000,1
2026-01-31 17:15:36,5660894,522.000,9724.000,-4391.000,1904.000,131.000,1696.000,0.000,0.000,1
2026-01-31 17:15:36,5660934,-200.000,6620.000,-3186.000,45.000,-394.000,2129.000,0.000,0.000,1
2026-01-31 17:15:36,5660974,-521.000,4870.000,-1210.000,-186.000,-989.000,1829.000,0.000,0.000,1
2026-01-31 17:15:36,5661014,-312.000,3731.000,-704.000,-1583.000,-1318.000,1543.000,0.000,0.000,1
2026-01-31 17:15:36,5661054,-632.000,4128.000,-1486.000,-2479.000,-1483.000,1017.000,0.000,0.000,1
2026-01-31 17:15:36,5661094,-883.000,4785.000,-2616.000,-3406.000,-1087.000,780.000,0.000,0.000,1
2026-01-31 17:15:36,5661134,-922.000,6387.000,-3402.000,-2669.000,-312.000,746.000,0.000,0.000,1
2026-01-31 17:15:36,5661174,-555.000,8761.000,-4551.000,-1227.000,178.000,1398.000,0.000,0.000,1
2026-01-31 17:15:36,5661214,-33.000,9839.000,-4399.000,932.000,177.000,1508.000,0.000,0.000,1
2026-01-31 17:15:36,5661254,1175.000,10652.000,-3829.000,872.000,478.000,984.000,0.000,0.000,1
2026-01-31 17:15:36,5661294,1164.000,10678.000,-5143.000,1067.000,2749.000,960.000,0.000,0.000,1
2026-01-31 17:15:36,5661334,1195.000,10134.000,-2672.000,3092.000,821.000,-724.000,0.000,0.000,1
2026-01-31 17:15:36,5661374,2098.000,6754.000,-2754.000,243.000,586.000,-1585.000,0.000,0.000,1
2026-01-31 17:15:36,5661414,1984.000,7804.000,-2822.000,2325.000,947.000,-1650.000,0.000,0.000,1
2026-01-31 17:15:36,5661454,54.000,4859.000,-1216.000,1272.000,739.000,-1366.000,0.000,0.000,1
2026-01-31 17:15:36,5661494,-18.000,4629.000,-1080.000,144.000,168.000,-905.000,0.000,0.000,1
2026-01-31 17:15:36,5661534,-242.000,4692.000,-1376.000,-1312.000,-123.000,-809.000,0.000,0.000,1
2026-01-31 17:15:36,5661574,-336.000,4764.000,-1499.000,-1582.000,-313.000,-674.000,0.000,0.000,1
2026-01-31 17:15:36,5661614,-765.000,5686.000,-2215.000,-900.000,-880.000,-405.000,0.000,0.000,1
2026-01-31 17:15:36,5661654,-717.000,7689.000,-2788.000,286.000,-1679.000,-194.000,0.000,0.000,1
2026-01-31 17:15:36,5661694,-470.000,9632.000,-2917.000,1479.000,-2108.000,-171.000,0.000,0.000,1
2026-01-31 17:15:37,5661734,-266.000,10941.000,-2148.000,416.000,-2425.000,-499.000,0.000,41.570,1
2026-01-31 17:15:37,5661774,-836.000,10472.000,-2896.000,-2142.000,-1576.000,-972.000,0.000,41.570,1
2026-01-31 17:15:37,5661814,-736.000,11365.000,-5254.000,1988.000,-2650.000,-108.000,0.000,41.570,1
2026-01-31 17:15:37,5661854,85.000,9666.000,-6038.000,-863.000,-2286.000,1485.000,0.000,41.570,1
2026-01-31 17:15:37,5661894,639.000,7857.000,-4308.000,-1250.000,-1619.000,1676.000,0.000,41.570,1
2026-01-31 17:15:37,5661934,470.000,6008.000,-2125.000,-273.000,-1743.000,1874.000,0.000,41.570,1
2026-01-31 17:15:37,5661974,508.000,4399.000,-775.000,-1480.000,-2438.000,2143.000,0.000,41.570,1
2026-01-31 17:15:37,5662014,434.000,3723.000,-432.000,-2186.000,-2562.000,1879.000,0.000,41.570,1
2026-01-31 17:15:37,5662054,-20.000,4514.000,-1570.000,-2456.000,-1725.000,1498.000,0.000,41.570,1
2026-01-31 17:15:37,5662094,-162.000,5824.000,-2168.000,-2329.000,-1152.000,1502.000,0.000,41.570,1
2026-01-31 17:15:37,5662134,-431.000,6914.000,-3163.000,-1423.000,-254.000,1840.000,0.000,41.570,1
2026-01-31 17:15:37,5662174,-258.000,9158.000,-3903.000,66.000,206.000,1841.000,0.000,41.570,1
2026-01-31 17:15:37,5662217,1097.000,10290.000,-3424.000,87.000,1262.000,347.000,0.000,41.570,1
2026-01-31 17:15:37,5662257,1395.000,10427.000,-3889.000,1598.000,1861.000,137.000,0.000,41.570,1
2026-01-31 17:15:37,5662294,1836.000,10946.000,-3003.000,2341.000,1227.000,-760.000,0.000,41.570,1
2026-01-31 17:15:37,5662334,3288.000,9409.000,-2284.000,-479.000,548.000,-1928.000,0.000,41.570,1
2026-01-31 17:15:37,5662374,3957.000,8404.000,-2391.000,304.000,711.000,-1783.000,0.000,41.570,1
2026-01-31 17:15:37,5662414,2592.000,6508.000,-1301.000,1055.000,1048.000,-849.000,0.000,41.570,1
2026-01-31 17:15:37,5662454,776.000,4356.000,-250.000,676.000,1082.000,-440.000,0.000,41.570,1
2026-01-31 17:15:37,5662494,72.000,4017.000,-421.000,76.000,1132.000,-396.000,0.000,41.570,1
2026-01-31 17:15:37,5662537,-570.000,4318.000,-863.000,-341.000,1004.000,-625.000,0.000,41.570,1
2026-01-31 17:15:37,5662574,-1061.000,4475.000,-1274.000,-175.000,1023.000,-588.000,0.000,41.570,1
2026-01-31 17:15:37,5662614,-1100.000,7343.000,-1807.000,1467.000,167.000,-827.000,0.000,41.570,1
2026-01-31 17:15:37,5662654,-593.000,9434.000,-2319.000,1768.000,-482.000,-1150.000,0.000,41.570,1
2026-01-31 17:15:37,5662694,317.000,10465.000,-2590.000,1860.000,-1110.000,-1558.000,0.000,41.570,1
2026-01-31 17:15:38,5662734,218.000,11604.000,-2667.000,1138.000,-1315.000,-1476.000,0.000,41.570,1
2026-01-31 17:15:38,5662774,171.000,13882.000,-3919.000,1798.000,-936.000,-686.000,0.000,0.000,0
2026-01-31 17:15:38,5662814,279.000,10291.000,-3780.000,-1780.000,-609.000,-888.000,0.000,24.139,1
2026-01-31 17:15:38,5662854,466.000,9276.000,-4335.000,-1751.000,-356.000,-552.000,0.000,24.139,1
2026-01-31 17:15:38,5662894,100.000,7715.000,-3491.000,-1134.000,-108.000,-109.000,0.000,24.139,1
2026-01-31 17:15:38,5662934,-466.000,6471.000,-1927.000,-565.000,29.000,-345.000,0.000,24.139,1
2026-01-31 17:15:38,5662974,-773.000,4309.000,-904.000,-588.000,-680.000,-966.000,0.000,24.139,1
2026-01-31 17:15:38,5663014,-540.000,4760.000,-1192.000,-138.000,-383.000,-1301.000,0.000,24.139,1
2026-01-31 17:15:38,5663054,-333.000,5647.000,-1876.000,-1888.000,334.000,-1337.000,0.000,24.139,1
2026-01-31 17:15:38,5663094,-642.000,5475.000,-2376.000,-1799.000,861.000,-1716.000,0.000,24.139,1
2026-01-31 17:15:38,5663134,-1078.000,7445.000,-3460.000,-1633.000,1381.000,-1365.000,0.000,24.139,1
2026-01-31 17:15:38,5663174,-97.000,7943.000,-3998.000,-933.000,1760.000,-546.000,0.000,24.139,1
2026-01-31 17:15:38,5663214,260.000,8270.000,-3468.000,549.000,1730.000,126.000,0.000,24.139,1
2026-01-31 17:15:38,5663254,971.000,10195.000,-3603.000,1075.000,1874.000,1705.000,0.000,24.139,1
2026-01-31 17:15:38,5663294,1028.000,9794.000,-3202.000,3042.000,1041.000,3043.000,0.000,24.139,1
2026-01-31 17:15:38,5663334,1804.000,8969.000,-2529.000,2393.000,-467.000,2889.000,0.000,24.139,1
2026-01-31 17:15:38,5663374,1844.000,7669.000,-3413.000,1678.000,603.000,3770.000,0.000,24.139,1
2026-01-31 17:15:38,5663414,816.000,6630.000,-2412.000,1780.000,610.000,2765.000,0.000,24.139,1
2026-01-31 17:15:38,5663454,-124.000,4509.000,-815.000,542.000,667.000,2022.000,0.000,24.139,1
2026-01-31 17:15:38,5663494,-601.000,4540.000,-1600.000,1161.000,728.000,1336.000,0.000,24.139,1
2026-01-31 17:15:38,5663534,-1089.000,5388.000,-1032.000,1306.000,123.000,514.000,0.000,24.139,1
2026-01-31 17:15:38,5663574,-1427.000,6625.000,-835.000,901.000,215.000,356.000,0.000,24.139,1
2026-01-31 17:15:38,5663614,-810.000,7804.000,-1180.000,-984.000,-167.000,-159.000,0.000,24.139,1
2026-01-31 17:15:38,5663654,-329.000,9633.000,-1735.000,0.000,-998.000,-320.000,0.000,24.139,1
2026-01-31 17:15:38,5663694,1061.000,11180.000,-2467.000,1298.000,-2081.000,-552.000,0.000,24.139,1
2026-01-31 17:15:39,5663734,898.000,11029.000,-4677.000,-116.000,-1475.000,-962.000,0.000,24.139,1
2026-01-31 17:15:39,5663774,836.000,11700.000,-4820.000,828.000,-1516.000,-937.000,0.000,24.139,1
2026-01-31 17:15:39,5663814,835.000,8604.000,-4937.000,-2300.000,-1599.000,34.000,0.000,27.110,1
2026-01-31 17:15:39,5663854,1084.000,8781.000,-5078.000,-1889.000,-1096.000,317.000,0.000,27.110,1
2026-01-31 17:15:39,5663894,1478.000,6952.000,-3838.000,-1743.000,-423.000,238.000,0.000,27.110,1
2026-01-31 17:15:39,5663934,735.000,5008.000,-1682.000,-956.000,-860.000,718.000,0.000,27.110,1
2026-01-31 17:15:39,5663974,720.000,4015.000,-758.000,-1024.000,-1381.000,1354.000,0.000,27.110,1
2026-01-31 17:15:39,5664014,840.000,4398.000,-1533.000,-1370.000,-1416.000,1409.000,0.000,27.110,1
2026-01-31 17:15:39,5664054,758.000,4375.000,-2142.000,-1824.000,-1098.000,1734.000,0.000,27.110,1
2026-01-31 17:15:39,5664094,681.000,5484.000,-2995.000,-1050.000,-63.000,1763.000,0.000,27.110,1
2026-01-31 17:15:39,5664134,-18.000,8702.000,-4137.000,1485.000,976.000,1714.000,0.000,27.110,1
2026-01-31 17:15:39,5664174,334.000,9027.000,-3640.000,2085.000,1456.000,1360.000,0.000,27.110,1
2026-01-31 17:15:39,5664214,1189.000,10671.000,-3253.000,2522.000,1624.000,606.000,0.000,27.110,1
2026-01-31 17:15:39,5664254,1426.000,11526.000,-3791.000,745.000,2583.000,149.000,0.000,27.110,1
2026-01-31 17:15:39,5664294,2676.000,10510.000,-2470.000,473.000,1187.000,-1764.000,0.000,27.110,1
2026-01-31 17:15:39,5664334,4021.000,8656.000,-2775.000,-2254.000,127.000,-2005.000,0.000,27.110,1
2026-01-31 17:15:39,5664374,3636.000,7725.000,-3454.000,-915.000,1006.000,-2122.000,0.000,27.110,1
2026-01-31 17:15:39,5664414,1720.000,5003.000,-2129.000,-118.000,957.000,-1291.000,0.000,27.110,1
2026-01-31 17:15:39,5664454,351.000,3789.000,-872.000,988.000,174.000,-862.000,0.000,27.110,1
2026-01-31 17:15:39,5664494,-5.000,4070.000,-1019.000,1261.000,-216.000,-468.000,0.000,27.110,1
2026-01-31 17:15:39,5664537,-492.000,4562.000,-1488.000,-250.000,-241.000,-579.000,0.000,27.110,1
2026-01-31 17:15:39,5664576,-595.000,5687.000,-1704.000,-62.000,-244.000,-441.000,0.000,27.110,1
2026-01-31 17:15:39,5664614,-223.000,7963.000,-2036.000,605.000,-671.000,-311.000,0.000,27.110,1
2026-01-31 17:15:39,5664654,545.000,9823.000,-1964.000,1213.000,-1680.000,-176.000,0.000,27.110,1
2026-01-31 17:15:39,5664694,1423.000,11788.000,-1329.000,437.000,-2575.000,-60.000,0.000,27.110,1
2026-01-31 17:15:40,5664734,343.000,11399.000,-2624.000,-831.000,-1411.000,-1112.000,0.000,27.110,1
2026-01-31 17:15:40,5664774,177.000,12031.000,-4246.000,956.000,-1406.000,-1181.000,0.000,27.110,1
2026-01-31 17:15:40,5664814,473.000,8422.000,-4720.000,-1326.000,-1515.000,-256.000,0.000,-6.070,1
2026-01-31 17:15:40,5664854,1196.000,8811.000,-5512.000,-1161.000,-502.000,91.000,0.000,-6.070,1
2026-01-31 17:15:40,5664894,1492.000,6969.000,-4282.000,-881.000,488.000,1117.000,0.000,-6.070,1
2026-01-31 17:15:40,5664934,1263.000,5075.000,-1844.000,3.000,104.000,1294.000,0.000,-6.070,1
2026-01-31 17:15:40,5664974,1276.000,4065.000,-888.000,14.000,-324.000,1524.000,0.000,-6.070,1
2026-01-31 17:15:40,5665014,915.000,4403.000,-937.000,-385.000,-166.000,1310.000,0.000,-6.070,1
2026-01-31 17:15:40,5665054,229.000,4990.000,-1774.000,-845.000,666.000,1271.000,0.000,-6.070,1
2026-01-31 17:15:40,5665094,-127.000,5822.000,-2416.000,-588.000,1245.000,1163.000,0.000,-6.070,1
2026-01-31 17:15:40,5665134,-611.000,7550.000,-3440.000,-82.000,1685.000,1528.000,0.000,-6.070,1
2026-01-31 17:15:40,5665174,-651.000,9672.000,-3869.000,951.000,1522.000,1544.000,0.000,-6.070,1
2026-01-31 17:15:40,5665214,-62.000,10021.000,-3534.000,832.000,1340.000,1126.000,0.000,-6.070,1
2026-01-31 17:15:40,5665254,1568.000,10565.000,-3851.000,-139.000,1351.000,-116.000,0.000,-6.070,1
2026-01-31 17:15:40,5665294,2381.000,10221.000,-3657.000,-325.000,924.000,-1337.000,0.000,-6.070,1
2026-01-31 17:15:40,5665334,3625.000,8177.000,-2368.000,-1162.000,14.000,-2566.000,0.000,-6.070,1
2026-01-31 17:15:40,5665374,4429.000,7115.000,-2508.000,-824.000,268.000,-2158.000,0.000,-6.070,1
2026-01-31 17:15:40,5665414,2644.000,6776.000,-2077.000,1917.000,909.000,-1254.000,0.000,-6.070,1
2026-01-31 17:15:40,5665454,1175.000,4951.000,-602.000,1252.000,852.000,-733.000,0.000,-6.070,1
2026-01-31 17:15:40,5665494,68.000,3916.000,-474.000,533.000,851.000,-497.000,0.000,-6.070,1
2026-01-31 17:15:40,5665534,-304.000,4741.000,-992.000,414.000,746.000,-321.000,0.000,-6.070,1
2026-01-31 17:15:40,5665574,-148.000,4923.000,-1301.000,-344.000,594.000,-570.000,0.000,-6.070,1
2026-01-31 17:15:40,5665614,-507.000,5309.000,-1460.000,2298.000,-175.000,-889.000,0.000,-6.070,1
2026-01-31 17:15:40,5665654,-398.000,9984.000,-2307.000,5250.000,-2461.000,-865.000,0.000,-6.070,1
2026-01-31 17:15:40,5665694,-18.000,10826.000,-2827.000,2989.000,-1931.000,-1359.000,0.000,-6.070,1
2026-01-31 17:15:41,5665734,222.000,10899.000,-3271.000,174.000,-872.000,-2105.000,0.000,-6.070,1
2026-01-31 17:15:41,5665774,89.000,10563.000,-4347.000,-968.000,471.000,-2095.000,0.000,-6.070,1
2026-01-31 17:15:41,5665814,300.000,9596.000,-5287.000,-558.000,87.000,-992.000,0.000,0.000,1
2026-01-31 17:15:41,5665854,675.000,8075.000,-5580.000,-1942.000,-108.000,35.000,0.000,0.000,1
2026-01-31 17:15:41,5665894,1122.000,8676.000,-6004.000,-1066.000,229.000,1148.000,0.000,0.000,1
2026-01-31 17:15:41,5665934,827.000,6983.000,-4329.000,-837.000,559.000,1801.000,0.000,0.000,1
2026-01-31 17:15:41,5665974,681.000,5476.000,-2052.000,-714.000,-17.000,1927.000,0.000,0.000,1
2026-01-31 17:15:41,5666014,706.000,4464.000,-1000.000,-1372.000,-423.000,2033.000,0.000,0.000,1
2026-01-31 17:15:41,5666054,466.000,5052.000,-1048.000,-2758.000,14.000,1475.000,0.000,0.000,1
2026-01-31 17:15:41,5666094,-46.000,5518.000,-2116.000,-3303.000,971.000,1073.000,0.000,0.000,1
2026-01-31 17:15:41,5666134,-694.000,7001.000,-2914.000,-3330.000,1400.000,1142.000,0.000,0.000,1
2026-01-31 17:15:41,5666174,285.000,9061.000,-3180.000,-2258.000,1231.000,1140.000,0.000,0.000,1
2026-01-31 17:15:41,5666217,120.000,10620.000,-2413.000,-1725.000,1710.000,723.000,0.000,0.000,1
2026-01-31 17:15:41,5666257,875.000,11209.000,-1957.000,-2556.000,1405.000,497.000,0.000,0.000,1
2026-01-31 17:15:41,5666294,464.000,10943.000,-2022.000,-2514.000,1468.000,767.000,0.000,0.000,1
2026-01-31 17:15:41,5666334,1689.000,11770.000,-743.000,-1227.000,-630.000,-353.000,0.000,0.000,1
2026-01-31 17:15:41,5666374,2990.000,10266.000,258.000,-5448.000,-1541.000,-1718.000,0.000,0.000,1
2026-01-31 17:15:41,5666414,3295.000,6520.000,-910.000,-6020.000,-192.000,-1187.000,0.000,0.000,1
2026-01-31 17:15:41,5666454,2030.000,5698.000,459.000,-3567.000,-408.000,-1166.000,0.000,0.000,1
2026-01-31 17:15:41,5666494,1163.000,3857.000,636.000,-3635.000,-103.000,-1001.000,0.000,0.000,1
2026-01-31 17:15:41,5666538,667.000,3281.000,742.000,-2011.000,-454.000,-527.000,0.000,0.000,1
2026-01-31 17:15:41,5666574,685.000,3612.000,1226.000,-856.000,-647.000,-357.000,0.000,0.000,1
2026-01-31 17:15:41,5666614,598.000,4875.000,1183.000,892.000,-459.000,-180.000,0.000,0.000,1
2026-01-31 17:15:41,5666654,998.000,6578.000,1214.000,2897.000,-35.000,-442.000,0.000,0.000,1
2026-01-31 17:15:41,5666694,399.000,9142.000,933.000,5454.000,615.000,-1076.000,0.000,0.000,1
2026-01-31 17:15:42,5666734,664.000,10636.000,880.000,5410.000,615.000,-1559.000,0.000,0.000,1
2026-01-31 17:15:42,5666774,310.000,11394.000,144.000,3615.000,987.000,-1924.000,0.000,0.000,1
2026-01-31 17:15:42,5666814,449.000,13475.000,-1278.000,3481.000,1747.000,-467.000,0.000,16.730,1
2026-01-31 17:15:42,5666854,1022.000,11015.000,-724.000,1114.000,674.000,-430.000,0.000,16.730,1
2026-01-31 17:15:42,5666894,438.000,8803.000,-1165.000,-354.000,632.000,532.000,0.000,16.730,1
2026-01-31 17:15:42,5666934,770.000,9004.000,-1802.000,623.000,645.000,1288.000,0.000,16.730,1
2026-01-31 17:15:42,5666974,833.000,6951.000,-1101.000,303.000,520.000,1389.000,0.000,16.730,1
2026-01-31 17:15:42,5667014,695.000,4642.000,-415.000,-460.000,290.000,1330.000,0.000,16.730,1
2026-01-31 17:15:42,5667054,543.000,4051.000,-695.000,301.000,529.000,1272.000,0.000,16.730,1
2026-01-31 17:15:42,5667094,336.000,4947.000,-889.000,1587.000,928.000,1057.000,0.000,16.730,1
2026-01-31 17:15:42,5667134,-26.000,5927.000,-1370.000,1640.000,1621.000,1390.000,0.000,16.730,1
2026-01-31 17:15:42,5667174,-1011.000,8840.000,-2284.000,2522.000,2030.000,1615.000,0.000,16.730,1
2026-01-31 17:15:42,5667214,-636.000,10705.000,-2603.000,2612.000,1523.000,1482.000,0.000,16.730,1
2026-01-31 17:15:42,5667254,-66.000,10135.000,-2859.000,1189.000,1349.000,804.000,0.000,16.730,1
2026-01-31 17:15:42,5667294,1290.000,11193.000,-2517.000,1891.000,599.000,24.000,0.000,16.730,1
2026-01-31 17:15:42,5667334,1985.000,10552.000,-3300.000,1152.000,842.000,207.000,0.000,16.730,1
2026-01-31 17:15:42,5667374,3387.000,9499.000,-1854.000,937.000,-564.000,-1301.000,0.000,16.730,1
2026-01-31 17:15:42,5667414,4349.000,7183.000,-2179.000,-1860.000,-439.000,-1882.000,0.000,16.730,1
2026-01-31 17:15:42,5667454,4154.000,6971.000,-2377.000,43.000,514.000,-1569.000,0.000,16.730,1
2026-01-31 17:15:42,5667494,1927.000,5026.000,-998.000,1110.000,1091.000,-951.000,0.000,16.730,1
2026-01-31 17:15:42,5667534,257.000,4340.000,-682.000,1183.000,1013.000,-408.000,0.000,16.730,1
2026-01-31 17:15:42,5667574,235.000,5147.000,-833.000,864.000,810.000,-408.000,0.000,16.730,1
2026-01-31 17:15:42,5667614,-645.000,4924.000,-863.000,436.000,919.000,-415.000,0.000,16.730,1
2026-01-31 17:15:42,5667654,-410.000,6728.000,-1314.000,1433.000,122.000,-509.000,0.000,16.730,1
2026-01-31 17:15:42,5667694,-500.000,8063.000,-2130.000,1517.000,-837.000,-543.000,0.000,16.730,1
2026-01-31 17:15:43,5667734,-48.000,9316.000,-2308.000,2327.000,-1745.000,-794.000,0.000,16.730,1
2026-01-31 17:15:43,5667774,36.000,10033.000,-2752.000,2164.000,-2143.000,-1063.000,0.000,16.730,1
2026-01-31 17:15:43,5667814,-84.000,11056.000,-3384.000,814.000,-2443.000,-618.000,0.000,-5.910,1
2026-01-31 17:15:43,5667854,744.000,12458.000,-4255.000,1457.000,-2639.000,17.000,0.000,-5.910,1
2026-01-31 17:15:43,5667894,186.000,9640.000,-4237.000,-1261.000,-2152.000,423.000,0.000,-5.910,1
2026-01-31 17:15:43,5667934,857.000,8167.000,-4991.000,-1913.000,-1680.000,859.000,0.000,-5.910,1
2026-01-31 17:15:43,5667974,713.000,6465.000,-4048.000,-1878.000,-1105.000,1282.000,0.000,-5.910,1
2026-01-31 17:15:43,5668014,677.000,5318.000,-2749.000,-1230.000,-941.000,1327.000,0.000,-5.910,1
2026-01-31 17:15:43,5668054,859.000,3867.000,-1699.000,-1450.000,-1051.000,1109.000,0.000,-5.910,1
2026-01-31 17:15:43,5668094,388.000,4319.000,-1585.000,-944.000,-574.000,937.000,0.000,-5.910,1
2026-01-31 17:15:43,5668134,124.000,5227.000,-2189.000,-648.000,350.000,962.000,0.000,-5.910,1
2026-01-31 17:15:43,5668174,-339.000,5998.000,-3375.000,-587.000,1091.000,930.000,0.000,-5.910,1
2026-01-31 17:15:43,5668217,-801.000,9238.000,-4015.000,1119.000,708.000,1619.000,0.000,-5.910,1
2026-01-31 17:15:43,5668257,-313.000,9745.000,-4243.000,789.000,742.000,1215.000,0.000,-5.910,1
2026-01-31 17:15:43,5668294,-216.000,9626.000,-3525.000,874.000,583.000,805.000,0.000,-5.910,1
2026-01-31 17:15:43,5668334,605.000,10114.000,-3927.000,879.000,508.000,654.000,0.000,-5.910,1
2026-01-31 17:15:43,5668374,1727.000,10512.000,-2526.000,1637.000,-956.000,-408.000,0.000,-5.910,1
2026-01-31 17:15:43,5668414,2410.000,8490.000,-2034.000,-1784.000,-1671.000,-1008.000,0.000,-5.910,1
2026-01-31 17:15:43,5668454,2790.000,7587.000,-3335.000,-1696.000,-1347.000,-564.000,0.000,-5.910,1
2026-01-31 17:15:43,5668494,1625.000,5860.000,-2453.000,-175.000,-1018.000,119.000,0.000,-5.910,1
2026-01-31 17:15:43,5668537,311.000,3884.000,-1333.000,437.000,-1257.000,556.000,0.000,-5.910,1
2026-01-31 17:15:43,5668574,288.000,4274.000,-1195.000,789.000,-1080.000,517.000,0.000,-5.910,1
2026-01-31 17:15:43,5668614,-25.000,4697.000,-1765.000,-287.000,-650.000,278.000,0.000,-5.910,1
2026-01-31 17:15:43,5668654,-446.000,4977.000,-2200.000,-347.000,-553.000,77.000,0.000,-5.910,1
2026-01-31 17:15:43,5668694,-301.000,7159.000,-2983.000,1022.000,-976.000,-383.000,0.000,-5.910,1
2026-01-31 17:15:44,5668734,148.000,9133.000,-3629.000,1225.000,-1436.000,-622.000,0.000,-5.910,1
2026-01-31 17:15:44,5668774,566.000,9690.000,-2820.000,1764.000,-2143.000,-1225.000,0.000,-5.910,1
2026-01-31 17:15:44,5668814,743.000,10263.000,-2400.000,237.000,-2187.000,-1135.000,0.000,4.090,1
2026-01-31 17:15:44,5668854,36.000,11825.000,-3607.000,1503.000,-1787.000,-983.000,0.000,4.090,1
2026-01-31 17:15:44,5668894,173.000,10286.000,-4374.000,226.000,-2336.000,443.000,0.000,4.090,1
2026-01-31 17:15:44,5668934,1187.000,8577.000,-5164.000,-577.000,-1317.000,666.000,0.000,4.090,1
2026-01-31 17:15:44,5668974,1104.000,8286.000,-4941.000,-529.000,-393.000,1157.000,0.000,4.090,1
2026-01-31 17:15:44,5669014,668.000,6469.000,-3552.000,330.000,-407.000,1615.000,0.000,4.090,1
2026-01-31 17:15:44,5669054,595.000,4930.000,-2050.000,1.000,-865.000,1736.000,0.000,4.090,1
2026-01-31 17:15:44,5669094,266.000,4100.000,-1812.000,-545.000,-844.000,1200.000,0.000,4.090,1
2026-01-31 17:15:44,5669134,48.000,4491.000,-2362.000,-842.000,-402.000,850.000,0.000,4.090,1
2026-01-31 17:15:44,5669174,90.000,5753.000,-2890.000,-694.000,40.000,601.000,0.000,4.090,1
2026-01-31 17:15:44,5669214,170.000,6976.000,-3446.000,-389.000,519.000,516.000,0.000,4.090,1
2026-01-31 17:15:44,5669254,312.000,8525.000,-4080.000,-81.000,1110.000,574.000,0.000,4.090,1
2026-01-31 17:15:44,5669294,1117.000,9842.000,-4918.000,88.000,1976.000,553.000,0.000,4.090,1
2026-01-31 17:15:44,5669334,1216.000,9651.000,-3833.000,389.000,2399.000,145.000,0.000,4.090,1
2026-01-31 17:15:44,5669374,1947.000,10304.000,-4544.000,124.000,3134.000,305.000,0.000,4.090,1
2026-01-31 17:15:44,5669414,2216.000,10208.000,-4817.000,2326.000,3133.000,385.000,0.000,4.090,1
2026-01-31 17:15:44,5669454,4420.000,7908.000,-3066.000,-450.000,769.000,-1274.000,0.000,4.090,1
2026-01-31 17:15:44,5669494,5027.000,7064.000,-2720.000,310.000,1268.000,-1220.000,0.000,4.090,1
2026-01-31 17:15:44,5669534,3136.000,5330.000,-1460.000,982.000,1925.000,-1135.000,0.000,4.090,1
2026-01-31 17:15:44,5669574,1352.000,4909.000,-1007.000,749.000,2308.000,-843.000,0.000,4.090,1
2026-01-31 17:15:44,5669614,619.000,5311.000,-1251.000,-178.000,2812.000,-790.000,0.000,4.090,1
2026-01-31 17:15:44,5669654,441.000,5221.000,-1760.000,-836.000,3000.000,-865.000,0.000,4.090,1
2026-01-31 17:15:44,5669694,349.000,6137.000,-1882.000,-312.000,2750.000,-685.000,0.000,4.090,1
2026-01-31 17:15:45,5669734,664.000,7597.000,-2432.000,205.000,2658.000,-392.000,0.000,4.090,1
2026-01-31 17:15:45,5669774,454.000,8637.000,-2372.000,890.000,2194.000,-123.000,0.000,4.090,1
2026-01-31 17:15:45,5669814,-222.000,8397.000,-1572.000,1252.000,799.000,-270.000,0.000,-11.680,1
2026-01-31 17:15:45,5669854,738.000,9558.000,-3405.000,626.000,-552.000,-311.000,0.000,-11.680,1
2026-01-31 17:15:45,5669894,1568.000,9258.000,-3683.000,602.000,-854.000,-312.000,0.000,-11.680,1
2026-01-31 17:15:45,5669934,910.000,7065.000,-2097.000,-397.000,-1460.000,-86.000,0.000,-11.680,1
2026-01-31 17:15:45,5669974,1033.000,7677.000,-2982.000,-792.000,-1261.000,-79.000,0.000,-11.680,1
2026-01-31 17:15:45,5670014,1445.000,7050.000,-3547.000,-1989.000,-713.000,-160.000,0.000,-11.680,1
2026-01-31 17:15:45,5670054,906.000,5785.000,-2409.000,-1255.000,-718.000,-175.000,0.000,-11.680,1
2026-01-31 17:15:45,5670094,772.000,5906.000,-1915.000,-851.000,-760.000,-202.000,0.000,-11.680,1
2026-01-31 17:15:45,5670134,517.000,5469.000,-1774.000,-1282.000,-530.000,-209.000,0.000,-11.680,1
2026-01-31 17:15:45,5670174,227.000,4799.000,-1509.000,-1427.000,-159.000,-245.000,0.000,-11.680,1
2026-01-31 17:15:45,5670214,-255.000,4952.000,-1758.000,-1112.000,341.000,-158.000,0.000,-11.680,1
2026-01-31 17:15:45,5670254,361.000,5477.000,-2118.000,-1089.000,665.000,-315.000,0.000,-11.680,1
2026-01-31 17:15:45,5670294,1766.000,8345.000,-3772.000,-1099.000,991.000,-882.000,0.000,-11.680,1
2026-01-31 17:15:45,5670334,2884.000,10627.000,-9312.000,510.000,2563.000,119.000,0.000,-11.680,1
2026-01-31 17:15:45,5670374,7262.000,14791.000,-6426.000,6835.000,-2383.000,-1250.000,0.000,-11.680,1
2026-01-31 17:15:45,5670414,6780.000,11151.000,-4384.000,2092.000,-305.000,-1008.000,0.000,-11.680,1
2026-01-31 17:15:45,5670454,3848.000,10851.000,-2786.000,1963.000,2539.000,-1204.000,0.000,-11.680,1
2026-01-31 17:15:45,5670494,760.000,8574.000,-1236.000,151.000,3020.000,-1157.000,0.000,-11.680,1
2026-01-31 17:15:45,5670534,237.000,7060.000,-1282.000,-838.000,2470.000,-727.000,0.000,-11.680,1
2026-01-31 17:15:45,5670574,359.000,5380.000,-1350.000,-2277.000,2215.000,-714.000,0.000,-11.680,1
2026-01-31 17:15:45,5670614,556.000,4158.000,-1680.000,-2006.000,1853.000,-901.000,0.000,-11.680,1
2026-01-31 17:15:45,5670654,1047.000,5239.000,-2147.000,-1238.000,1783.000,-713.000,0.000,-11.680,1
2026-01-31 17:15:45,5670694,1053.000,6286.000,-2747.000,-1.000,1969.000,-134.000,0.000,-11.680,1
2026-01-31 17:15:46,5670734,549.000,7625.000,-2311.000,1380.000,1622.000,465.000,0.000,-11.680,1
2026-01-31 17:15:46,5670774,742.000,9560.000,-1318.000,1814.000,808.000,816.000,0.000,-11.680,1
2026-01-31 17:15:46,5670814,759.000,9492.000,-1069.000,476.000,196.000,495.000,0.000,20.930,1
2026-01-31 17:15:46,5670854,977.000,9144.000,-1613.000,-742.000,-1.000,58.000,0.000,20.930,1
2026-01-31 17:15:46,5670894,1247.000,8499.000,-2032.000,-1056.000,218.000,-496.000,0.000,20.930,1
2026-01-31 17:15:46,5670934,994.000,7931.000,-2428.000,-753.000,435.000,-730.000,0.000,20.930,1
2026-01-31 17:15:46,5670974,661.000,8284.000,-2995.000,265.000,361.000,-203.000,0.000,20.930,1
2026-01-31 17:15:46,5671014,65.000,8063.000,-2380.000,833.000,-200.000,235.000,0.000,20.930,1
2026-01-31 17:15:46,5671054,-641.000,6909.000,-2429.000,-254.000,-562.000,411.000,0.000,20.930,1
2026-01-31 17:15:46,5671094,-972.000,7642.000,-3436.000,-804.000,-795.000,812.000,0.000,20.930,1
2026-01-31 17:15:46,5671134,-1142.000,7311.000,-3624.000,-1005.000,-1011.000,1084.000,0.000,20.930,1
2026-01-31 17:15:46,5671174,-1261.000,6827.000,-3010.000,-389.000,-1561.000,1113.000,0.000,20.930,1
2026-01-31 17:15:46,5671214,-942.000,6642.000,-2511.000,-96.000,-2349.000,1092.000,0.000,20.930,1
2026-01-31 17:15:46,5671254,-150.000,6193.000,-2285.000,-214.000,-2717.000,951.000,0.000,20.930,1
2026-01-31 17:15:46,5671294,60.000,5244.000,-2103.000,-440.000,-2486.000,689.000,0.000,20.930,1
2026-01-31 17:15:46,5671334,565.000,5911.000,-2267.000,-155.000,-2078.000,285.000,0.000,20.930,1
2026-01-31 17:15:46,5671374,624.000,6484.000,-2548.000,-493.000,-762.000,-85.000,0.000,20.930,1
2026-01-31 17:15:46,5671414,964.000,7649.000,-2359.000,-48.000,-430.000,-317.000,0.000,20.930,1
2026-01-31 17:15:46,5671454,2128.000,9280.000,-3261.000,-602.000,368.000,-714.000,0.000,20.930,1
2026-01-31 17:15:46,5671494,2247.000,11658.000,-5774.000,1294.000,2191.000,-396.000,0.000,20.930,1
2026-01-31 17:15:46,5671534,3528.000,11717.000,-2600.000,3002.000,1114.000,-1441.000,0.000,20.930,1
2026-01-31 17:15:46,5671574,3621.000,7673.000,-2460.000,-107.000,620.000,-913.000,0.000,20.930,1
2026-01-31 17:15:46,5671614,2728.000,9141.000,-2250.000,2921.000,1190.000,-770.000,0.000,20.930,1
2026-01-31 17:15:46,5671654,709.000,5753.000,-1196.000,145.000,1560.000,-773.000,0.000,20.930,1
2026-01-31 17:15:46,5671694,-147.000,4773.000,-969.000,687.000,1457.000,-914.000,0.000,20.930,1
2026-01-31 17:15:47,5671734,-654.000,5145.000,-1207.000,41.000,1255.000,-1204.000,0.000,20.930,1
2026-01-31 17:15:47,5671774,-410.000,6145.000,-1722.000,-136.000,1010.000,-1240.000,0.000,20.930,1
2026-01-31 17:15:47,5671814,-239.000,6715.000,-2035.000,305.000,710.000,-852.000,0.000,-16.690,1
2026-01-31 17:15:47,5671854,-51.000,7914.000,-2125.000,1715.000,-87.000,-784.000,0.000,-16.690,1
2026-01-31 17:15:47,5671894,301.000,8874.000,-2114.000,1470.000,-944.000,-1041.000,0.000,-16.690,1
2026-01-31 17:15:47,5671934,107.000,9165.000,-2908.000,446.000,-1015.000,-1828.000,0.000,-16.690,1
2026-01-31 17:15:47,5671974,429.000,11146.000,-6111.000,105.000,-193.000,-1878.000,0.000,-16.690,1
2026-01-31 17:15:47,5672014,1271.000,11208.000,-6597.000,638.000,617.000,-738.000,0.000,-16.690,1
2026-01-31 17:15:47,5672054,969.000,9879.000,-2860.000,177.000,-105.000,-363.000,0.000,-16.690,1
2026-01-31 17:15:47,5672094,385.000,6214.000,-2841.000,-1285.000,-354.000,406.000,0.000,-16.690,1
2026-01-31 17:15:47,5672134,146.000,5801.000,-3174.000,-1449.000,0.000,639.000,0.000,-16.690,1
2026-01-31 17:15:47,5672174,-515.000,4749.000,-2974.000,-859.000,471.000,604.000,0.000,-16.690,1
2026-01-31 17:15:47,5672214,-564.000,5424.000,-2701.000,64.000,472.000,433.000,0.000,-16.690,1
2026-01-31 17:15:47,5672254,-722.000,5770.000,-3014.000,295.000,707.000,296.000,0.000,-16.690,1
2026-01-31 17:15:47,5672294,-1009.000,6475.000,-2707.000,609.000,865.000,133.000,0.000,-16.690,1
2026-01-31 17:15:47,5672334,-1066.000,7146.000,-2378.000,790.000,805.000,270.000,0.000,-16.690,1
2026-01-31 17:15:47,5672374,-1355.000,8257.000,-2295.000,318.000,706.000,414.000,0.000,-16.690,1
2026-01-31 17:15:47,5672414,-1337.000,8715.000,-2626.000,-602.000,212.000,621.000,0.000,-16.690,1
2026-01-31 17:15:47,5672454,-530.000,9515.000,-3146.000,-1411.000,-18.000,877.000,0.000,-16.690,1
2026-01-31 17:15:47,5672494,480.000,9899.000,-3767.000,-2309.000,357.000,1029.000,0.000,-16.690,1
2026-01-31 17:15:47,5672537,1836.000,11018.000,-4777.000,-776.000,968.000,1395.000,0.000,-16.690,1
2026-01-31 17:15:47,5672574,1849.000,9584.000,-3610.000,-468.000,708.000,806.000,0.000,-16.690,1
2026-01-31 17:15:47,5672614,2360.000,6456.000,-2629.000,-1925.000,-70.000,-440.000,0.000,-16.690,1
2026-01-31 17:15:47,5672654,3577.000,6866.000,-3676.000,-1821.000,627.000,-1137.000,0.000,-16.690,1
2026-01-31 17:15:47,5672694,3178.000,5847.000,-2836.000,22.000,1292.000,-709.000,0.000,-16.690,1
2026-01-31 17:15:48,5672734,1372.000,5702.000,-1364.000,1499.000,983.000,27.000,0.000,-16.690,1
2026-01-31 17:15:48,5672774,743.000,5937.000,-1517.000,1213.000,772.000,398.000,0.000,-16.690,1
2026-01-31 17:15:48,5672814,301.000,6203.000,-1150.000,914.000,515.000,263.000,0.000,0.000,1
2026-01-31 17:15:48,5672854,-680.000,5441.000,-1380.000,73.000,636.000,111.000,0.000,0.000,1
2026-01-31 17:15:48,5672894,62.000,7516.000,-2180.000,658.000,115.000,-41.000,0.000,0.000,1
2026-01-31 17:15:48,5672934,102.000,7732.000,-1931.000,494.000,-186.000,65.000,0.000,0.000,1
2026-01-31 17:15:48,5672974,118.000,7938.000,-1705.000,885.000,-662.000,195.000,0.000,0.000,1
2026-01-31 17:15:48,5673014,-25.000,8482.000,-1865.000,532.000,-1303.000,224.000,0.000,0.000,1
2026-01-31 17:15:48,5673054,175.000,9007.000,-1834.000,-230.000,-1736.000,-163.000,0.000,0.000,1
2026-01-31 17:15:48,5673094,299.000,8771.000,-2732.000,-1015.000,-1350.000,-570.000,0.000,0.000,1
2026-01-31 17:15:48,5673134,326.000,9530.000,-4091.000,643.000,-1487.000,-265.000,0.000,0.000,1
2026-01-31 17:15:48,5673174,1371.000,11272.000,-4167.000,1052.000,-1502.000,-408.000,0.000,0.000,1
2026-01-31 17:15:48,5673214,1359.000,8534.000,-3015.000,-789.000,-1282.000,-342.000,0.000,0.000,1
2026-01-31 17:15:48,5673254,628.000,6550.000,-3444.000,-1236.000,-849.000,-653.000,0.000,0.000,1
2026-01-31 17:15:48,5673294,262.000,6519.000,-3792.000,-1658.000,-414.000,2.000,0.000,0.000,1
2026-01-31 17:15:48,5673334,-236.000,6112.000,-3048.000,-1147.000,-441.000,672.000,0.000,0.000,1
2026-01-31 17:15:48,5673374,-259.000,6503.000,-2674.000,-428.000,-874.000,1310.000,0.000,0.000,1
2026-01-31 17:15:48,5673414,-283.000,6867.000,-2455.000,-484.000,-1358.000,1497.000,0.000,0.000,1
2026-01-31 17:15:48,5673454,-627.000,5989.000,-2214.000,-1081.000,-1589.000,1391.000,0.000,0.000,1
2026-01-31 17:15:48,5673494,-723.000,6096.000,-2354.000,-600.000,-1577.000,1185.000,0.000,0.000,1
2026-01-31 17:15:48,5673534,-399.000,6441.000,-2342.000,-462.000,-1685.000,932.000,0.000,0.000,1
2026-01-31 17:15:48,5673574,-49.000,6538.000,-2304.000,-450.000,-1418.000,654.000,0.000,0.000,1
2026-01-31 17:15:48,5673614,844.000,7536.000,-2613.000,-113.000,-898.000,489.000,0.000,0.000,1
2026-01-31 17:15:48,5673654,733.000,7981.000,-2130.000,412.000,-87.000,297.000,0.000,0.000,1
2026-01-31 17:15:48,5673694,1465.000,9906.000,-3272.000,112.000,757.000,472.000,0.000,0.000,1
2026-01-31 17:15:49,5673734,1986.000,9827.000,-3725.000,1013.000,978.000,478.000,0.000,0.000,1
2026-01-31 17:15:49,5673774,2552.000,8965.000,-2521.000,866.000,418.000,-445.000,0.000,0.000,1
2026-01-31 17:15:49,5673814,3355.000,8135.000,-2877.000,-211.000,777.000,-800.000,0.000,0.000,1
2026-01-31 17:15:49,5673854,2602.000,8018.000,-2322.000,1315.000,1606.000,-595.000,0.000,0.000,1
2026-01-31 17:15:49,5673894,971.000,7038.000,-1388.000,1329.000,1761.000,-216.000,0.000,0.000,1
2026-01-31 17:15:49,5673934,459.000,6819.000,-1370.000,1193.000,1468.000,-68.000,0.000,0.000,1
2026-01-31 17:15:49,5673974,258.000,6369.000,-1344.000,464.000,1358.000,-110.000,0.000,0.000,1
2026-01-31 17:15:49,5674014,215.000,6313.000,-1629.000,533.000,1064.000,81.000,0.000,0.000,1
2026-01-31 17:15:49,5674054,440.000,7353.000,-1892.000,966.000,593.000,540.000,0.000,0.000,1
2026-01-31 17:15:49,5674094,395.000,8322.000,-1700.000,759.000,41.000,595.000,0.000,0.000,1
2026-01-31 17:15:49,5674134,309.000,8781.000,-1924.000,423.000,-608.000,400.000,0.000,0.000,1
2026-01-31 17:15:49,5674174,177.000,9112.000,-2368.000,143.000,-1042.000,-53.000,0.000,0.000,1
2026-01-31 17:15:49,5674214,387.000,9435.000,-3404.000,132.000,-954.000,-371.000,0.000,0.000,1
2026-01-31 17:15:49,5674257,573.000,9676.000,-3690.000,757.000,-1160.000,-179.000,0.000,0.000,1
2026-01-31 17:15:49,5674297,742.000,8772.000,-2629.000,652.000,-2089.000,29.000,0.000,0.000,1
2026-01-31 17:15:49,5674334,586.000,7451.000,-2363.000,-32.000,-2415.000,-30.000,0.000,0.000,1
2026-01-31 17:15:49,5674374,83.000,6676.000,-2973.000,-898.000,-2437.000,93.000,0.000,0.000,1
2026-01-31 17:15:49,5674414,340.000,6767.000,-4066.000,-1714.000,-1698.000,683.000,0.000,0.000,1
2026-01-31 17:15:49,5674454,-73.000,6147.000,-3654.000,-658.000,-960.000,911.000,0.000,0.000,1
2026-01-31 17:15:49,5674494,-323.000,6621.000,-2847.000,449.000,-725.000,929.000,0.000,0.000,1
2026-01-31 17:15:49,5674537,-431.000,5876.000,-1613.000,273.000,-960.000,793.000,0.000,0.000,1
2026-01-31 17:15:49,5674574,-455.000,5905.000,-1475.000,215.000,-1024.000,716.000,0.000,0.000,1
2026-01-31 17:15:49,5674614,-341.000,6078.000,-1119.000,-226.000,-1022.000,476.000,0.000,0.000,1
2026-01-31 17:15:49,5674654,-397.000,5951.000,-1434.000,-901.000,-715.000,355.000,0.000,0.000,1
2026-01-31 17:15:49,5674694,-640.000,6852.000,-2048.000,-826.000,-422.000,443.000,0.000,0.000,1
2026-01-31 17:15:50,5674734,-611.000,7361.000,-2438.000,-1110.000,-305.000,611.000,0.000,0.000,1
2026-01-31 17:15:50,5674774,191.000,8346.000,-1990.000,-851.000,19.000,485.000,0.000,0.000,1
2026-01-31 17:15:50,5674814,1672.000,10707.000,-4606.000,-1399.000,1981.000,-201.000,0.000,0.000,1
2026-01-31 17:15:50,5674854,3461.000,12349.000,-6318.000,1318.000,1791.000,0.000,0.000,0.000,1
2026-01-31 17:15:50,5674894,3186.000,9699.000,-2690.000,32.000,398.000,-918.000,0.000,0.000,1
2026-01-31 17:15:50,5674934,3448.000,7550.000,-3083.000,-416.000,552.000,-567.000,0.000,0.000,1
2026-01-31 17:15:50,5674974,1161.000,7275.000,-1851.000,2071.000,1034.000,-528.000,0.000,0.000,1
2026-01-31 17:15:50,5675014,-767.000,5023.000,-545.000,835.000,711.000,-304.000,0.000,0.000,1
2026-01-31 17:15:50,5675054,-989.000,5007.000,-453.000,1166.000,23.000,-245.000,0.000,0.000,1
2026-01-31 17:15:50,5675094,-716.000,5501.000,-563.000,-42.000,-424.000,-284.000,0.000,0.000,1
2026-01-31 17:15:50,5675134,-775.000,5406.000,-800.000,-871.000,-622.000,-262.000,0.000,0.000,1
2026-01-31 17:15:50,5675174,-130.000,7940.000,-1307.000,-730.000,-998.000,-491.000,0.000,0.000,1
2026-01-31 17:15:50,5675214,-547.000,7985.000,-1374.000,-290.000,-1169.000,-725.000,0.000,0.000,1
2026-01-31 17:15:50,5675254,-1349.000,8760.000,-1114.000,941.000,-1931.000,-1418.000,0.000,0.000,1
2026-01-31 17:15:50,5675294,-1624.000,9136.000,-1984.000,152.000,-2693.000,-2006.000,0.000,0.000,1
2026-01-31 17:15:50,5675334,-414.000,10655.000,-6353.000,-313.000,-2397.000,-1439.000,0.000,0.000,1
2026-01-31 17:15:50,5675374,2356.000,11104.000,-7851.000,1763.000,-1380.000,-707.000,0.000,0.000,1
2026-01-31 17:15:50,5675414,2058.000,10655.000,-5194.000,2005.000,-709.000,-376.000,0.000,0.000,1
2026-01-31 17:15:50,5675454,2258.000,10349.000,-4582.000,918.000,22.000,1512.000,0.000,0.000,1
2026-01-31 17:15:50,5675494,612.000,8945.000,-1736.000,1763.000,257.000,1665.000,0.000,0.000,1
2026-01-31 17:15:50,5675534,-205.000,4893.000,-481.000,-700.000,-318.000,2296.000,0.000,0.000,1
2026-01-31 17:15:50,5675574,-474.000,4150.000,-599.000,-3006.000,-232.000,1511.000,0.000,0.000,1
2026-01-31 17:15:50,5675614,-901.000,4288.000,-1518.000,-3457.000,-245.000,954.000,0.000,0.000,1
2026-01-31 17:15:50,5675654,-926.000,5771.000,-2215.000,-2653.000,-524.000,896.000,0.000,0.000,1
2026-01-31 17:15:50,5675694,-1025.000,7454.000,-2918.000,-2489.000,-548.000,1013.000,0.000,0.000,1
2026-01-31 17:15:51,5675734,-186.000,8619.000,-3782.000,-2002.000,-572.000,1255.000,0.000,0.000,1
2026-01-31 17:15:51,5675774,380.000,10159.000,-4512.000,-1432.000,500.000,1133.000,0.000,0.000,1
2026-01-31 17:15:51,5675814,1093.000,10774.000,-4284.000,-162.000,1028.000,425.000,0.000,-21.010,1
2026-01-31 17:15:51,5675854,1136.000,9481.000,-3376.000,1146.000,1588.000,283.000,0.000,-21.010,1
2026-01-31 17:15:51,5675894,1330.000,10004.000,-1985.000,2223.000,601.000,-946.000,0.000,-21.010,1
2026-01-31 17:15:51,5675934,3511.000,8533.000,-2896.000,-617.000,888.000,-1985.000,0.000,-21.010,1
2026-01-31 17:15:51,5675974,2883.000,5769.000,-1734.000,617.000,1623.000,-1663.000,0.000,-21.010,1
2026-01-31 17:15:51,5676014,955.000,4951.000,-129.000,2718.000,1664.000,-929.000,0.000,-21.010,1
2026-01-31 17:15:51,5676054,-77.000,4422.000,-244.000,1741.000,1306.000,-97.000,0.000,-21.010,1
2026-01-31 17:15:51,5676094,119.000,4597.000,-411.000,683.000,644.000,189.000,0.000,-21.010,1
2026-01-31 17:15:51,5676134,-1090.000,4350.000,-734.000,-232.000,1044.000,200.000,0.000,-21.010,1
2026-01-31 17:15:51,5676174,-812.000,6601.000,-1450.000,706.000,680.000,-13.000,0.000,-21.010,1
2026-01-31 17:15:51,5676217,-1167.000,8480.000,-1886.000,1334.000,-115.000,-639.000,0.000,-21.010,1
2026-01-31 17:15:51,5676256,-799.000,10344.000,-2310.000,2107.000,-727.000,-769.000,0.000,-21.010,1
2026-01-31 17:15:51,5676294,-555.000,11243.000,-2425.000,1977.000,-1153.000,-878.000,0.000,-21.010,1
2026-01-31 17:15:51,5676334,-595.000,11452.000,-2475.000,-483.000,-1367.000,-1269.000,0.000,-21.010,1
2026-01-31 17:15:51,5676374,-382.000,11417.000,-3646.000,1027.000,-2403.000,-637.000,0.000,-21.010,1
2026-01-31 17:15:51,5676414,330.000,8671.000,-5489.000,-1898.000,-1820.000,-518.000,0.000,-21.010,1
2026-01-31 17:15:51,5676454,889.000,10021.000,-5774.000,-183.000,-1263.000,854.000,0.000,-21.010,1
2026-01-31 17:15:51,5676494,887.000,7256.000,-4459.000,-1202.000,-435.000,1933.000,0.000,-21.010,1
2026-01-31 17:15:51,5676537,892.000,4950.000,-1356.000,-13.000,-831.000,2300.000,0.000,-21.010,1
2026-01-31 17:15:51,5676574,1033.000,4477.000,-751.000,-695.000,-1136.000,2191.000,0.000,-21.010,1
2026-01-31 17:15:51,5676614,630.000,3247.000,-633.000,-2337.000,-1334.000,2097.000,0.000,-21.010,1
2026-01-31 17:15:51,5676654,290.000,4678.000,-1613.000,-1500.000,-1029.000,1674.000,0.000,-21.010,1
2026-01-31 17:15:51,5676694,-290.000,6810.000,-2894.000,-1696.000,-293.000,1822.000,0.000,-21.010,1
2026-01-31 17:15:52,5676734,-371.000,8667.000,-3807.000,-240.000,479.000,2139.000,0.000,-21.010,1
2026-01-31 17:15:52,5676774,168.000,10377.000,-4382.000,687.000,458.000,1905.000,0.000,-21.010,1
2026-01-31 17:15:52,5676814,904.000,10633.000,-4043.000,1120.000,453.000,1155.000,0.000,0.000,1
2026-01-31 17:15:52,5676854,2040.000,10243.000,-4421.000,1878.000,1408.000,970.000,0.000,0.000,1
2026-01-31 17:15:52,5676894,2715.000,10391.000,-2709.000,3160.000,523.000,-1015.000,0.000,0.000,1
2026-01-31 17:15:52,5676934,4410.000,8258.000,-2557.000,-704.000,373.000,-2249.000,0.000,0.000,1
2026-01-31 17:15:52,5676974,4328.000,7399.000,-2827.000,-239.000,1663.000,-2309.000,0.000,0.000,1
2026-01-31 17:15:52,5677014,2351.000,5607.000,-1037.000,1643.000,2001.000,-1795.000,0.000,0.000,1
2026-01-31 17:15:52,5677054,733.000,4297.000,-157.000,1609.000,1388.000,-672.000,0.000,0.000,1
2026-01-31 17:15:52,5677094,-202.000,3773.000,-880.000,531.000,976.000,178.000,0.000,0.000,1
2026-01-31 17:15:52,5677134,-154.000,4726.000,-1312.000,-317.000,853.000,45.000,0.000,0.000,1
2026-01-31 17:15:52,5677174,-446.000,5543.000,-1748.000,-233.000,641.000,112.000,0.000,0.000,1
2026-01-31 17:15:52,5677214,-255.000,8057.000,-2148.000,455.000,432.000,-442.000,0.000,0.000,1
2026-01-31 17:15:52,5677254,-124.000,9280.000,-2323.000,610.000,-14.000,-837.000,0.000,0.000,1
2026-01-31 17:15:52,5677294,124.000,11022.000,-2561.000,1778.000,-424.000,-1449.000,0.000,0.000,1
2026-01-31 17:15:52,5677334,357.000,11569.000,-1958.000,223.000,-789.000,-1737.000,0.000,0.000,1
2026-01-31 17:15:52,5677374,-265.000,10932.000,-2895.000,461.000,-289.000,-1607.000,0.000,0.000,1
2026-01-31 17:15:52,5677414,473.000,10184.000,-3781.000,1621.000,-1303.000,-1037.000,0.000,0.000,1
2026-01-31 17:15:52,5677454,1567.000,8100.000,-6505.000,-1401.000,-212.000,-783.000,0.000,0.000,1
2026-01-31 17:15:52,5677494,1419.000,7512.000,-5352.000,736.000,96.000,1409.000,0.000,0.000,1
2026-01-31 17:15:52,5677534,944.000,6100.000,-3382.000,716.000,-292.000,2294.000,0.000,0.000,1
2026-01-31 17:15:52,5677574,348.000,4556.000,-1519.000,190.000,-1338.000,2559.000,0.000,0.000,1
2026-01-31 17:15:52,5677614,533.000,3792.000,-892.000,-532.000,-1729.000,2533.000,0.000,0.000,1
2026-01-31 17:15:52,5677654,187.000,4488.000,-1543.000,-852.000,-1250.000,2204.000,0.000,0.000,1
2026-01-31 17:15:52,5677694,59.000,5773.000,-2428.000,-1236.000,-956.000,2097.000,0.000,0.000,1
2026-01-31 17:15:53,5677734,-214.000,7293.000,-3683.000,-798.000,-655.000,2097.000,0.000,0.000,1
2026-01-31 17:15:53,5677774,-126.000,9201.000,-4687.000,-186.000,-711.000,2084.000,0.000,0.000,1
2026-01-31 17:15:53,5677814,1420.000,10067.000,-4527.000,-888.000,-219.000,1772.000,0.000,-12.880,1
2026-01-31 17:15:53,5677854,2639.000,9962.000,-4669.000,-714.000,1385.000,736.000,0.000,-12.880,1
2026-01-31 17:15:53,5677894,3190.000,9689.000,-4108.000,696.000,1150.000,-204.000,0.000,-12.880,1
2026-01-31 17:15:53,5677934,4460.000,8093.000,-3431.000,-1641.000,746.000,-1823.000,0.000,-12.880,1
2026-01-31 17:15:53,5677974,5703.000,7287.000,-3976.000,-1488.000,1681.000,-1937.000,0.000,-12.880,1
2026-01-31 17:15:53,5678014,3731.000,5680.000,-2296.000,1417.000,1915.000,-1427.000,0.000,-12.880,1
2026-01-31 17:15:53,5678054,1532.000,4780.000,-953.000,1738.000,1430.000,-620.000,0.000,-12.880,1
2026-01-31 17:15:53,5678094,799.000,3754.000,-869.000,1140.000,1196.000,-249.000,0.000,-12.880,1
2026-01-31 17:15:53,5678134,-155.000,3977.000,-1000.000,373.000,1111.000,-151.000,0.000,-12.880,1
2026-01-31 17:15:53,5678174,98.000,4446.000,-1258.000,-875.000,893.000,-553.000,0.000,-12.880,1
2026-01-31 17:15:53,5678234,-295.000,7389.000,-2444.000,627.000,176.000,-794.000,0.000,-12.880,1
2026-01-31 17:15:53,5678254,-276.000,8495.000,-2102.000,1228.000,-291.000,-1062.000,0.000,-12.880,1
2026-01-31 17:15:53,5678294,348.000,10312.000,-2142.000,1712.000,-1200.000,-1226.000,0.000,-12.880,1
2026-01-31 17:15:53,5678334,1004.000,11479.000,-2421.000,684.000,-1589.000,-1518.000,0.000,-12.880,1
2026-01-31 17:15:53,5678374,277.000,11493.000,-3749.000,489.000,-1292.000,-1303.000,0.000,-12.880,1
2026-01-31 17:15:53,5678414,707.000,11724.000,-4056.000,1552.000,-2585.000,-719.000,0.000,-12.880,1
2026-01-31 17:15:53,5678454,1414.000,8520.000,-5498.000,-2458.000,-1466.000,-354.000,0.000,-12.880,1
2026-01-31 17:15:53,5678494,1959.000,8015.000,-5149.000,-1764.000,-1069.000,338.000,0.000,-12.880,1
2026-01-31 17:15:53,5678534,1166.000,6351.000,-3793.000,-1472.000,-901.000,1530.000,0.000,-12.880,1
2026-01-31 17:15:53,5678574,941.000,4802.000,-2444.000,-1487.000,-1517.000,2285.000,0.000,-12.880,1
2026-01-31 17:15:53,5678614,707.000,3182.000,-1011.000,-1459.000,-2324.000,2403.000,0.000,-12.880,1
2026-01-31 17:15:53,5678654,498.000,3984.000,-1851.000,-914.000,-2015.000,2293.000,0.000,-12.880,1
2026-01-31 17:15:53,5678694,394.000,6324.000,-2620.000,-434.000,-1651.000,2156.000,0.000,-12.880,1
2026-01-31 17:15:54,5678734,14.000,7128.000,-3311.000,-1484.000,-773.000,2225.000,0.000,-12.880,1
2026-01-31 17:15:54,5678774,491.000,8836.000,-3751.000,8.000,-339.000,1880.000,0.000,-12.880,1
2026-01-31 17:15:54,5678814,605.000,9778.000,-4526.000,35.000,261.000,1507.000,0.000,6.860,1
2026-01-31 17:15:54,5678854,1601.000,10932.000,-4567.000,1317.000,368.000,1216.000,0.000,6.860,1
2026-01-31 17:15:54,5678894,3162.000,10177.000,-4511.000,1640.000,928.000,697.000,0.000,6.860,1
2026-01-31 17:15:54,5678934,3412.000,9840.000,-2163.000,1003.000,908.000,-706.000,0.000,6.860,1
2026-01-31 17:15:54,5678974,5094.000,8230.000,-2261.000,-1300.000,-321.000,-1028.000,0.000,6.860,1
2026-01-31 17:15:54,5679014,4480.000,5893.000,-2144.000,106.000,774.000,-1263.000,0.000,6.860,1
2026-01-31 17:15:54,5679054,2459.000,4931.000,-1795.000,720.000,1714.000,-992.000,0.000,6.860,1
2026-01-31 17:15:54,5679094,1437.000,3905.000,-1659.000,1038.000,1737.000,-964.000,0.000,6.860,1
2026-01-31 17:15:54,5679134,768.000,4161.000,-1198.000,1225.000,1844.000,-1318.000,0.000,6.860,1
2026-01-31 17:15:54,5679174,426.000,4667.000,-660.000,552.000,2043.000,-1543.000,0.000,6.860,1
2026-01-31 17:15:54,5679214,415.000,5440.000,-786.000,390.000,1616.000,-1514.000,0.000,6.860,1
2026-01-31 17:15:54,5679254,155.000,7011.000,-1334.000,783.000,1089.000,-1231.000,0.000,6.860,1
2026-01-31 17:15:54,5679294,39.000,8696.000,-2150.000,1174.000,423.000,-1154.000,0.000,6.860,1
2026-01-31 17:15:54,5679334,128.000,9863.000,-3028.000,1167.000,-366.000,-926.000,0.000,6.860,1
2026-01-31 17:15:54,5679374,516.000,10744.000,-3597.000,991.000,-1039.000,-1047.000,0.000,6.860,1
2026-01-31 17:15:54,5679414,918.000,12389.000,-4935.000,2170.000,-1879.000,-45.000,0.000,6.860,1
2026-01-31 17:15:54,5679454,744.000,9758.000,-3829.000,-133.000,-2620.000,386.000,0.000,6.860,1
2026-01-31 17:15:54,5679494,1152.000,7974.000,-4524.000,-1565.000,-2252.000,156.000,0.000,6.860,1
2026-01-31 17:15:54,5679534,1633.000,7261.000,-4737.000,-1718.000,-2005.000,837.000,0.000,6.860,1
2026-01-31 17:15:54,5679574,938.000,5564.000,-3561.000,-1421.000,-1730.000,1621.000,0.000,6.860,1
2026-01-31 17:15:54,5679614,835.000,5079.000,-2518.000,-576.000,-1898.000,1835.000,0.000,6.860,1
2026-01-31 17:15:54,5679654,144.000,4218.000,-1578.000,-757.000,-2165.000,1758.000,0.000,6.860,1
2026-01-31 17:15:54,5679694,-143.000,4062.000,-1667.000,-638.000,-2174.000,1728.000,0.000,6.860,1
2026-01-31 17:15:55,5679734,-32.000,5482.000,-2668.000,-480.000,-1868.000,1588.000,0.000,6.860,1
2026-01-31 17:15:55,5679774,-50.000,7217.000,-3174.000,-451.000,-1069.000,1504.000,0.000,6.860,1
2026-01-31 17:15:55,5679814,394.000,9148.000,-3291.000,54.000,-949.000,1473.000,0.000,7.060,1
2026-01-31 17:15:55,5679854,824.000,10350.000,-4072.000,-309.000,-604.000,1631.000,0.000,7.060,1
2026-01-31 17:15:55,5679894,1728.000,10993.000,-3858.000,-265.000,-517.000,1727.000,0.000,7.060,1
2026-01-31 17:15:55,5679934,2846.000,10615.000,-4003.000,-155.000,160.000,1677.000,0.000,7.060,1
2026-01-31 17:15:55,5679974,2724.000,9165.000,-3361.000,279.000,771.000,814.000,0.000,7.060,1
2026-01-31 17:15:55,5680014,3589.000,7091.000,-3621.000,-1584.000,797.000,-754.000,0.000,7.060,1
2026-01-31 17:15:55,5680054,4498.000,7114.000,-4308.000,-1045.000,1277.000,-1168.000,0.000,7.060,1
2026-01-31 17:15:55,5680094,4290.000,5332.000,-2980.000,659.000,1388.000,-1099.000,0.000,7.060,1
2026-01-31 17:15:55,5680134,2243.000,4663.000,-1334.000,1913.000,1528.000,-535.000,0.000,7.060,1
2026-01-31 17:15:55,5680174,1523.000,4378.000,-1172.000,1210.000,1540.000,-509.000,0.000,7.060,1
2026-01-31 17:15:55,5680214,831.000,4278.000,-816.000,729.000,1388.000,-460.000,0.000,7.060,1
2026-01-31 17:15:55,5680254,550.000,5293.000,-1095.000,19.000,1244.000,-479.000,0.000,7.060,1
2026-01-31 17:15:55,5680294,501.000,6903.000,-1328.000,-584.000,1257.000,-656.000,0.000,7.060,1
2026-01-31 17:15:55,5680334,159.000,7838.000,-1313.000,-175.000,1227.000,-1336.000,0.000,7.060,1
2026-01-31 17:15:55,5680374,291.000,9388.000,-1749.000,647.000,641.000,-1935.000,0.000,7.060,1
2026-01-31 17:15:55,5680414,193.000,10223.000,-2258.000,845.000,-270.000,-2192.000,0.000,7.060,1
2026-01-31 17:15:55,5680454,-203.000,11055.000,-2217.000,324.000,-516.000,-2299.000,0.000,7.060,1
2026-01-31 17:15:55,5680494,459.000,10523.000,-4413.000,2553.000,-1440.000,-1376.000,0.000,7.060,1
2026-01-31 17:15:55,5680538,1966.000,7576.000,-6114.000,-1005.000,-954.000,-283.000,0.000,7.060,1
2026-01-31 17:15:55,5680574,2359.000,7308.000,-5990.000,21.000,-1072.000,190.000,0.000,7.060,1
2026-01-31 17:15:55,5680614,1778.000,6336.000,-4361.000,935.000,-938.000,1095.000,0.000,7.060,1
2026-01-31 17:15:55,5680654,824.000,5357.000,-2575.000,1500.000,-1153.000,2010.000,0.000,7.060,1
2026-01-31 17:15:55,5680694,96.000,5369.000,-1129.000,961.000,-1729.000,2296.000,0.000,7.060,1
2026-01-31 17:15:56,5680734,-199.000,4603.000,-1362.000,87.000,-2092.000,2434.000,0.000,7.060,1
2026-01-31 17:15:56,5680774,-433.000,5117.000,-1909.000,-885.000,-2079.000,2140.000,0.000,7.060,1
2026-01-31 17:15:56,5680814,-287.000,5808.000,-2780.000,-1539.000,-1751.000,1775.000,0.000,-7.920,1
2026-01-31 17:15:56,5680854,122.000,7488.000,-3477.000,-1299.000,-1215.000,1567.000,0.000,-7.920,1
2026-01-31 17:15:56,5680894,738.000,9381.000,-4029.000,-952.000,-822.000,1513.000,0.000,-7.920,1
2026-01-31 17:15:56,5680934,1734.000,11091.000,-4526.000,-132.000,-667.000,1731.000,0.000,-7.920,1
2026-01-31 17:15:56,5680974,2944.000,10036.000,-4715.000,-1510.000,-286.000,1637.000,0.000,-7.920,1
2026-01-31 17:15:56,5681014,3445.000,9078.000,-4739.000,-581.000,909.000,1133.000,0.000,-7.920,1
2026-01-31 17:15:56,5681054,3724.000,7067.000,-4283.000,-1243.000,1317.000,-608.000,0.000,-7.920,1
2026-01-31 17:15:56,5681094,4667.000,6759.000,-4728.000,-1492.000,1785.000,-1125.000,0.000,-7.920,1
2026-01-31 17:15:56,5681134,4671.000,6220.000,-3858.000,526.000,2089.000,-822.000,0.000,-7.920,1
2026-01-31 17:15:56,5681174,2871.000,5737.000,-1865.000,2034.000,2262.000,-668.000,0.000,-7.920,1
2026-01-31 17:15:56,5681214,1612.000,5198.000,-1296.000,1103.000,1998.000,-207.000,0.000,-7.920,1
2026-01-31 17:15:56,5681254,995.000,4692.000,-928.000,1168.000,1672.000,-581.000,0.000,-7.920,1
2026-01-31 17:15:56,5681294,852.000,4714.000,-1053.000,-83.000,1103.000,-876.000,0.000,-7.920,1
2026-01-31 17:15:56,5681334,736.000,6285.000,-1251.000,-500.000,1140.000,-1196.000,0.000,-7.920,1
2026-01-31 17:15:56,5681374,445.000,6744.000,-1329.000,-1096.000,1033.000,-1480.000,0.000,-7.920,1
2026-01-31 17:15:56,5681414,205.000,8243.000,-1756.000,394.000,386.000,-1940.000,0.000,-7.920,1
2026-01-31 17:15:56,5681454,260.000,10074.000,-2517.000,692.000,-645.000,-1991.000,0.000,-7.920,1
2026-01-31 17:15:56,5681494,291.000,10847.000,-2377.000,-494.000,-1078.000,-2237.000,0.000,-7.920,1
2026-01-31 17:15:56,5681534,505.000,11697.000,-4393.000,1696.000,-1635.000,-1304.000,0.000,-7.920,1
2026-01-31 17:15:56,5681574,1702.000,10240.000,-5019.000,1457.000,-1892.000,-1267.000,0.000,-7.920,1
2026-01-31 17:15:56,5681614,1588.000,8108.000,-5888.000,-1168.000,-1042.000,-719.000,0.000,-7.920,1
2026-01-31 17:15:56,5681654,2075.000,6822.000,-4123.000,160.000,-1023.000,629.000,0.000,-7.920,1
2026-01-31 17:15:56,5681694,970.000,5200.000,-2056.000,452.000,-774.000,1541.000,0.000,-7.920,1
2026-01-31 17:15:57,5681734,115.000,4987.000,-1113.000,732.000,-1272.000,1954.000,0.000,-7.920,1
2026-01-31 17:15:57,5681774,-340.000,4607.000,-1008.000,-36.000,-1820.000,2004.000,0.000,-7.920,1
2026-01-31 17:15:57,5681814,-486.000,4585.000,-1453.000,-918.000,-2056.000,1845.000,0.000,13.150,1
2026-01-31 17:15:57,5681854,-438.000,6118.000,-2188.000,-1208.000,-2072.000,1648.000,0.000,13.150,1
2026-01-31 17:15:57,5681894,-64.000,7770.000,-3143.000,-1843.000,-1851.000,1617.000,0.000,13.150,1
2026-01-31 17:15:57,5681934,422.000,8792.000,-3550.000,-1674.000,-1585.000,1605.000,0.000,13.150,1
2026-01-31 17:15:57,5681974,1109.000,9842.000,-4104.000,-1292.000,-994.000,1583.000,0.000,13.150,1
2026-01-31 17:15:57,5682014,2065.000,10534.000,-3829.000,-870.000,-533.000,1585.000,0.000,13.150,1
2026-01-31 17:15:57,5682054,3551.000,9908.000,-3902.000,292.000,1089.000,1469.000,0.000,13.150,1
2026-01-31 17:15:57,5682094,3544.000,7449.000,-3257.000,-1176.000,1849.000,-397.000,0.000,13.150,1
2026-01-31 17:15:57,5682134,4231.000,7207.000,-4488.000,-1479.000,2388.000,-1308.000,0.000,13.150,1
2026-01-31 17:15:57,5682174,4496.000,6561.000,-4003.000,712.000,2863.000,-1022.000,0.000,13.150,1
2026-01-31 17:15:57,5682217,1869.000,4886.000,-1665.000,3534.000,2549.000,-485.000,0.000,13.150,1
2026-01-31 17:15:57,5682257,1347.000,5171.000,-631.000,2767.000,1947.000,-632.000,0.000,13.150,1
2026-01-31 17:15:57,5682294,1109.000,5005.000,-531.000,1643.000,2116.000,-902.000,0.000,13.150,1
2026-01-31 17:15:57,5682334,1022.000,5424.000,-1041.000,477.000,2249.000,-712.000,0.000,13.150,1
2026-01-31 17:15:57,5682374,570.000,5795.000,-1143.000,106.000,2103.000,-1157.000,0.000,13.150,1
2026-01-31 17:15:57,5682414,681.000,7873.000,-3105.000,-184.000,2342.000,-699.000,0.000,13.150,1
2026-01-31 17:15:57,5682454,750.000,8832.000,-1319.000,1697.000,406.000,-451.000,0.000,13.150,1
2026-01-31 17:15:57,5682494,45.000,8308.000,-708.000,275.000,101.000,-1045.000,0.000,13.150,1
2026-01-31 17:15:57,5682534,-219.000,9749.000,-1797.000,-1028.000,-572.000,-2013.000,0.000,13.150,1
2026-01-31 17:15:57,5682574,-388.000,8988.000,-3206.000,-1942.000,-362.000,-2630.000,0.000,13.150,1
2026-01-31 17:15:57,5682614,436.000,9997.000,-5342.000,2678.000,-634.000,-2472.000,0.000,13.150,1
2026-01-31 17:15:57,5682654,2646.000,10222.000,-7426.000,348.000,-364.000,-1673.000,0.000,13.150,1
2026-01-31 17:15:57,5682694,3157.000,9016.000,-6339.000,1121.000,-912.000,79.000,0.000,13.150,1
2026-01-31 17:15:58,5682734,1844.000,8200.000,-3605.000,2594.000,-1065.000,1192.000,0.000,13.150,1
2026-01-31 17:15:58,5682774,843.000,6358.000,-1709.000,1222.000,-1710.000,2284.000,0.000,13.150,1
2026-01-31 17:15:58,5682814,-52.000,3842.000,-628.000,-296.000,-2718.000,2902.000,0.000,15.280,1
2026-01-31 17:15:58,5682854,-287.000,4700.000,-1203.000,-1541.000,-2539.000,2392.000,0.000,15.280,1
2026-01-31 17:15:58,5682894,-287.000,5655.000,-2095.000,-3277.000,-2488.000,1876.000,0.000,15.280,1
2026-01-31 17:15:58,5682934,-330.000,6566.000,-2873.000,-3561.000,-2257.000,1456.000,0.000,15.280,1
2026-01-31 17:15:58,5682974,196.000,7863.000,-3587.000,-2692.000,-2012.000,1376.000,0.000,15.280,1
2026-01-31 17:15:58,5683014,717.000,9387.000,-4548.000,-1671.000,-1340.000,1587.000,0.000,15.280,1
2026-01-31 17:15:58,5683054,1819.000,11315.000,-4469.000,-397.000,-1022.000,1604.000,0.000,15.280,1
2026-01-31 17:15:58,5683094,2445.000,9617.000,-4137.000,-1120.000,-219.000,1412.000,0.000,15.280,1
2026-01-31 17:15:58,5683134,2287.000,8989.000,-3525.000,259.000,214.000,726.000,0.000,15.280,1
2026-01-31 17:15:58,5683174,3410.000,7959.000,-3165.000,-959.000,-22.000,-1175.000,0.000,15.280,1
2026-01-31 17:15:58,5683214,4530.000,7669.000,-4154.000,-2113.000,1488.000,-1898.000,0.000,15.280,1
2026-01-31 17:15:58,5683254,3723.000,5356.000,-2441.000,192.000,2097.000,-1894.000,0.000,15.280,1
2026-01-31 17:15:58,5683294,1707.000,4250.000,-741.000,1580.000,2255.000,-1298.000,0.000,15.280,1
2026-01-31 17:15:58,5683334,698.000,4044.000,-102.000,2181.000,1912.000,-929.000,0.000,15.280,1
2026-01-31 17:15:58,5683374,286.000,4148.000,-279.000,1467.000,1830.000,-589.000,0.000,15.280,1
2026-01-31 17:15:58,5683414,113.000,4821.000,-767.000,510.000,1594.000,-638.000,0.000,15.280,1
2026-01-31 17:15:58,5683454,-525.000,6276.000,-1359.000,594.000,1211.000,-589.000,0.000,15.280,1
2026-01-31 17:15:58,5683494,-592.000,7586.000,-1851.000,1464.000,334.000,-690.000,0.000,15.280,1
2026-01-31 17:15:58,5683534,-440.000,9923.000,-2491.000,1803.000,-597.000,-823.000,0.000,15.280,1
2026-01-31 17:15:58,5683574,108.000,11591.000,-3153.000,1303.000,-1763.000,-1284.000,0.000,15.280,1
2026-01-31 17:15:58,5683614,-17.000,11095.000,-3744.000,116.000,-1924.000,-880.000,0.000,15.280,1
2026-01-31 17:15:58,5683654,153.000,10654.000,-3466.000,1848.000,-2645.000,-656.000,0.000,15.280,1
2026-01-31 17:15:58,5683694,459.000,8563.000,-4928.000,-654.000,-2180.000,-365.000,0.000,15.280,1
2026-01-31 17:15:59,5683734,747.000,8696.000,-5824.000,-292.000,-1983.000,722.000,0.000,15.280,1
2026-01-31 17:15:59,5683774,825.000,7203.000,-4303.000,-56.000,-1969.000,1222.000,0.000,15.280,1
2026-01-31 17:15:59,5683814,871.000,5059.000,-2162.000,164.000,-1989.000,1546.000,0.000,12.910,1
2026-01-31 17:15:59,5683854,484.000,4316.000,-1255.000,-349.000,-1976.000,1607.000,0.000,12.910,1
2026-01-31 17:15:59,5683894,-14.000,4048.000,-1286.000,-1386.000,-2082.000,1369.000,0.000,12.910,1
2026-01-31 17:15:59,5683934,-516.000,5278.000,-2052.000,-1475.000,-1887.000,993.000,0.000,12.910,1
2026-01-31 17:15:59,5683974,-533.000,6955.000,-2860.000,-1802.000,-1432.000,1223.000,0.000,12.910,1
2026-01-31 17:15:59,5684014,-363.000,8155.000,-3388.000,-1507.000,-1145.000,1551.000,0.000,12.910,1
2026-01-31 17:15:59,5684054,192.000,9864.000,-4254.000,-851.000,-580.000,1930.000,0.000,12.910,1
2026-01-31 17:15:59,5684094,1813.000,11658.000,-4311.000,-109.000,-302.000,1810.000,0.000,12.910,1
2026-01-31 17:15:59,5684134,2228.000,9405.000,-4228.000,-1056.000,877.000,1684.000,0.000,12.910,1
2026-01-31 17:15:59,5684174,1971.000,9270.000,-3464.000,1375.000,574.000,870.000,0.000,12.910,1
2026-01-31 17:15:59,5684214,2919.000,8679.000,-3726.000,-464.000,341.000,-561.000,0.000,12.910,1
2026-01-31 17:15:59,5684254,3914.000,7513.000,-3605.000,-859.000,1456.000,-1213.000,0.000,12.910,1
2026-01-31 17:15:59,5684294,3260.000,4973.000,-2726.000,669.000,2357.000,-1136.000,0.000,12.910,1
2026-01-31 17:15:59,5684334,993.000,4643.000,-245.000,2849.000,2486.000,-540.000,0.000,12.910,1
2026-01-31 17:15:59,5684374,657.000,4695.000,-711.000,843.000,2418.000,-396.000,0.000,12.910,1
2026-01-31 17:15:59,5684414,374.000,4577.000,-675.000,-600.000,1958.000,-670.000,0.000,12.910,1
2026-01-31 17:15:59,5684454,113.000,5152.000,-1203.000,-1088.000,1904.000,-841.000,0.000,12.910,1
2026-01-31 17:15:59,5684494,-84.000,6870.000,-2427.000,-529.000,1712.000,-930.000,0.000,12.910,1
2026-01-31 17:15:59,5684537,-187.000,9191.000,-2576.000,586.000,360.000,-1057.000,0.000,12.910,1
2026-01-31 17:15:59,5684574,-42.000,9636.000,-2618.000,809.000,-15.000,-1102.000,0.000,12.910,1
2026-01-31 17:15:59,5684614,98.000,11474.000,-2880.000,1571.000,-546.000,-1284.000,0.000,12.910,1
2026-01-31 17:15:59,5684654,76.000,12042.000,-3534.000,1059.000,-1045.000,-887.000,0.000,12.910,1
2026-01-31 17:15:59,5684694,193.000,12328.000,-2985.000,962.000,-1886.000,-592.000,0.000,12.910,1
2026-01-31 17:16:00,5684734,819.000,8812.000,-4081.000,-2477.000,-1665.000,-84.000,0.000,12.910,1
2026-01-31 17:16:00,5684774,1098.000,8822.000,-4001.000,-2330.000,-1388.000,715.000,0.000,12.910,1
2026-01-31 17:16:00,5684814,495.000,6677.000,-2680.000,-3454.000,-1014.000,976.000,0.000,-19.350,1
2026-01-31 17:16:00,5684854,34.000,5017.000,-1229.000,-3478.000,-1470.000,1064.000,0.000,-19.350,1
2026-01-31 17:16:00,5684894,-274.000,3732.000,-605.000,-4805.000,-1898.000,1431.000,0.000,-19.350,1
2026-01-31 17:16:00,5684934,-450.000,4094.000,-1024.000,-4862.000,-2254.000,1436.000,0.000,-19.350,1
2026-01-31 17:16:00,5684974,-551.000,5046.000,-1019.000,-3493.000,-2637.000,1140.000,0.000,-19.350,1
2026-01-31 17:16:00,5685014,-383.000,6738.000,-1419.000,-3471.000,-2690.000,1531.000,0.000,-19.350,1
2026-01-31 17:16:00,5685054,160.000,8703.000,-1656.000,-1904.000,-2849.000,1715.000,0.000,-19.350,1
2026-01-31 17:16:00,5685094,1452.000,12024.000,-1584.000,-1246.000,-2594.000,1787.000,0.000,-19.350,1
2026-01-31 17:16:00,5685134,2066.000,11801.000,-991.000,-2022.000,-2305.000,1195.000,0.000,-19.350,1
2026-01-31 17:16:00,5685174,1845.000,11254.000,652.000,-1812.000,-1378.000,691.000,0.000,-19.350,1
2026-01-31 17:16:00,5685214,2036.000,12073.000,1633.000,-2336.000,-1388.000,-972.000,0.000,-19.350,1
2026-01-31 17:16:00,5685254,3703.000,10406.000,871.000,-7210.000,-983.000,-2366.000,0.000,-19.350,1
2026-01-31 17:16:00,5685294,4171.000,7795.000,376.000,-9173.000,899.000,-2163.000,0.000,-19.350,1
2026-01-31 17:16:00,5685334,2732.000,6950.000,1956.000,-8720.000,2207.000,-1210.000,0.000,-19.350,1
2026-01-31 17:16:00,5685374,1118.000,4573.000,2087.000,-12423.000,2227.000,-65.000,0.000,-19.350,1
2026-01-31 17:16:00,5685414,-51.000,2144.000,2952.000,-12331.000,1092.000,-247.000,0.000,-19.350,1
2026-01-31 17:16:00,5685454,-166.000,1780.000,3912.000,-10460.000,-634.000,-795.000,0.000,-19.350,1
2026-01-31 17:16:00,5685494,533.000,3000.000,5120.000,-7400.000,-55.000,146.000,0.000,-19.350,1
2026-01-31 17:16:00,5685534,273.000,4087.000,6602.000,-4260.000,467.000,-113.000,0.000,-19.350,1
2026-01-31 17:16:00,5685574,485.000,4376.000,7455.000,-4118.000,780.000,-292.000,0.000,-19.350,1
2026-01-31 17:16:00,5685614,-199.000,3940.000,7910.000,-3322.000,652.000,190.000,0.000,-19.350,1
2026-01-31 17:16:00,5685654,-499.000,5555.000,9350.000,-1584.000,272.000,-624.000,0.000,-19.350,1
2026-01-31 17:16:00,5685694,-1323.000,5497.000,9867.000,-560.000,-287.000,-1004.000,0.000,-19.350,1
2026-01-31 17:16:01,5685734,-1402.000,6310.000,9281.000,1464.000,-2049.000,-165.000,0.000,-19.350,1
2026-01-31 17:16:01,5685774,7.000,6157.000,8258.000,-389.000,-4240.000,764.000,0.000,-19.350,1
