datetime_local,uptime_ms,acc_x,acc_y,acc_z,gyro_x,gyro_y,gyro_z,speed_mps,turn_rate_deg_s,gps_valid
2026-01-31 16:11:13,1797854,-339.000,-4142.000,7267.000,-93.000,186.000,-88.000,0.000,15.460,1
2026-01-31 16:11:13,1797894,-259.000,-4185.000,7173.000,337.000,316.000,20.000,0.000,15.460,1
2026-01-31 16:11:13,1797934,-405.000,-4317.000,7487.000,617.000,289.000,-124.000,0.000,15.460,1
2026-01-31 16:11:13,1797974,-165.000,-3682.000,7312.000,1056.000,306.000,-325.000,0.000,15.460,1
2026-01-31 16:11:13,1798014,-439.000,-3938.000,7410.000,537.000,517.000,122.000,0.000,15.460,1
2026-01-31 16:11:13,1798054,-528.000,-3808.000,7576.000,517.000,653.000,154.000,0.000,15.460,1
2026-01-31 16:11:13,1798094,-1032.000,-3704.000,7649.000,197.000,293.000,-52.000,0.000,15.460,1
2026-01-31 16:11:13,1798134,-935.000,-3745.000,7445.000,72.000,117.000,-190.000,0.000,15.460,1
2026-01-31 16:11:13,1798174,-864.000,-3703.000,7422.000,209.000,122.000,-219.000,0.000,15.460,1
2026-01-31 16:11:13,1798214,-623.000,-3631.000,7438.000,469.000,211.000,-64.000,0.000,15.460,1
2026-01-31 16:11:13,1798254,-474.000,-3643.000,7463.000,501.000,336.000,90.000,0.000,15.460,1
2026-01-31 16:11:13,1798294,-564.000,-3655.000,7544.000,538.000,459.000,141.000,0.000,15.460,1
2026-01-31 16:11:13,1798334,-764.000,-3638.000,7508.000,557.000,370.000,-7.000,0.000,15.460,1
2026-01-31 16:11:13,1798374,-1052.000,-3343.000,7498.000,651.000,254.000,-177.000,0.000,15.460,1
2026-01-31 16:11:13,1798414,-915.000,-3350.000,7528.000,719.000,404.000,-130.000,0.000,15.460,1
2026-01-31 16:11:13,1798454,-1037.000,-3439.000,7463.000,747.000,460.000,-148.000,0.000,15.460,1
2026-01-31 16:11:13,1798494,-979.000,-3331.000,7695.000,1082.000,405.000,218.000,0.000,15.460,1
2026-01-31 16:11:13,1798534,-1063.000,-3161.000,7968.000,726.000,213.000,232.000,0.000,15.460,1
2026-01-31 16:11:13,1798574,-1057.000,-3185.000,8188.000,309.000,258.000,-209.000,0.000,15.460,1
2026-01-31 16:11:13,1798614,-880.000,-3251.000,7909.000,529.000,309.000,-254.000,0.000,15.460,1
2026-01-31 16:11:13,1798654,-919.000,-2844.000,7777.000,-92.000,446.000,-227.000,0.000,15.460,1
2026-01-31 16:11:13,1798694,-964.000,-3294.000,7663.000,42.000,545.000,-264.000,0.000,15.460,1
2026-01-31 16:11:14,1798734,-1226.000,-3126.000,7733.000,96.000,466.000,-158.000,0.000,3.511,1
2026-01-31 16:11:14,1798774,-1084.000,-2998.000,7723.000,-57.000,44.000,-302.000,0.000,3.511,1
2026-01-31 16:11:14,1798814,-933.000,-3105.000,7660.000,48.000,142.000,-211.000,0.000,3.511,1
2026-01-31 16:11:14,1798854,-996.000,-3142.000,7659.000,120.000,178.000,-80.000,0.000,3.511,1
2026-01-31 16:11:14,1798894,-1186.000,-3135.000,7782.000,83.000,155.000,-86.000,0.000,3.511,1
2026-01-31 16:11:14,1798934,-1236.000,-3189.000,7776.000,57.000,23.000,-57.000,0.000,3.511,1
2026-01-31 16:11:14,1798974,-1176.000,-3091.000,7753.000,-11.000,-96.000,-87.000,0.000,3.511,1
2026-01-31 16:11:14,1799014,-1128.000,-3152.000,7755.000,-26.000,-104.000,-37.000,0.000,3.511,1
2026-01-31 16:11:14,1799054,-1061.000,-3097.000,7734.000,-31.000,-103.000,-36.000,0.000,3.511,1
2026-01-31 16:11:14,1799094,-1068.000,-3090.000,7757.000,-77.000,-129.000,-84.000,0.000,3.511,1
2026-01-31 16:11:14,1799134,-846.000,-3382.000,7512.000,-46.000,-84.000,-111.000,0.000,3.511,1
2026-01-31 16:11:14,1799174,-1025.000,-2923.000,7887.000,56.000,-177.000,113.000,0.000,3.511,1
2026-01-31 16:11:14,1799214,-864.000,-3209.000,7739.000,-22.000,-74.000,-68.000,0.000,3.511,1
2026-01-31 16:11:14,1799254,-969.000,-3179.000,7705.000,37.000,-45.000,4.000,0.000,3.511,1
2026-01-31 16:11:14,1799294,-1068.000,-3080.000,7797.000,-42.000,-113.000,17.000,0.000,3.511,1
2026-01-31 16:11:14,1799334,-1028.000,-3059.000,7762.000,-75.000,-111.000,-55.000,0.000,3.511,1
2026-01-31 16:11:14,1799374,-926.000,-3100.000,7639.000,-14.000,-97.000,-37.000,0.000,3.511,1
2026-01-31 16:11:14,1799414,-931.000,-3113.000,7674.000,56.000,-85.000,-41.000,0.000,3.511,1
2026-01-31 16:11:14,1799454,-949.000,-3128.000,7654.000,112.000,-113.000,-8.000,0.000,3.511,1
2026-01-31 16:11:14,1799494,-978.000,-3092.000,7770.000,181.000,-180.000,35.000,0.000,3.511,1
2026-01-31 16:11:14,1799534,-921.000,-3146.000,7775.000,145.000,-211.000,37.000,0.000,3.511,1
2026-01-31 16:11:14,1799579,-823.000,-2987.000,7874.000,121.000,-264.000,32.000,0.000,3.511,1
2026-01-31 16:11:14,1799614,-832.000,-3057.000,7852.000,60.000,-231.000,-9.000,0.000,3.511,1
2026-01-31 16:11:14,1799654,-772.000,-3089.000,7789.000,78.000,-146.000,26.000,0.000,3.511,1
2026-01-31 16:11:14,1799694,-895.000,-2985.000,7894.000,59.000,-62.000,44.000,0.000,3.511,1
2026-01-31 16:11:15,1799734,-869.000,-3059.000,7810.000,-27.000,-47.000,44.000,0.000,7.790,1
2026-01-31 16:11:15,1799774,-776.000,-3283.000,7381.000,137.000,-307.000,177.000,0.000,7.790,1
2026-01-31 16:11:15,1799814,-736.000,-2715.000,7993.000,100.000,-602.000,383.000,0.000,7.790,1
2026-01-31 16:11:15,1799854,-632.000,-3117.000,7843.000,24.000,-305.000,-19.000,0.000,7.790,1
2026-01-31 16:11:15,1799894,-754.000,-3158.000,7732.000,89.000,-275.000,155.000,0.000,7.790,1
2026-01-31 16:11:15,1799934,-789.000,-2892.000,7949.000,92.000,-401.000,139.000,0.000,7.790,1
2026-01-31 16:11:15,1799974,-803.000,-2896.000,7975.000,-1.000,-248.000,-29.000,0.000,7.790,1
2026-01-31 16:11:15,1800014,-578.000,-2998.000,7826.000,29.000,-112.000,-40.000,0.000,7.790,1
2026-01-31 16:11:15,1800054,-614.000,-2976.000,7884.000,62.000,12.000,-20.000,0.000,7.790,1
2026-01-31 16:11:15,1800094,-675.000,-3009.000,7922.000,14.000,75.000,-69.000,0.000,7.790,1
2026-01-31 16:11:15,1800134,-724.000,-3026.000,7815.000,-55.000,54.000,-126.000,0.000,7.790,1
2026-01-31 16:11:15,1800174,-643.000,-2971.000,7778.000,17.000,28.000,-95.000,0.000,7.790,1
2026-01-31 16:11:15,1800214,-680.000,-2973.000,7794.000,1.000,1.000,-127.000,0.000,7.790,1
2026-01-31 16:11:15,1800254,-626.000,-3041.000,7680.000,19.000,-37.000,-115.000,0.000,7.790,1
2026-01-31 16:11:15,1800294,-848.000,-3067.000,7654.000,189.000,-223.000,9.000,0.000,7.790,1
2026-01-31 16:11:15,1800334,-779.000,-2959.000,7689.000,330.000,-456.000,183.000,0.000,7.790,1
2026-01-31 16:11:15,1800374,-575.000,-2880.000,7707.000,420.000,-687.000,354.000,0.000,7.790,1
2026-01-31 16:11:15,1800414,-409.000,-2804.000,7810.000,491.000,-795.000,450.000,0.000,7.790,1
2026-01-31 16:11:15,1800454,-193.000,-2861.000,7843.000,512.000,-923.000,504.000,0.000,7.790,1
2026-01-31 16:11:15,1800494,-266.000,-2813.000,7957.000,543.000,-966.000,518.000,0.000,7.790,1
2026-01-31 16:11:15,1800534,128.000,-3026.000,7704.000,18.000,-1031.000,398.000,0.000,7.790,1
2026-01-31 16:11:15,1800574,-123.000,-2639.000,7865.000,654.000,-1296.000,809.000,0.000,7.790,1
2026-01-31 16:11:15,1800614,-417.000,-2653.000,7869.000,373.000,-1498.000,828.000,0.000,7.790,1
2026-01-31 16:11:15,1800654,106.000,-2453.000,7940.000,912.000,-1550.000,765.000,0.000,7.790,1
2026-01-31 16:11:15,1800694,322.000,-2467.000,7957.000,851.000,-1500.000,482.000,0.000,7.790,1
2026-01-31 16:11:16,1800734,345.000,-2054.000,8108.000,892.000,-1446.000,674.000,0.000,7.790,1
2026-01-31 16:11:16,1800774,535.000,-2181.000,7979.000,-701.000,-1668.000,669.000,0.000,0.000,0
2026-01-31 16:11:16,1800814,471.000,-2866.000,7947.000,-148.000,-1346.000,877.000,0.000,0.000,1
2026-01-31 16:11:16,1800854,464.000,-2451.000,7906.000,530.000,-1424.000,837.000,0.000,0.000,1
2026-01-31 16:11:16,1800894,574.000,-2559.000,7835.000,1088.000,-1451.000,1033.000,0.000,0.000,1
2026-01-31 16:11:16,1800934,954.000,-2084.000,7764.000,1713.000,-1616.000,736.000,0.000,0.000,1
2026-01-31 16:11:16,1800974,1272.000,-2087.000,7705.000,1983.000,-1731.000,910.000,0.000,0.000,1
2026-01-31 16:11:16,1801014,1321.000,-1823.000,7735.000,2647.000,-1658.000,1306.000,0.000,0.000,1
2026-01-31 16:11:16,1801054,1623.000,-1558.000,7703.000,2396.000,-2157.000,1398.000,0.000,0.000,1
2026-01-31 16:11:16,1801094,1715.000,-940.000,7943.000,3226.000,-2391.000,1424.000,0.000,0.000,1
2026-01-31 16:11:16,1801134,2378.000,-762.000,8009.000,2477.000,-1709.000,1241.000,0.000,0.000,1
2026-01-31 16:11:16,1801174,1874.000,-991.000,7690.000,2606.000,-1752.000,1036.000,0.000,0.000,1
2026-01-31 16:11:16,1801214,1900.000,-845.000,7607.000,3027.000,-2040.000,1536.000,0.000,0.000,1
2026-01-31 16:11:16,1801254,2105.000,-206.000,7873.000,3193.000,-1815.000,1331.000,0.000,0.000,1
2026-01-31 16:11:16,1801294,2036.000,-275.000,7521.000,5957.000,-1832.000,1804.000,0.000,0.000,1
2026-01-31 16:11:16,1801334,3042.000,763.000,7724.000,5975.000,-2044.000,1661.000,0.000,0.000,1
2026-01-31 16:11:16,1801374,3606.000,776.000,7182.000,5503.000,-2347.000,1636.000,0.000,0.000,1
2026-01-31 16:11:16,1801414,3782.000,2317.000,7316.000,5821.000,-2348.000,1459.000,0.000,0.000,1
2026-01-31 16:11:16,1801454,3755.000,2041.000,7251.000,4860.000,-2293.000,1774.000,0.000,0.000,1
2026-01-31 16:11:16,1801494,3136.000,3105.000,7361.000,5518.000,-3544.000,1837.000,0.000,0.000,1
2026-01-31 16:11:16,1801534,3599.000,4315.000,8063.000,2237.000,-4126.000,1809.000,0.000,0.000,1
2026-01-31 16:11:16,1801574,4261.000,3287.000,7554.000,-4823.000,-5295.000,1084.000,0.000,0.000,1
2026-01-31 16:11:16,1801614,5655.000,-136.000,5833.000,-7221.000,-4951.000,1176.000,0.000,0.000,1
2026-01-31 16:11:16,1801654,6284.000,-1830.000,4117.000,-27.000,-3413.000,1634.000,0.000,0.000,1
2026-01-31 16:11:16,1801694,6211.000,354.000,4741.000,6550.000,-1448.000,1087.000,0.000,0.000,1
2026-01-31 16:11:17,1801734,6954.000,2298.000,4822.000,9263.000,-618.000,795.000,0.000,0.000,1
2026-01-31 16:11:17,1801774,5182.000,1283.000,3224.000,15903.000,591.000,1995.000,0.000,0.000,1
2026-01-31 16:11:17,1801814,4165.000,7922.000,2612.000,24606.000,1188.000,852.000,0.000,0.000,1
2026-01-31 16:11:17,1801857,5371.000,7022.000,3776.000,-3713.000,-3243.000,-1273.000,0.000,0.000,1
2026-01-31 16:11:17,1801894,6436.000,3337.000,3180.000,-6792.000,-2646.000,-1862.000,0.000,0.000,1
2026-01-31 16:11:17,1801934,7078.000,4118.000,3380.000,-1473.000,-1990.000,-1904.000,0.000,0.000,1
2026-01-31 16:11:17,1801974,7618.000,4358.000,3583.000,626.000,-53.000,-922.000,0.000,0.000,1
2026-01-31 16:11:17,1802014,7477.000,4254.000,3708.000,2739.000,2360.000,-489.000,0.000,0.000,1
2026-01-31 16:11:17,1802054,7430.000,4795.000,4297.000,2071.000,4486.000,415.000,0.000,0.000,1
2026-01-31 16:11:17,1802094,7069.000,5497.000,4022.000,3005.000,6889.000,1480.000,0.000,0.000,1
2026-01-31 16:11:17,1802134,5788.000,6653.000,4467.000,3249.000,8845.000,2094.000,0.000,0.000,1
2026-01-31 16:11:17,1802174,4265.000,7109.000,5702.000,1230.000,9916.000,3026.000,0.000,0.000,1
2026-01-31 16:11:17,1802214,2085.000,5608.000,6032.000,-4125.000,10039.000,5900.000,0.000,0.000,1
2026-01-31 16:11:17,1802254,2174.000,5000.000,6244.000,-4810.000,8787.000,6915.000,0.000,0.000,1
2026-01-31 16:11:17,1802294,1289.000,4244.000,6092.000,-2933.000,6808.000,7313.000,0.000,0.000,1
2026-01-31 16:11:17,1802334,1156.000,4179.000,5812.000,-797.000,4441.000,7036.000,0.000,0.000,1
2026-01-31 16:11:17,1802374,1967.000,3718.000,5772.000,-1123.000,2377.000,6534.000,0.000,0.000,1
2026-01-31 16:11:17,1802414,3079.000,2968.000,5306.000,-1060.000,1016.000,5995.000,0.000,0.000,1
2026-01-31 16:11:17,1802454,4350.000,4005.000,5534.000,-851.000,791.000,3722.000,0.000,0.000,1
2026-01-31 16:11:17,1802494,4159.000,2664.000,6892.000,-3806.000,1759.000,189.000,0.000,0.000,1
2026-01-31 16:11:17,1802534,2364.000,1275.000,7240.000,196.000,2540.000,-2142.000,0.000,0.000,1
2026-01-31 16:11:17,1802574,2756.000,2480.000,6936.000,815.000,941.000,-2126.000,0.000,0.000,1
2026-01-31 16:11:17,1802614,3829.000,1466.000,7072.000,-202.000,354.000,-2426.000,0.000,0.000,1
2026-01-31 16:11:17,1802654,4870.000,1757.000,6928.000,672.000,1363.000,-1470.000,0.000,0.000,1
2026-01-31 16:11:17,1802694,3532.000,4997.000,7092.000,990.000,1246.000,-2679.000,0.000,0.000,1
2026-01-31 16:11:18,1802734,1219.000,3750.000,6711.000,-345.000,1105.000,-3134.000,0.000,0.000,1
2026-01-31 16:11:18,1802774,2960.000,3818.000,7130.000,1431.000,1055.000,-2305.000,0.000,0.000,1
2026-01-31 16:11:18,1802814,2783.000,3508.000,7965.000,1422.000,284.000,-1851.000,0.000,0.000,1
2026-01-31 16:11:18,1802854,2289.000,2738.000,7766.000,1439.000,419.000,-2021.000,0.000,0.000,1
2026-01-31 16:11:18,1802894,2323.000,3053.000,7415.000,2265.000,142.000,-2052.000,0.000,0.000,1
2026-01-31 16:11:18,1802934,2367.000,3331.000,6703.000,1981.000,-158.000,-1946.000,0.000,0.000,1
2026-01-31 16:11:18,1802974,2859.000,3808.000,7113.000,2344.000,-252.000,-978.000,0.000,0.000,1
2026-01-31 16:11:18,1803014,2869.000,2965.000,6656.000,2422.000,-811.000,-951.000,0.000,0.000,1
2026-01-31 16:11:18,1803054,3168.000,5218.000,7689.000,2018.000,-398.000,-91.000,0.000,0.000,1
2026-01-31 16:11:18,1803094,3634.000,4540.000,7253.000,297.000,-929.000,10.000,0.000,0.000,1
2026-01-31 16:11:18,1803134,3037.000,4844.000,6662.000,-83.000,-1341.000,469.000,0.000,0.000,1
2026-01-31 16:11:18,1803174,2637.000,5014.000,6004.000,-176.000,-1156.000,868.000,0.000,0.000,1
2026-01-31 16:11:18,1803214,3764.000,4604.000,5836.000,-248.000,-999.000,1178.000,0.000,0.000,1
2026-01-31 16:11:18,1803254,2848.000,4471.000,6377.000,-495.000,-78.000,2287.000,0.000,0.000,1
2026-01-31 16:11:18,1803294,3728.000,4327.000,5836.000,-214.000,-522.000,1971.000,0.000,0.000,1
2026-01-31 16:11:18,1803334,3828.000,4174.000,6294.000,-1185.000,-791.000,1984.000,0.000,0.000,1
2026-01-31 16:11:18,1803374,3117.000,3691.000,5788.000,-873.000,-268.000,1456.000,0.000,0.000,1
2026-01-31 16:11:18,1803414,3869.000,5453.000,6562.000,-935.000,-621.000,2245.000,0.000,0.000,1
2026-01-31 16:11:18,1803454,3658.000,2981.000,4965.000,-572.000,-532.000,1780.000,0.000,0.000,1
2026-01-31 16:11:18,1803494,4172.000,4229.000,5863.000,-127.000,-218.000,2439.000,0.000,0.000,1
2026-01-31 16:11:18,1803534,4270.000,4048.000,5493.000,618.000,-373.000,2161.000,0.000,0.000,1
2026-01-31 16:11:18,1803577,3437.000,3957.000,6231.000,714.000,280.000,1579.000,0.000,0.000,1
2026-01-31 16:11:18,1803617,3652.000,3914.000,6471.000,264.000,683.000,1159.000,0.000,0.000,1
2026-01-31 16:11:18,1803654,3571.000,3707.000,6607.000,154.000,784.000,1049.000,0.000,0.000,1
2026-01-31 16:11:18,1803694,3428.000,3896.000,6274.000,-528.000,784.000,997.000,0.000,0.000,1
2026-01-31 16:11:19,1803734,3432.000,3311.000,7011.000,-647.000,1079.000,994.000,0.000,0.000,1
2026-01-31 16:11:19,1803774,3847.000,2963.000,7702.000,-839.000,652.000,673.000,0.000,0.000,1
2026-01-31 16:11:19,1803814,3668.000,2611.000,7580.000,-952.000,-112.000,345.000,0.000,0.000,1
2026-01-31 16:11:19,1803857,3449.000,1942.000,7347.000,-781.000,-1006.000,-435.000,0.000,0.000,1
2026-01-31 16:11:19,1803894,3944.000,2154.000,7339.000,-486.000,-1212.000,-466.000,0.000,0.000,1
2026-01-31 16:11:19,1803934,3929.000,1536.000,7501.000,-829.000,-1076.000,-402.000,0.000,0.000,1
2026-01-31 16:11:19,1803974,3915.000,1333.000,7372.000,-790.000,-994.000,-369.000,0.000,0.000,1
2026-01-31 16:11:19,1804014,4027.000,1411.000,6554.000,-754.000,-609.000,-538.000,0.000,0.000,1
2026-01-31 16:11:19,1804054,3765.000,1377.000,6458.000,-725.000,-169.000,-847.000,0.000,0.000,1
2026-01-31 16:11:19,1804094,3638.000,1850.000,6491.000,116.000,622.000,-1175.000,0.000,0.000,1
2026-01-31 16:11:19,1804134,4231.000,1917.000,6887.000,-318.000,768.000,-1656.000,0.000,0.000,1
2026-01-31 16:11:19,1804174,3731.000,2159.000,6409.000,-351.000,766.000,-1871.000,0.000,0.000,1
2026-01-31 16:11:19,1804214,2577.000,1997.000,6804.000,353.000,731.000,-2545.000,0.000,0.000,1
2026-01-31 16:11:19,1804254,3410.000,3500.000,6753.000,2971.000,903.000,-2234.000,0.000,0.000,1
2026-01-31 16:11:19,1804294,2455.000,4304.000,7564.000,2103.000,1176.000,-2086.000,0.000,0.000,1
2026-01-31 16:11:19,1804334,3322.000,2914.000,7355.000,-327.000,926.000,-2292.000,0.000,0.000,1
2026-01-31 16:11:19,1804374,3058.000,2829.000,7134.000,409.000,665.000,-2141.000,0.000,0.000,1
2026-01-31 16:11:19,1804414,3099.000,3359.000,6772.000,-573.000,361.000,-2659.000,0.000,0.000,1
2026-01-31 16:11:19,1804454,3101.000,2455.000,6071.000,-1098.000,482.000,-2830.000,0.000,0.000,1
2026-01-31 16:11:19,1804494,2956.000,4708.000,6458.000,628.000,1161.000,-2864.000,0.000,0.000,1
2026-01-31 16:11:19,1804534,2865.000,4468.000,6762.000,1027.000,1487.000,-1743.000,0.000,0.000,1
2026-01-31 16:11:19,1804574,2541.000,5342.000,7316.000,1011.000,1163.000,-851.000,0.000,0.000,1
2026-01-31 16:11:19,1804614,2593.000,4966.000,7688.000,458.000,824.000,-85.000,0.000,0.000,1
2026-01-31 16:11:19,1804654,3103.000,5229.000,7711.000,723.000,44.000,953.000,0.000,0.000,1
2026-01-31 16:11:19,1804694,2155.000,4237.000,7421.000,-314.000,-385.000,1763.000,0.000,0.000,1
2026-01-31 16:11:20,1804734,2364.000,3373.000,6071.000,-157.000,-733.000,1811.000,0.000,0.000,1
2026-01-31 16:11:20,1804774,1138.000,3905.000,6109.000,-502.000,-167.000,1690.000,0.000,0.000,0
2026-01-31 16:11:20,1804814,2591.000,3773.000,5811.000,166.000,202.000,1467.000,0.000,0.000,1
2026-01-31 16:11:20,1804854,1500.000,4187.000,6726.000,711.000,1501.000,1433.000,0.000,0.000,1
2026-01-31 16:11:20,1804894,1110.000,4114.000,6688.000,797.000,1871.000,2007.000,0.000,0.000,1
2026-01-31 16:11:20,1804934,1750.000,3614.000,5987.000,796.000,2520.000,1848.000,0.000,0.000,1
2026-01-31 16:11:20,1804974,2152.000,4872.000,6181.000,1458.000,3022.000,2314.000,0.000,0.000,1
2026-01-31 16:11:20,1805014,13.000,4923.000,7759.000,1157.000,3733.000,1231.000,0.000,0.000,1
2026-01-31 16:11:20,1805054,2132.000,4273.000,8834.000,-539.000,2591.000,2251.000,0.000,0.000,1
2026-01-31 16:11:20,1805094,311.000,2300.000,7437.000,-90.000,1669.000,1408.000,0.000,0.000,1
2026-01-31 16:11:20,1805134,3241.000,4341.000,8749.000,870.000,-156.000,2013.000,0.000,0.000,1
2026-01-31 16:11:20,1805174,1451.000,3020.000,6452.000,1190.000,-990.000,1584.000,0.000,0.000,1
2026-01-31 16:11:20,1805214,3423.000,5612.000,7197.000,1901.000,-1503.000,2973.000,0.000,0.000,1
2026-01-31 16:11:20,1805254,1854.000,4052.000,7162.000,1649.000,-591.000,3548.000,0.000,0.000,1
2026-01-31 16:11:20,1805294,2327.000,3480.000,6833.000,1464.000,-856.000,3925.000,0.000,0.000,1
2026-01-31 16:11:20,1805334,2631.000,4200.000,6062.000,1614.000,-2170.000,3825.000,0.000,0.000,1
2026-01-31 16:11:20,1805374,1870.000,4197.000,5742.000,1990.000,-2486.000,3410.000,0.000,0.000,1
2026-01-31 16:11:20,1805414,2419.000,4981.000,5733.000,2233.000,-2661.000,3053.000,0.000,0.000,1
2026-01-31 16:11:20,1805454,2366.000,4870.000,6189.000,1715.000,-2365.000,2546.000,0.000,0.000,1
2026-01-31 16:11:20,1805494,3056.000,5247.000,6330.000,2116.000,-2128.000,3263.000,0.000,0.000,1
2026-01-31 16:11:20,1805534,3065.000,4359.000,7344.000,1850.000,-947.000,3151.000,0.000,0.000,1
2026-01-31 16:11:20,1805577,6956.000,3821.000,5955.000,1854.000,-1682.000,2798.000,0.000,0.000,1
2026-01-31 16:11:20,1805616,3601.000,4386.000,5036.000,1558.000,-2564.000,1934.000,0.000,0.000,1
2026-01-31 16:11:20,1805654,5851.000,3790.000,4573.000,1374.000,-2947.000,1217.000,0.000,0.000,1
2026-01-31 16:11:20,1805694,4199.000,4196.000,4945.000,333.000,-2426.000,1171.000,0.000,0.000,1
2026-01-31 16:11:21,1805734,4959.000,3777.000,5339.000,-455.000,-2483.000,1357.000,0.000,0.000,1
2026-01-31 16:11:21,1805774,5478.000,4784.000,4741.000,-954.000,-2446.000,-41.000,0.000,0.000,1
2026-01-31 16:11:21,1805814,4393.000,3684.000,4358.000,-273.000,-1637.000,-858.000,0.000,0.000,1
2026-01-31 16:11:21,1805857,5203.000,4562.000,4791.000,1582.000,-878.000,-78.000,0.000,0.000,1
2026-01-31 16:11:21,1805894,5258.000,4454.000,5387.000,1170.000,-669.000,-130.000,0.000,0.000,1
2026-01-31 16:11:21,1805934,6834.000,3514.000,4556.000,1403.000,-643.000,-405.000,0.000,0.000,1
2026-01-31 16:11:21,1805974,7088.000,3088.000,5449.000,1815.000,25.000,-1388.000,0.000,0.000,1
2026-01-31 16:11:21,1806014,7894.000,3452.000,3372.000,3500.000,504.000,-724.000,0.000,0.000,1
2026-01-31 16:11:21,1806054,8000.000,3317.000,3720.000,4251.000,1301.000,-859.000,0.000,0.000,1
2026-01-31 16:11:21,1806094,5392.000,2806.000,5019.000,3477.000,2337.000,-916.000,0.000,0.000,1
2026-01-31 16:11:21,1806134,7748.000,4944.000,4399.000,3608.000,806.000,100.000,0.000,0.000,1
2026-01-31 16:11:21,1806174,4205.000,3224.000,4547.000,2734.000,2035.000,117.000,0.000,0.000,1
2026-01-31 16:11:21,1806214,8452.000,6066.000,2865.000,2829.000,-28.000,-548.000,0.000,0.000,1
2026-01-31 16:11:21,1806254,3880.000,1244.000,2986.000,1600.000,2314.000,-588.000,0.000,0.000,1
2026-01-31 16:11:21,1806294,7553.000,6180.000,1918.000,5272.000,1470.000,-176.000,0.000,0.000,1
2026-01-31 16:11:21,1806334,2866.000,3617.000,1865.000,4202.000,2346.000,-1068.000,0.000,0.000,1
2026-01-31 16:11:21,1806374,3765.000,4257.000,1887.000,7019.000,1480.000,-2779.000,0.000,0.000,1
2026-01-31 16:11:21,1806414,7421.000,9837.000,2148.000,4769.000,1087.000,-152.000,0.000,0.000,1
2026-01-31 16:11:21,1806454,3591.000,5976.000,2138.000,3150.000,2234.000,-1343.000,0.000,0.000,1
2026-01-31 16:11:21,1806494,3915.000,8300.000,1357.000,3433.000,2394.000,-553.000,0.000,0.000,1
2026-01-31 16:11:21,1806534,5102.000,7355.000,1466.000,1697.000,2882.000,179.000,0.000,0.000,1
2026-01-31 16:11:21,1806574,4777.000,7712.000,1312.000,852.000,3188.000,-9.000,0.000,0.000,1
2026-01-31 16:11:21,1806614,2722.000,7332.000,1941.000,1071.000,3823.000,516.000,0.000,0.000,1
2026-01-31 16:11:21,1806654,4535.000,7453.000,1984.000,379.000,3514.000,692.000,0.000,0.000,1
2026-01-31 16:11:21,1806694,3974.000,6634.000,1895.000,-565.000,3385.000,1470.000,0.000,0.000,1
2026-01-31 16:11:22,1806734,3827.000,7048.000,2067.000,-780.000,3047.000,1595.000,0.000,0.000,1
2026-01-31 16:11:22,1806774,3967.000,6483.000,1492.000,-859.000,2089.000,2014.000,0.000,0.000,1
2026-01-31 16:11:22,1806814,3027.000,6319.000,1685.000,9.000,2010.000,1938.000,0.000,53.360,1
2026-01-31 16:11:22,1806854,4595.000,6842.000,1679.000,-65.000,999.000,1549.000,0.000,53.360,1
2026-01-31 16:11:22,1806894,4736.000,6142.000,2103.000,487.000,1410.000,1356.000,0.000,53.360,1
2026-01-31 16:11:22,1806934,4260.000,6263.000,2338.000,767.000,1112.000,1035.000,0.000,53.360,1
2026-01-31 16:11:22,1806974,4674.000,6086.000,2209.000,954.000,965.000,992.000,0.000,53.360,1
2026-01-31 16:11:22,1807014,4845.000,6140.000,2541.000,1023.000,711.000,1177.000,0.000,53.360,1
2026-01-31 16:11:22,1807054,4427.000,5713.000,2424.000,1013.000,197.000,1022.000,0.000,53.360,1
2026-01-31 16:11:22,1807094,5292.000,5643.000,2454.000,878.000,-122.000,731.000,0.000,53.360,1
2026-01-31 16:11:22,1807134,4364.000,5651.000,1966.000,846.000,-24.000,63.000,0.000,53.360,1
2026-01-31 16:11:22,1807174,5526.000,6067.000,2437.000,1103.000,0.000,-376.000,0.000,53.360,1
2026-01-31 16:11:22,1807214,5006.000,5334.000,2322.000,1426.000,307.000,-886.000,0.000,53.360,1
2026-01-31 16:11:22,1807254,5416.000,5843.000,2659.000,1177.000,293.000,-686.000,0.000,53.360,1
2026-01-31 16:11:22,1807294,5258.000,5680.000,2746.000,1367.000,918.000,-700.000,0.000,53.360,1
2026-01-31 16:11:22,1807334,4340.000,5835.000,2270.000,1712.000,2242.000,-1015.000,0.000,53.360,1
2026-01-31 16:11:22,1807374,4603.000,6144.000,2018.000,2138.000,3222.000,-718.000,0.000,53.360,1
2026-01-31 16:11:22,1807414,3790.000,7234.000,3086.000,2290.000,4377.000,-712.000,0.000,53.360,1
2026-01-31 16:11:22,1807454,3854.000,6566.000,3640.000,1810.000,4562.000,-726.000,0.000,53.360,1
2026-01-31 16:11:22,1807494,3401.000,7069.000,3119.000,1542.000,3354.000,-1033.000,0.000,53.360,1
2026-01-31 16:11:22,1807534,3860.000,6562.000,2192.000,236.000,2288.000,-979.000,0.000,53.360,1
2026-01-31 16:11:22,1807577,3334.000,6895.000,2373.000,545.000,1935.000,-1338.000,0.000,53.360,1
2026-01-31 16:11:22,1807614,3384.000,6753.000,2627.000,118.000,1948.000,-1248.000,0.000,53.360,1
2026-01-31 16:11:22,1807654,2146.000,6869.000,4338.000,967.000,1976.000,-1871.000,0.000,53.360,1
2026-01-31 16:11:22,1807694,3606.000,7820.000,3553.000,-1198.000,1444.000,-1631.000,0.000,53.360,1
2026-01-31 16:11:23,1807734,2597.000,7511.000,2809.000,-1270.000,1564.000,-796.000,0.000,53.360,1
2026-01-31 16:11:23,1807774,2931.000,7776.000,2525.000,-827.000,1950.000,-260.000,0.000,53.360,1
2026-01-31 16:11:23,1807814,2122.000,6993.000,2535.000,-329.000,2331.000,277.000,0.000,0.190,1
2026-01-31 16:11:23,1807857,3114.000,6477.000,2020.000,290.000,1815.000,918.000,0.000,0.190,1
2026-01-31 16:11:23,1807894,3899.000,8528.000,1241.000,877.000,959.000,1045.000,0.000,0.190,1
2026-01-31 16:11:23,1807934,1936.000,8701.000,2527.000,1982.000,1097.000,1837.000,0.000,0.190,1
2026-01-31 16:11:23,1807974,2147.000,7874.000,3539.000,1800.000,904.000,1607.000,0.000,0.190,1
2026-01-31 16:11:23,1808014,1982.000,8570.000,3116.000,1907.000,832.000,1716.000,0.000,0.190,1
2026-01-31 16:11:23,1808054,1998.000,8551.000,3549.000,1402.000,659.000,1625.000,0.000,0.190,1
2026-01-31 16:11:23,1808094,2123.000,8356.000,3930.000,172.000,1318.000,2047.000,0.000,0.190,1
2026-01-31 16:11:23,1808134,2076.000,8207.000,4275.000,-157.000,1943.000,2825.000,0.000,0.190,1
2026-01-31 16:11:23,1808174,2102.000,8470.000,4617.000,184.000,3214.000,2519.000,0.000,0.190,1
2026-01-31 16:11:23,1808214,1820.000,7111.000,5400.000,-1593.000,3489.000,3009.000,0.000,0.190,1
2026-01-31 16:11:23,1808254,2306.000,7538.000,5245.000,-1361.000,3466.000,3083.000,0.000,0.190,1
2026-01-31 16:11:23,1808294,1606.000,6709.000,5149.000,-3431.000,3019.000,2156.000,0.000,0.190,1
2026-01-31 16:11:23,1808334,1669.000,6245.000,5259.000,-4109.000,1754.000,3153.000,0.000,0.190,1
2026-01-31 16:11:23,1808374,4032.000,4807.000,5917.000,-3601.000,1266.000,4031.000,0.000,0.190,1
2026-01-31 16:11:23,1808414,2174.000,5041.000,6003.000,-1892.000,1482.000,4439.000,0.000,0.190,1
2026-01-31 16:11:23,1808454,4053.000,3550.000,6057.000,-2497.000,-134.000,5920.000,0.000,0.190,1
2026-01-31 16:11:23,1808494,5892.000,2567.000,5617.000,-3809.000,-870.000,6737.000,0.000,0.190,1
2026-01-31 16:11:23,1808534,4406.000,1225.000,4672.000,-4064.000,-566.000,6287.000,0.000,0.190,1
2026-01-31 16:11:23,1808574,6215.000,1622.000,1924.000,-3157.000,131.000,5616.000,0.000,0.190,1
2026-01-31 16:11:23,1808614,7268.000,-1003.000,2742.000,-1163.000,470.000,4519.000,0.000,0.190,1
2026-01-31 16:11:23,1808654,8407.000,-2012.000,3654.000,1101.000,-523.000,3062.000,0.000,0.190,1
2026-01-31 16:11:23,1808694,6000.000,877.000,4325.000,5864.000,-486.000,195.000,0.000,0.190,1
2026-01-31 16:11:24,1808734,6320.000,3178.000,4742.000,2964.000,-725.000,473.000,0.000,0.190,1
2026-01-31 16:11:24,1808774,5674.000,715.000,4929.000,3218.000,163.000,15.000,0.000,0.190,1
2026-01-31 16:11:24,1808814,6266.000,3186.000,5171.000,3622.000,-389.000,-176.000,0.000,0.000,1
2026-01-31 16:11:24,1808854,6413.000,1611.000,4786.000,5093.000,-251.000,-105.000,0.000,0.000,1
2026-01-31 16:11:24,1808894,7195.000,2591.000,2486.000,7936.000,-1010.000,-284.000,0.000,0.000,1
2026-01-31 16:11:24,1808934,5608.000,4139.000,4046.000,5317.000,-720.000,96.000,0.000,0.000,1
2026-01-31 16:11:24,1808974,5438.000,4401.000,3472.000,3304.000,-885.000,82.000,0.000,0.000,1
2026-01-31 16:11:24,1809014,5021.000,3272.000,2461.000,3705.000,351.000,-870.000,0.000,0.000,1
2026-01-31 16:11:24,1809054,6344.000,2827.000,4040.000,1208.000,1088.000,-410.000,0.000,0.000,1
2026-01-31 16:11:24,1809094,5703.000,8343.000,6398.000,5203.000,1532.000,1.000,0.000,0.000,1
2026-01-31 16:11:24,1809134,5835.000,4374.000,6348.000,1923.000,2075.000,-86.000,0.000,0.000,1
2026-01-31 16:11:24,1809174,6129.000,6683.000,1957.000,110.000,1216.000,-1779.000,0.000,0.000,1
2026-01-31 16:11:24,1809214,2559.000,5520.000,4305.000,3470.000,2890.000,818.000,0.000,0.000,1
2026-01-31 16:11:24,1809254,5429.000,5077.000,8474.000,1049.000,3164.000,-11.000,0.000,0.000,1
2026-01-31 16:11:24,1809294,5150.000,4972.000,5959.000,-488.000,3958.000,1716.000,0.000,0.000,1
2026-01-31 16:11:24,1809334,3608.000,6130.000,3563.000,2372.000,3155.000,506.000,0.000,0.000,1
2026-01-31 16:11:24,1809374,3448.000,7491.000,4300.000,-440.000,2553.000,493.000,0.000,0.000,1
2026-01-31 16:11:24,1809414,4537.000,5621.000,7090.000,-2562.000,2569.000,-635.000,0.000,0.000,1
2026-01-31 16:11:24,1809454,4571.000,6829.000,5823.000,-2114.000,2788.000,-334.000,0.000,0.000,1
2026-01-31 16:11:24,1809494,2298.000,4753.000,5549.000,-3862.000,2768.000,14.000,0.000,0.000,1
2026-01-31 16:11:24,1809534,4369.000,4799.000,5449.000,-2292.000,3360.000,-707.000,0.000,0.000,1
2026-01-31 16:11:24,1809574,2913.000,5059.000,1004.000,-1303.000,2800.000,-2684.000,0.000,0.000,1
2026-01-31 16:11:24,1809614,5636.000,2383.000,1378.000,-3015.000,-9.000,-1746.000,0.000,0.000,1
2026-01-31 16:11:24,1809654,6963.000,2147.000,5909.000,221.000,883.000,-2082.000,0.000,0.000,1
2026-01-31 16:11:24,1809694,3757.000,6449.000,8126.000,3409.000,829.000,-1096.000,0.000,0.000,1
2026-01-31 16:11:25,1809734,4365.000,4712.000,6654.000,-990.000,-614.000,800.000,0.000,0.000,1
2026-01-31 16:11:25,1809774,3852.000,5298.000,6209.000,-2156.000,-1303.000,1409.000,0.000,0.000,1
2026-01-31 16:11:25,1809814,3023.000,4974.000,5717.000,-4807.000,-1613.000,1204.000,0.000,0.000,1
2026-01-31 16:11:25,1809857,1924.000,6270.000,5298.000,-6023.000,-1698.000,1419.000,0.000,0.000,1
2026-01-31 16:11:25,1809894,2220.000,5192.000,5958.000,-6336.000,-1127.000,1134.000,0.000,0.000,1
2026-01-31 16:11:25,1809934,4263.000,4956.000,6721.000,-4873.000,-340.000,898.000,0.000,0.000,1
2026-01-31 16:11:25,1809974,4318.000,3805.000,6451.000,-4345.000,317.000,894.000,0.000,0.000,1
2026-01-31 16:11:25,1810014,3008.000,3795.000,6435.000,-4467.000,19.000,1245.000,0.000,0.000,1
2026-01-31 16:11:25,1810054,4288.000,3081.000,5979.000,-5083.000,-18.000,1358.000,0.000,0.000,1
2026-01-31 16:11:25,1810094,4681.000,1858.000,5943.000,-3894.000,402.000,2011.000,0.000,0.000,1
2026-01-31 16:11:25,1810134,5116.000,1686.000,6290.000,-3695.000,786.000,1715.000,0.000,0.000,1
2026-01-31 16:11:25,1810174,6054.000,522.000,5046.000,-5698.000,326.000,1792.000,0.000,0.000,1
2026-01-31 16:11:25,1810214,6469.000,-658.000,6011.000,-5719.000,731.000,1769.000,0.000,0.000,1
2026-01-31 16:11:25,1810254,4956.000,-3012.000,5135.000,-6596.000,991.000,679.000,0.000,0.000,1
2026-01-31 16:11:25,1810294,4311.000,-2777.000,5491.000,-3875.000,960.000,-223.000,0.000,0.000,1
2026-01-31 16:11:25,1810334,5182.000,-3978.000,7255.000,-3096.000,926.000,-645.000,0.000,0.000,1
2026-01-31 16:11:25,1810374,4179.000,-1987.000,7121.000,-643.000,471.000,-443.000,0.000,0.000,1
2026-01-31 16:11:25,1810414,3438.000,-2497.000,5777.000,-1048.000,221.000,-521.000,0.000,0.000,1
2026-01-31 16:11:25,1810454,4829.000,-2395.000,7463.000,-345.000,14.000,-335.000,0.000,0.000,1
2026-01-31 16:11:25,1810494,4234.000,-3284.000,7231.000,1163.000,-497.000,-567.000,0.000,0.000,1
2026-01-31 16:11:25,1810534,4148.000,-1391.000,7176.000,949.000,-353.000,-719.000,0.000,0.000,1
2026-01-31 16:11:25,1810574,3861.000,-1603.000,7230.000,673.000,-608.000,-714.000,0.000,0.000,1
2026-01-31 16:11:25,1810614,3739.000,-718.000,7476.000,519.000,-641.000,80.000,0.000,0.000,1
2026-01-31 16:11:25,1810654,3645.000,-1701.000,7578.000,1547.000,-667.000,-100.000,0.000,0.000,1
2026-01-31 16:11:25,1810694,4364.000,-1700.000,7492.000,1677.000,-110.000,-656.000,0.000,0.000,1
2026-01-31 16:11:26,1810734,4301.000,-1391.000,7086.000,1530.000,-79.000,-561.000,0.000,0.000,1
2026-01-31 16:11:26,1810774,4230.000,-400.000,7456.000,1171.000,-90.000,-743.000,0.000,0.000,0
2026-01-31 16:11:26,1810814,3618.000,-482.000,7603.000,1495.000,38.000,-1167.000,0.000,0.000,1
2026-01-31 16:11:26,1810854,4411.000,1223.000,7630.000,2231.000,-73.000,-1170.000,0.000,0.000,1
2026-01-31 16:11:26,1810894,3697.000,1084.000,6664.000,1869.000,5.000,-1243.000,0.000,0.000,1
2026-01-31 16:11:26,1810934,3465.000,19.000,7108.000,1359.000,-547.000,-1581.000,0.000,0.000,1
2026-01-31 16:11:26,1810974,4481.000,-687.000,7714.000,492.000,-782.000,-2306.000,0.000,0.000,1
2026-01-31 16:11:26,1811014,4915.000,-476.000,8058.000,1922.000,40.000,-3478.000,0.000,0.000,1
2026-01-31 16:11:26,1811054,4099.000,1499.000,7541.000,1169.000,-501.000,-2793.000,0.000,0.000,1
2026-01-31 16:11:26,1811094,4257.000,2840.000,6982.000,486.000,-553.000,-2992.000,0.000,0.000,1
2026-01-31 16:11:26,1811134,4530.000,3850.000,6988.000,-437.000,-507.000,-1430.000,0.000,0.000,1
2026-01-31 16:11:26,1811174,2630.000,1241.000,6203.000,-1199.000,242.000,-674.000,0.000,0.000,1
2026-01-31 16:11:26,1811214,3970.000,1306.000,6128.000,449.000,654.000,-1452.000,0.000,0.000,1
2026-01-31 16:11:26,1811254,4862.000,1536.000,6519.000,-892.000,366.000,-2085.000,0.000,0.000,1
2026-01-31 16:11:26,1811294,5954.000,453.000,7099.000,-2685.000,188.000,-3172.000,0.000,0.000,1
2026-01-31 16:11:26,1811334,5177.000,-406.000,5365.000,-1037.000,298.000,-3562.000,0.000,0.000,1
2026-01-31 16:11:26,1811374,5561.000,-408.000,5579.000,-26.000,599.000,-4674.000,0.000,0.000,1
2026-01-31 16:11:26,1811414,5584.000,200.000,6094.000,1171.000,643.000,-4709.000,0.000,0.000,1
2026-01-31 16:11:26,1811454,5866.000,396.000,6977.000,2137.000,186.000,-4641.000,0.000,0.000,1
2026-01-31 16:11:26,1811494,5207.000,1024.000,7777.000,3603.000,-51.000,-5140.000,0.000,0.000,1
2026-01-31 16:11:26,1811534,4970.000,3681.000,7240.000,5068.000,503.000,-6044.000,0.000,0.000,1
2026-01-31 16:11:26,1811577,4970.000,3681.000,7479.000,1197.000,2864.000,-4589.000,0.000,0.000,1
2026-01-31 16:11:26,1811617,4061.000,5076.000,6844.000,2622.000,4646.000,-5187.000,0.000,0.000,1
2026-01-31 16:11:26,1811654,3424.000,5358.000,7511.000,3693.000,5775.000,-5962.000,0.000,0.000,1
2026-01-31 16:11:26,1811694,776.000,6745.000,8669.000,4974.000,7048.000,-8273.000,0.000,0.000,1
2026-01-31 16:11:27,1811734,-2188.000,7236.000,8705.000,2035.000,8699.000,-10696.000,0.000,0.000,1
2026-01-31 16:11:27,1811774,-3054.000,5814.000,7603.000,-297.000,8437.000,-11436.000,0.000,0.000,1
2026-01-31 16:11:27,1811814,-3676.000,5651.000,6443.000,-861.000,8718.000,-11669.000,0.000,0.000,1
2026-01-31 16:11:27,1811857,-4546.000,4457.000,5280.000,-3663.000,7327.000,-10994.000,0.000,0.000,1
2026-01-31 16:11:27,1811896,-5399.000,3334.000,5014.000,-4551.000,6858.000,-10231.000,0.000,0.000,1
2026-01-31 16:11:27,1811934,-5858.000,2387.000,4849.000,-4140.000,4909.000,-8373.000,0.000,0.000,1
2026-01-31 16:11:27,1811974,-6031.000,1976.000,4869.000,-3712.000,2562.000,-7187.000,0.000,0.000,1
2026-01-31 16:11:27,1812014,-5363.000,799.000,4709.000,-3748.000,387.000,-6027.000,0.000,0.000,1
2026-01-31 16:11:27,1812054,-5253.000,79.000,4397.000,-3322.000,-627.000,-5187.000,0.000,0.000,1
2026-01-31 16:11:27,1812094,-4305.000,-179.000,4373.000,-2091.000,-1536.000,-3544.000,0.000,0.000,1
2026-01-31 16:11:27,1812134,-4383.000,-1258.000,4622.000,-2734.000,-1039.000,-2213.000,0.000,0.000,1
2026-01-31 16:11:27,1812174,-4239.000,-1474.000,4310.000,-2109.000,-321.000,-768.000,0.000,0.000,1
2026-01-31 16:11:27,1812214,-5031.000,-1149.000,4223.000,-1166.000,-267.000,188.000,0.000,0.000,1
2026-01-31 16:11:27,1812254,-5211.000,-633.000,3981.000,-786.000,-19.000,-484.000,0.000,0.000,1
2026-01-31 16:11:27,1812294,-6341.000,-958.000,4238.000,-520.000,75.000,-764.000,0.000,0.000,1
2026-01-31 16:11:27,1812334,-6504.000,-1523.000,4831.000,642.000,-443.000,-1332.000,0.000,0.000,1
2026-01-31 16:11:27,1812374,-7704.000,-1611.000,6198.000,532.000,-413.000,-1673.000,0.000,0.000,1
2026-01-31 16:11:27,1812414,-7574.000,-2580.000,6098.000,-301.000,-783.000,-2529.000,0.000,0.000,1
2026-01-31 16:11:27,1812454,-7842.000,-2239.000,6320.000,-1122.000,-810.000,-4104.000,0.000,0.000,1
2026-01-31 16:11:27,1812494,-6199.000,-2285.000,5621.000,-1118.000,-770.000,-4858.000,0.000,0.000,1
2026-01-31 16:11:27,1812534,-5253.000,-2637.000,5684.000,-1858.000,163.000,-3885.000,0.000,0.000,1
2026-01-31 16:11:27,1812574,-4488.000,-3007.000,4852.000,-1110.000,255.000,-3201.000,0.000,0.000,1
2026-01-31 16:11:27,1812614,-3795.000,-3280.000,4401.000,-585.000,81.000,-2579.000,0.000,0.000,1
2026-01-31 16:11:27,1812654,-3819.000,-3594.000,3907.000,-122.000,-337.000,-2767.000,0.000,0.000,1
2026-01-31 16:11:27,1812694,-3787.000,-4528.000,3497.000,215.000,-906.000,-2746.000,0.000,0.000,1
2026-01-31 16:11:28,1812734,-5815.000,-5528.000,4126.000,3454.000,977.000,-2731.000,0.000,0.000,1
2026-01-31 16:11:28,1812774,-6723.000,-4848.000,4290.000,4176.000,957.000,-2823.000,0.000,0.000,1
2026-01-31 16:11:28,1812814,-6625.000,-2977.000,5338.000,4288.000,2385.000,-2466.000,0.000,0.000,1
2026-01-31 16:11:28,1812854,-5152.000,-2326.000,6070.000,3286.000,2170.000,-1844.000,0.000,0.000,1
2026-01-31 16:11:28,1812894,-4885.000,-1798.000,6220.000,2793.000,1731.000,-1057.000,0.000,0.000,1
2026-01-31 16:11:28,1812934,-5613.000,-2940.000,6562.000,1085.000,1826.000,-171.000,0.000,0.000,1
2026-01-31 16:11:28,1812974,-7045.000,-3402.000,5953.000,729.000,1207.000,1059.000,0.000,0.000,1
2026-01-31 16:11:28,1813014,-7090.000,-3394.000,6477.000,1151.000,-362.000,2499.000,0.000,0.000,1
2026-01-31 16:11:28,1813054,-6680.000,-1876.000,6464.000,2295.000,-2202.000,3024.000,0.000,0.000,1
2026-01-31 16:11:28,1813094,-5217.000,-734.000,6657.000,1437.000,-3148.000,2807.000,0.000,0.000,1
2026-01-31 16:11:28,1813134,-5668.000,-1803.000,5840.000,457.000,-2451.000,2094.000,0.000,0.000,1
2026-01-31 16:11:28,1813174,-5494.000,-1390.000,5874.000,1939.000,-2605.000,1683.000,0.000,0.000,1
2026-01-31 16:11:28,1813214,-5120.000,-334.000,5375.000,2502.000,-1905.000,820.000,0.000,0.000,1
2026-01-31 16:11:28,1813254,-4250.000,-892.000,5672.000,1057.000,-1353.000,-364.000,0.000,0.000,1
2026-01-31 16:11:28,1813294,-4941.000,-1015.000,5580.000,1594.000,-1161.000,48.000,0.000,0.000,1
2026-01-31 16:11:28,1813334,-4884.000,-1021.000,5181.000,1987.000,-1087.000,281.000,0.000,0.000,1
2026-01-31 16:11:28,1813374,-5968.000,-207.000,5753.000,2643.000,-1672.000,-229.000,0.000,0.000,1
2026-01-31 16:11:28,1813414,-5563.000,375.000,5718.000,3252.000,-2261.000,-1866.000,0.000,0.000,1
2026-01-31 16:11:28,1813454,-6149.000,-364.000,6273.000,3397.000,-3251.000,-2801.000,0.000,0.000,1
2026-01-31 16:11:28,1813494,-3445.000,89.000,7357.000,3705.000,-5285.000,-1843.000,0.000,0.000,1
2026-01-31 16:11:28,1813537,-543.000,1290.000,8347.000,4099.000,-7695.000,-1014.000,0.000,0.000,1
2026-01-31 16:11:28,1813576,700.000,1193.000,8860.000,2433.000,-6091.000,-337.000,0.000,0.000,1
2026-01-31 16:11:28,1813614,815.000,700.000,8566.000,1686.000,-4973.000,1631.000,0.000,0.000,1
2026-01-31 16:11:28,1813654,882.000,1630.000,8057.000,2208.000,-950.000,2440.000,0.000,0.000,1
2026-01-31 16:11:28,1813694,-847.000,1494.000,8162.000,800.000,2021.000,3416.000,0.000,0.000,1
2026-01-31 16:11:29,1813734,-1094.000,1869.000,7437.000,1583.000,3411.000,3415.000,0.000,0.000,1
2026-01-31 16:11:29,1813774,-2819.000,3005.000,7841.000,2200.000,4197.000,3279.000,0.000,0.000,0
2026-01-31 16:11:29,1813814,-2599.000,3324.000,7918.000,1074.000,4801.000,2845.000,0.000,0.000,1
2026-01-31 16:11:29,1813854,-3305.000,2232.000,6823.000,597.000,4637.000,3411.000,0.000,0.000,1
2026-01-31 16:11:29,1813894,-3704.000,3813.000,6406.000,2054.000,4780.000,2514.000,0.000,0.000,1
2026-01-31 16:11:29,1813934,-4390.000,3908.000,6969.000,-1194.000,5922.000,590.000,0.000,0.000,1
2026-01-31 16:11:29,1813974,-5590.000,2477.000,7288.000,-2705.000,6892.000,-433.000,0.000,0.000,1
2026-01-31 16:11:29,1814014,-8470.000,1759.000,6746.000,-3177.000,6997.000,-1937.000,0.000,0.000,1
2026-01-31 16:11:29,1814054,-8527.000,1124.000,6426.000,-3851.000,5115.000,-4198.000,0.000,0.000,1
2026-01-31 16:11:29,1814094,-6974.000,156.000,5403.000,-4176.000,3164.000,-5740.000,0.000,0.000,1
2026-01-31 16:11:29,1814134,-6221.000,-826.000,4861.000,-3250.000,1797.000,-5929.000,0.000,0.000,1
2026-01-31 16:11:29,1814174,-5341.000,-586.000,5041.000,-1759.000,883.000,-5363.000,0.000,0.000,1
2026-01-31 16:11:29,1814214,-5388.000,-1226.000,5321.000,-699.000,277.000,-4132.000,0.000,0.000,1
2026-01-31 16:11:29,1814254,-5186.000,-954.000,5631.000,560.000,-333.000,-2299.000,0.000,0.000,1
2026-01-31 16:11:29,1814294,-5504.000,-1025.000,6091.000,1076.000,-854.000,-1337.000,0.000,0.000,1
2026-01-31 16:11:29,1814334,-5036.000,-934.000,6204.000,934.000,-853.000,-839.000,0.000,0.000,1
2026-01-31 16:11:29,1814374,-5957.000,-791.000,6587.000,785.000,-576.000,-1251.000,0.000,0.000,1
2026-01-31 16:11:29,1814414,-5911.000,-954.000,7182.000,188.000,40.000,-1195.000,0.000,0.000,1
2026-01-31 16:11:29,1814454,-5819.000,-743.000,7323.000,-770.000,313.000,-1617.000,0.000,0.000,1
2026-01-31 16:11:29,1814494,-4886.000,-970.000,6743.000,-2099.000,369.000,-1712.000,0.000,0.000,1
2026-01-31 16:11:29,1814534,-4684.000,-1350.000,5647.000,-2439.000,32.000,-1330.000,0.000,0.000,1
2026-01-31 16:11:29,1814574,-4330.000,-1703.000,4716.000,-1901.000,-307.000,-501.000,0.000,0.000,1
2026-01-31 16:11:29,1814614,-4762.000,-2163.000,4419.000,-903.000,-536.000,579.000,0.000,0.000,1
2026-01-31 16:11:29,1814654,-5338.000,-2573.000,4805.000,-727.000,72.000,1237.000,0.000,0.000,1
2026-01-31 16:11:29,1814694,-6139.000,-2940.000,5028.000,21.000,486.000,1242.000,0.000,0.000,1
2026-01-31 16:11:30,1814734,-5739.000,-2614.000,5048.000,324.000,512.000,339.000,0.000,0.000,1
2026-01-31 16:11:30,1814774,-4343.000,-1805.000,4328.000,870.000,302.000,1035.000,0.000,0.000,1
2026-01-31 16:11:30,1814814,-4561.000,-1483.000,4158.000,1859.000,-420.000,2177.000,0.000,-170.750,1
2026-01-31 16:11:30,1814854,-4593.000,-1097.000,4264.000,3090.000,-915.000,2840.000,0.000,-170.750,1
2026-01-31 16:11:30,1814894,-4833.000,-1546.000,3662.000,3223.000,-974.000,3927.000,0.000,-170.750,1
2026-01-31 16:11:30,1814934,-6478.000,172.000,3833.000,3752.000,-162.000,5081.000,0.000,-170.750,1
2026-01-31 16:11:30,1814974,-7368.000,418.000,5017.000,2785.000,1052.000,7824.000,0.000,-170.750,1
2026-01-31 16:11:30,1815014,-7965.000,1010.000,6235.000,956.000,616.000,9358.000,0.000,-170.750,1
2026-01-31 16:11:30,1815054,-8695.000,580.000,7118.000,1944.000,-2519.000,11213.000,0.000,-170.750,1
2026-01-31 16:11:30,1815094,-4587.000,3390.000,7683.000,6488.000,-4958.000,12700.000,0.000,-170.750,1
2026-01-31 16:11:30,1815134,-3796.000,4765.000,7032.000,2120.000,-5997.000,12659.000,0.000,-170.750,1
2026-01-31 16:11:30,1815174,-2153.000,5101.000,6197.000,82.000,-7904.000,13442.000,0.000,-170.750,1
2026-01-31 16:11:30,1815214,195.000,4592.000,5932.000,-1075.000,-8973.000,13430.000,0.000,-170.750,1
2026-01-31 16:11:30,1815254,2097.000,4352.000,5813.000,-2662.000,-9063.000,12849.000,0.000,-170.750,1
2026-01-31 16:11:30,1815294,5147.000,2567.000,5208.000,-2284.000,-8667.000,13758.000,0.000,-170.750,1
2026-01-31 16:11:30,1815334,6986.000,3308.000,5859.000,937.000,-7156.000,10589.000,0.000,-170.750,1
2026-01-31 16:11:30,1815374,7187.000,6497.000,7120.000,-962.000,-5834.000,6729.000,0.000,-170.750,1
2026-01-31 16:11:30,1815414,6670.000,-406.000,7711.000,-6133.000,-2472.000,2055.000,0.000,-170.750,1
2026-01-31 16:11:30,1815454,5817.000,414.000,8779.000,4837.000,1349.000,-147.000,0.000,-170.750,1
2026-01-31 16:11:30,1815494,4456.000,2474.000,7309.000,6814.000,1072.000,2568.000,0.000,-170.750,1
2026-01-31 16:11:30,1815534,4598.000,2825.000,5618.000,3991.000,559.000,4548.000,0.000,-170.750,1
2026-01-31 16:11:30,1815574,5713.000,2694.000,6030.000,3946.000,600.000,3697.000,0.000,-170.750,1
2026-01-31 16:11:30,1815614,5792.000,1696.000,6245.000,3066.000,685.000,3943.000,0.000,-170.750,1
2026-01-31 16:11:30,1815654,4739.000,3335.000,7094.000,3074.000,768.000,3754.000,0.000,-170.750,1
2026-01-31 16:11:30,1815694,3332.000,4305.000,6590.000,2763.000,1521.000,2993.000,0.000,-170.750,1
2026-01-31 16:11:31,1815734,6817.000,3515.000,7107.000,292.000,1673.000,2029.000,0.000,-170.750,1
2026-01-31 16:11:31,1815774,2695.000,2349.000,6199.000,-2460.000,975.000,2796.000,0.000,-170.750,1
2026-01-31 16:11:31,1815814,5639.000,4593.000,6876.000,-1355.000,946.000,1670.000,0.000,-16.180,1
2026-01-31 16:11:31,1815857,5565.000,3568.000,6519.000,-283.000,1003.000,1170.000,0.000,-16.180,1
2026-01-31 16:11:31,1815894,4164.000,1925.000,6222.000,-269.000,1155.000,1295.000,0.000,-16.180,1
2026-01-31 16:11:31,1815934,4817.000,2703.000,6709.000,1418.000,1260.000,479.000,0.000,-16.180,1
2026-01-31 16:11:31,1815974,3455.000,2855.000,6198.000,2255.000,1325.000,-147.000,0.000,-16.180,1
2026-01-31 16:11:31,1816014,4130.000,3581.000,6555.000,278.000,915.000,-665.000,0.000,-16.180,1
2026-01-31 16:11:31,1816054,3894.000,2697.000,5500.000,286.000,790.000,-761.000,0.000,-16.180,1
2026-01-31 16:11:31,1816094,4034.000,3151.000,5898.000,-1107.000,856.000,-1533.000,0.000,-16.180,1
2026-01-31 16:11:31,1816134,4118.000,3437.000,6143.000,-1269.000,535.000,-2119.000,0.000,-16.180,1
2026-01-31 16:11:31,1816174,4652.000,3645.000,6078.000,-445.000,478.000,-2202.000,0.000,-16.180,1
2026-01-31 16:11:31,1816214,3321.000,3743.000,6783.000,-874.000,40.000,-1834.000,0.000,-16.180,1
2026-01-31 16:11:31,1816254,5838.000,2554.000,6739.000,-1643.000,-98.000,-1484.000,0.000,-16.180,1
2026-01-31 16:11:31,1816294,4342.000,3032.000,6010.000,-254.000,-186.000,-1804.000,0.000,-16.180,1
2026-01-31 16:11:31,1816334,3462.000,2760.000,4675.000,-233.000,-252.000,-2000.000,0.000,-16.180,1
2026-01-31 16:11:31,1816374,5027.000,2369.000,4947.000,-1663.000,-452.000,-2124.000,0.000,-16.180,1
2026-01-31 16:11:31,1816414,3393.000,3797.000,5779.000,-3243.000,-1220.000,-2372.000,0.000,-16.180,1
2026-01-31 16:11:31,1816454,6675.000,3321.000,7082.000,-5731.000,-996.000,-2817.000,0.000,-16.180,1
2026-01-31 16:11:31,1816494,4309.000,922.000,7326.000,-4941.000,-1028.000,-1598.000,0.000,-16.180,1
2026-01-31 16:11:31,1816534,3953.000,2178.000,7836.000,-868.000,-315.000,-1295.000,0.000,-16.180,1
2026-01-31 16:11:31,1816574,3532.000,3069.000,7726.000,-588.000,-300.000,-1116.000,0.000,-16.180,1
2026-01-31 16:11:31,1816614,3304.000,2619.000,7002.000,-1799.000,-232.000,-687.000,0.000,-16.180,1
2026-01-31 16:11:31,1816654,3397.000,1540.000,6756.000,-1468.000,142.000,-373.000,0.000,-16.180,1
2026-01-31 16:11:31,1816694,5618.000,940.000,7360.000,447.000,505.000,183.000,0.000,-16.180,1
2026-01-31 16:11:32,1816734,3083.000,1516.000,6919.000,3190.000,87.000,1662.000,0.000,8.207,1
2026-01-31 16:11:32,1816774,4156.000,3435.000,7529.000,3190.000,426.000,979.000,0.000,8.207,1
2026-01-31 16:11:32,1816814,3713.000,3502.000,7557.000,2261.000,-19.000,2014.000,0.000,8.207,1
2026-01-31 16:11:32,1816854,3770.000,3626.000,6793.000,788.000,-147.000,1915.000,0.000,8.207,1
2026-01-31 16:11:32,1816894,3278.000,3709.000,6547.000,394.000,-113.000,1629.000,0.000,8.207,1
2026-01-31 16:11:32,1816934,3561.000,2793.000,5805.000,931.000,257.000,1996.000,0.000,8.207,1
2026-01-31 16:11:32,1816974,4148.000,3282.000,6848.000,931.000,69.000,1591.000,0.000,8.207,1
2026-01-31 16:11:32,1817014,5132.000,2691.000,6934.000,-658.000,191.000,2194.000,0.000,8.207,1
2026-01-31 16:11:32,1817054,4104.000,3028.000,6922.000,-852.000,416.000,3198.000,0.000,8.207,1
2026-01-31 16:11:32,1817094,3692.000,1508.000,6004.000,-2567.000,693.000,2578.000,0.000,8.207,1
2026-01-31 16:11:32,1817134,4285.000,310.000,6431.000,-2143.000,284.000,1688.000,0.000,8.207,1
2026-01-31 16:11:32,1817174,3836.000,872.000,6230.000,-1331.000,-466.000,563.000,0.000,8.207,1
2026-01-31 16:11:32,1817214,5114.000,509.000,6745.000,-1235.000,-402.000,80.000,0.000,8.207,1
2026-01-31 16:11:32,1817254,5263.000,301.000,7088.000,-359.000,-267.000,-83.000,0.000,8.207,1
2026-01-31 16:11:32,1817294,4626.000,23.000,6793.000,258.000,-358.000,-294.000,0.000,8.207,1
2026-01-31 16:11:32,1817334,3798.000,178.000,7599.000,149.000,-413.000,-707.000,0.000,8.207,1
2026-01-31 16:11:32,1817374,4503.000,1229.000,6248.000,805.000,88.000,-712.000,0.000,8.207,1
2026-01-31 16:11:32,1817414,5587.000,1875.000,6867.000,1782.000,545.000,-359.000,0.000,8.207,1
2026-01-31 16:11:32,1817454,3260.000,2662.000,6363.000,2064.000,178.000,-598.000,0.000,8.207,1
2026-01-31 16:11:32,1817494,3934.000,3090.000,7259.000,-438.000,-417.000,-943.000,0.000,8.207,1
2026-01-31 16:11:32,1817534,5796.000,1265.000,7132.000,-1052.000,-487.000,-736.000,0.000,8.207,1
2026-01-31 16:11:32,1817574,4252.000,1135.000,7365.000,-122.000,65.000,-661.000,0.000,8.207,1
2026-01-31 16:11:32,1817614,4044.000,1755.000,6073.000,1468.000,403.000,-840.000,0.000,8.207,1
2026-01-31 16:11:32,1817654,4060.000,1818.000,6345.000,789.000,123.000,-870.000,0.000,8.207,1
2026-01-31 16:11:32,1817694,5149.000,1586.000,6226.000,1317.000,18.000,-1409.000,0.000,8.207,1
2026-01-31 16:11:33,1817734,3243.000,2537.000,6834.000,1698.000,-30.000,-1704.000,0.000,8.207,1
2026-01-31 16:11:33,1817774,5787.000,2387.000,5970.000,1442.000,-37.000,-1275.000,0.000,0.000,0
2026-01-31 16:11:33,1817814,4846.000,2030.000,5810.000,1533.000,147.000,-1414.000,0.000,4.074,1
2026-01-31 16:11:33,1817857,3775.000,2863.000,6376.000,1826.000,-121.000,-1436.000,0.000,4.074,1
2026-01-31 16:11:33,1817894,4596.000,3293.000,6519.000,1416.000,-335.000,-1241.000,0.000,4.074,1
2026-01-31 16:11:33,1817934,4774.000,2520.000,6923.000,47.000,-575.000,-1159.000,0.000,4.074,1
2026-01-31 16:11:33,1817974,3807.000,2302.000,6730.000,816.000,-165.000,-949.000,0.000,4.074,1
2026-01-31 16:11:33,1818014,4335.000,3563.000,6692.000,1948.000,-374.000,-174.000,0.000,4.074,1
2026-01-31 16:11:33,1818054,4592.000,4085.000,6908.000,718.000,-390.000,60.000,0.000,4.074,1
2026-01-31 16:11:33,1818094,3612.000,3550.000,6224.000,427.000,-356.000,1057.000,0.000,4.074,1
2026-01-31 16:11:33,1818134,4450.000,3544.000,6442.000,-325.000,-532.000,938.000,0.000,4.074,1
2026-01-31 16:11:33,1818174,4786.000,2750.000,6602.000,-872.000,-300.000,1255.000,0.000,4.074,1
2026-01-31 16:11:33,1818214,4312.000,3838.000,6744.000,467.000,78.000,1338.000,0.000,4.074,1
2026-01-31 16:11:33,1818254,4928.000,3408.000,6144.000,-28.000,96.000,1736.000,0.000,4.074,1
2026-01-31 16:11:33,1818294,3671.000,3964.000,6865.000,403.000,-46.000,1980.000,0.000,4.074,1
2026-01-31 16:11:33,1818334,5163.000,3842.000,6481.000,-394.000,22.000,2192.000,0.000,4.074,1
2026-01-31 16:11:33,1818374,3623.000,2250.000,6309.000,-1363.000,375.000,2594.000,0.000,4.074,1
2026-01-31 16:11:33,1818414,5209.000,2033.000,6128.000,-583.000,538.000,2623.000,0.000,4.074,1
2026-01-31 16:11:33,1818454,4312.000,1212.000,7134.000,-1963.000,563.000,2120.000,0.000,4.074,1
2026-01-31 16:11:33,1818494,5102.000,2168.000,6516.000,-33.000,617.000,1975.000,0.000,4.074,1
2026-01-31 16:11:33,1818534,3328.000,2612.000,6764.000,-1113.000,662.000,1664.000,0.000,4.074,1
2026-01-31 16:11:33,1818574,3975.000,2258.000,6638.000,-1240.000,977.000,1499.000,0.000,4.074,1
2026-01-31 16:11:33,1818614,4980.000,2082.000,6470.000,-495.000,799.000,1182.000,0.000,4.074,1
2026-01-31 16:11:33,1818654,4657.000,2091.000,6065.000,-575.000,665.000,954.000,0.000,4.074,1
2026-01-31 16:11:33,1818694,4847.000,1140.000,5636.000,-1126.000,357.000,552.000,0.000,4.074,1
2026-01-31 16:11:34,1818734,4139.000,1019.000,6247.000,-10.000,102.000,369.000,0.000,-14.152,1
2026-01-31 16:11:34,1818774,5565.000,682.000,7000.000,-538.000,130.000,27.000,0.000,-14.152,1
2026-01-31 16:11:34,1818814,4398.000,384.000,6731.000,-538.000,279.000,-163.000,0.000,-14.152,1
2026-01-31 16:11:34,1818854,4273.000,1017.000,6764.000,169.000,182.000,-507.000,0.000,-14.152,1
2026-01-31 16:11:34,1818894,4516.000,1997.000,6816.000,666.000,46.000,-602.000,0.000,-14.152,1
2026-01-31 16:11:34,1818934,3913.000,2406.000,7060.000,753.000,-73.000,-286.000,0.000,-14.152,1
2026-01-31 16:11:34,1818974,3349.000,1684.000,6119.000,214.000,143.000,-172.000,0.000,-14.152,1
2026-01-31 16:11:34,1819014,6070.000,1557.000,7047.000,369.000,104.000,-768.000,0.000,-14.152,1
2026-01-31 16:11:34,1819054,4350.000,1962.000,6825.000,1361.000,120.000,-940.000,0.000,-14.152,1
2026-01-31 16:11:34,1819094,3826.000,2280.000,6489.000,911.000,173.000,-1341.000,0.000,-14.152,1
2026-01-31 16:11:34,1819134,4609.000,2700.000,6717.000,427.000,190.000,-1369.000,0.000,-14.152,1
2026-01-31 16:11:34,1819174,4976.000,2051.000,5809.000,552.000,324.000,-1538.000,0.000,-14.152,1
2026-01-31 16:11:34,1819214,4950.000,2461.000,6764.000,685.000,81.000,-2091.000,0.000,-14.152,1
2026-01-31 16:11:34,1819254,3332.000,3274.000,6584.000,1144.000,194.000,-2130.000,0.000,-14.152,1
2026-01-31 16:11:34,1819294,5055.000,3105.000,6325.000,1138.000,181.000,-1909.000,0.000,-14.152,1
2026-01-31 16:11:34,1819334,4831.000,3025.000,6000.000,1806.000,-246.000,-1625.000,0.000,-14.152,1
2026-01-31 16:11:34,1819374,3175.000,3203.000,6810.000,547.000,-430.000,-1015.000,0.000,-14.152,1
2026-01-31 16:11:34,1819414,3419.000,3551.000,6222.000,441.000,-284.000,-435.000,0.000,-14.152,1
2026-01-31 16:11:34,1819454,4965.000,4054.000,6887.000,-953.000,-539.000,327.000,0.000,-14.152,1
2026-01-31 16:11:34,1819494,3428.000,2053.000,6951.000,-550.000,-503.000,530.000,0.000,-14.152,1
2026-01-31 16:11:34,1819534,5092.000,3135.000,8047.000,-705.000,-463.000,1139.000,0.000,-14.152,1
2026-01-31 16:11:34,1819577,4998.000,3159.000,6663.000,-1409.000,-702.000,1285.000,0.000,-14.152,1
2026-01-31 16:11:34,1819614,3632.000,3092.000,6194.000,-2247.000,-636.000,1240.000,0.000,-14.152,1
2026-01-31 16:11:34,1819654,4946.000,3305.000,6557.000,-2501.000,-791.000,1423.000,0.000,-14.152,1
2026-01-31 16:11:34,1819694,4298.000,1924.000,7357.000,-2250.000,-434.000,1321.000,0.000,-14.152,1
2026-01-31 16:11:35,1819734,4871.000,2444.000,7080.000,-1184.000,-84.000,1251.000,0.000,-14.152,1
2026-01-31 16:11:35,1819774,4150.000,1639.000,5611.000,-1695.000,124.000,1600.000,0.000,0.000,0
2026-01-31 16:11:35,1819814,3893.000,2077.000,6247.000,-2211.000,19.000,1575.000,0.000,0.000,1
2026-01-31 16:11:35,1819857,6058.000,263.000,5976.000,-1973.000,51.000,1303.000,0.000,0.000,1
2026-01-31 16:11:35,1819894,4506.000,-275.000,6589.000,-1310.000,83.000,969.000,0.000,0.000,1
2026-01-31 16:11:35,1819934,5747.000,677.000,7835.000,740.000,-55.000,291.000,0.000,0.000,1
2026-01-31 16:11:35,1819974,4809.000,835.000,7016.000,168.000,-182.000,297.000,0.000,0.000,1
2026-01-31 16:11:35,1820014,3965.000,272.000,5916.000,-565.000,-210.000,345.000,0.000,0.000,1
2026-01-31 16:11:35,1820054,4715.000,617.000,5794.000,20.000,-21.000,312.000,0.000,0.000,1
2026-01-31 16:11:35,1820094,3608.000,912.000,6925.000,517.000,194.000,-361.000,0.000,0.000,1
2026-01-31 16:11:35,1820134,6020.000,2252.000,7375.000,1738.000,-258.000,-379.000,0.000,0.000,1
2026-01-31 16:11:35,1820174,3921.000,887.000,6757.000,1082.000,-17.000,149.000,0.000,0.000,1
2026-01-31 16:11:35,1820214,4593.000,691.000,6279.000,801.000,-128.000,83.000,0.000,0.000,1
2026-01-31 16:11:35,1820254,4424.000,996.000,5952.000,947.000,-4.000,-176.000,0.000,0.000,1
2026-01-31 16:11:35,1820294,4681.000,1351.000,7270.000,981.000,45.000,-171.000,0.000,0.000,1
2026-01-31 16:11:35,1820334,3734.000,1537.000,5465.000,2378.000,27.000,849.000,0.000,0.000,1
2026-01-31 16:11:35,1820374,7856.000,3.000,7677.000,-1047.000,-1137.000,-2.000,0.000,0.000,1
2026-01-31 16:11:35,1820414,4125.000,-21.000,6707.000,2080.000,154.000,-529.000,0.000,0.000,1
2026-01-31 16:11:35,1820454,4209.000,3213.000,6378.000,2568.000,429.000,-885.000,0.000,0.000,1
2026-01-31 16:11:35,1820494,6500.000,2473.000,6614.000,1191.000,362.000,-807.000,0.000,0.000,1
2026-01-31 16:11:35,1820534,2721.000,2361.000,8327.000,1084.000,727.000,-952.000,0.000,0.000,1
2026-01-31 16:11:35,1820574,3755.000,2796.000,3503.000,3598.000,824.000,641.000,0.000,0.000,1
2026-01-31 16:11:35,1820614,4394.000,2479.000,5958.000,-1048.000,517.000,-1013.000,0.000,0.000,1
2026-01-31 16:11:35,1820654,5437.000,3320.000,5613.000,1158.000,635.000,-654.000,0.000,0.000,1
2026-01-31 16:11:35,1820694,3005.000,3425.000,7918.000,282.000,623.000,-818.000,0.000,0.000,1
2026-01-31 16:11:36,1820734,3715.000,4142.000,8106.000,287.000,745.000,-40.000,0.000,0.000,1
2026-01-31 16:11:36,1820774,5012.000,3912.000,7399.000,-526.000,323.000,190.000,0.000,0.000,1
2026-01-31 16:11:36,1820814,4580.000,2552.000,4829.000,-479.000,543.000,261.000,0.000,0.000,1
2026-01-31 16:11:36,1820854,4025.000,3512.000,6835.000,-827.000,-99.000,-151.000,0.000,0.000,1
2026-01-31 16:11:36,1820894,2938.000,3955.000,6568.000,-610.000,428.000,763.000,0.000,0.000,1
2026-01-31 16:11:36,1820934,3302.000,2155.000,5367.000,-2298.000,394.000,1040.000,0.000,0.000,1
2026-01-31 16:11:36,1820974,4187.000,2214.000,5937.000,-2090.000,372.000,482.000,0.000,0.000,1
2026-01-31 16:11:36,1821014,4799.000,1966.000,7253.000,-2357.000,279.000,157.000,0.000,0.000,1
2026-01-31 16:11:36,1821054,4397.000,3300.000,7941.000,-1367.000,176.000,19.000,0.000,0.000,1
2026-01-31 16:11:36,1821094,3934.000,2470.000,6688.000,-2027.000,53.000,820.000,0.000,0.000,1
2026-01-31 16:11:36,1821134,3979.000,1574.000,6139.000,-2502.000,3.000,712.000,0.000,0.000,1
2026-01-31 16:11:36,1821174,4363.000,929.000,5882.000,-2508.000,130.000,748.000,0.000,0.000,1
2026-01-31 16:11:36,1821214,5172.000,1125.000,6002.000,-2106.000,115.000,381.000,0.000,0.000,1
2026-01-31 16:11:36,1821254,5090.000,1520.000,7357.000,-1211.000,-108.000,138.000,0.000,0.000,1
2026-01-31 16:11:36,1821294,3859.000,848.000,7363.000,-1529.000,-105.000,276.000,0.000,0.000,1
2026-01-31 16:11:36,1821334,5706.000,627.000,6387.000,-1200.000,-290.000,86.000,0.000,0.000,1
2026-01-31 16:11:36,1821374,4045.000,416.000,5784.000,-916.000,-320.000,-286.000,0.000,0.000,1
2026-01-31 16:11:36,1821414,4828.000,523.000,6683.000,-1045.000,-531.000,-603.000,0.000,0.000,1
2026-01-31 16:11:36,1821454,4867.000,482.000,6692.000,297.000,-461.000,-645.000,0.000,0.000,1
2026-01-31 16:11:36,1821494,4115.000,717.000,7329.000,185.000,-369.000,-628.000,0.000,0.000,1
2026-01-31 16:11:36,1821534,4405.000,653.000,6541.000,481.000,-202.000,-753.000,0.000,0.000,1
2026-01-31 16:11:36,1821574,4541.000,1001.000,6818.000,556.000,-328.000,-703.000,0.000,0.000,1
2026-01-31 16:11:36,1821617,3557.000,1392.000,6553.000,1258.000,-240.000,-564.000,0.000,0.000,1
2026-01-31 16:11:36,1821656,4919.000,1055.000,6497.000,541.000,-599.000,-262.000,0.000,0.000,1
2026-01-31 16:11:36,1821695,5811.000,717.000,6820.000,295.000,-709.000,-271.000,0.000,0.000,1
2026-01-31 16:11:37,1821734,5607.000,888.000,6895.000,1053.000,-498.000,-771.000,0.000,0.000,1
2026-01-31 16:11:37,1821774,4248.000,1051.000,6074.000,1547.000,-463.000,-1393.000,0.000,0.000,1
2026-01-31 16:11:37,1821814,4416.000,865.000,6610.000,899.000,-295.000,-1896.000,0.000,0.000,1
2026-01-31 16:11:37,1821857,5226.000,1991.000,7044.000,1255.000,28.000,-2398.000,0.000,0.000,1
2026-01-31 16:11:37,1821894,3928.000,2635.000,6801.000,1517.000,91.000,-2689.000,0.000,0.000,1
2026-01-31 16:11:37,1821934,5117.000,4167.000,6124.000,2504.000,-181.000,-1728.000,0.000,0.000,1
2026-01-31 16:11:37,1821974,3702.000,3427.000,6136.000,1211.000,-135.000,-1714.000,0.000,0.000,1
2026-01-31 16:11:37,1822014,4018.000,2057.000,6919.000,1223.000,135.000,-1613.000,0.000,0.000,1
2026-01-31 16:11:37,1822054,4293.000,2866.000,6602.000,2621.000,325.000,-648.000,0.000,0.000,1
2026-01-31 16:11:37,1822094,3831.000,2714.000,6596.000,438.000,202.000,-302.000,0.000,0.000,1
2026-01-31 16:11:37,1822134,4667.000,3541.000,6997.000,696.000,-112.000,-4.000,0.000,0.000,1
2026-01-31 16:11:37,1822174,4159.000,3222.000,7269.000,140.000,-11.000,866.000,0.000,0.000,1
2026-01-31 16:11:37,1822214,3430.000,2988.000,6889.000,100.000,-232.000,1309.000,0.000,0.000,1
2026-01-31 16:11:37,1822254,5107.000,3599.000,7160.000,-859.000,-744.000,1143.000,0.000,0.000,1
2026-01-31 16:11:37,1822294,3536.000,4330.000,7530.000,-1395.000,-817.000,1563.000,0.000,0.000,1
2026-01-31 16:11:37,1822334,4100.000,4287.000,6579.000,-1742.000,-189.000,1821.000,0.000,0.000,1
2026-01-31 16:11:37,1822374,4938.000,2049.000,5730.000,-2505.000,494.000,2395.000,0.000,0.000,1
2026-01-31 16:11:37,1822414,5041.000,1488.000,6079.000,-1561.000,681.000,2115.000,0.000,0.000,1
2026-01-31 16:11:37,1822454,4514.000,1944.000,6634.000,-892.000,750.000,1808.000,0.000,0.000,1
2026-01-31 16:11:37,1822494,5767.000,1736.000,6774.000,-200.000,500.000,1711.000,0.000,0.000,1
2026-01-31 16:11:37,1822534,3510.000,1652.000,6552.000,-412.000,482.000,1585.000,0.000,0.000,1
2026-01-31 16:11:37,1822574,4663.000,1400.000,6754.000,-1219.000,474.000,1369.000,0.000,0.000,1
2026-01-31 16:11:37,1822614,3831.000,640.000,5944.000,-462.000,865.000,1131.000,0.000,0.000,1
2026-01-31 16:11:37,1822654,4640.000,1563.000,6312.000,-122.000,646.000,767.000,0.000,0.000,1
2026-01-31 16:11:37,1822694,5064.000,623.000,6124.000,-62.000,504.000,118.000,0.000,0.000,1
2026-01-31 16:11:38,1822734,3995.000,1006.000,6697.000,-286.000,268.000,-114.000,0.000,0.000,1
2026-01-31 16:11:38,1822774,5246.000,753.000,7488.000,29.000,-138.000,-893.000,0.000,0.000,1
2026-01-31 16:11:38,1822814,3676.000,1489.000,7836.000,-279.000,-465.000,-818.000,0.000,0.000,1
2026-01-31 16:11:38,1822854,4742.000,1388.000,6759.000,-941.000,-508.000,-866.000,0.000,0.000,1
2026-01-31 16:11:38,1822894,5299.000,1036.000,6520.000,-858.000,-491.000,-1082.000,0.000,0.000,1
2026-01-31 16:11:38,1822934,3490.000,1911.000,6418.000,115.000,-514.000,-1499.000,0.000,0.000,1
2026-01-31 16:11:38,1822974,4847.000,1992.000,6473.000,-406.000,-139.000,-1607.000,0.000,0.000,1
2026-01-31 16:11:38,1823014,4142.000,2072.000,6413.000,-691.000,-113.000,-1813.000,0.000,0.000,1
2026-01-31 16:11:38,1823054,3813.000,1600.000,5510.000,-217.000,124.000,-2020.000,0.000,0.000,1
2026-01-31 16:11:38,1823094,6209.000,825.000,5861.000,-224.000,65.000,-2626.000,0.000,0.000,1
2026-01-31 16:11:38,1823134,4618.000,2547.000,7058.000,1246.000,-294.000,-2160.000,0.000,0.000,1
2026-01-31 16:11:38,1823174,4263.000,3282.000,7199.000,887.000,8.000,-2466.000,0.000,0.000,1
2026-01-31 16:11:38,1823214,4043.000,2894.000,7131.000,-80.000,154.000,-1047.000,0.000,0.000,1
2026-01-31 16:11:38,1823254,3350.000,2672.000,6565.000,782.000,396.000,-709.000,0.000,0.000,1
2026-01-31 16:11:38,1823294,4496.000,2960.000,6592.000,282.000,144.000,-137.000,0.000,0.000,1
2026-01-31 16:11:38,1823334,3050.000,2513.000,7548.000,-402.000,-82.000,260.000,0.000,0.000,1
2026-01-31 16:11:38,1823374,4250.000,3184.000,7931.000,-112.000,34.000,857.000,0.000,0.000,1
2026-01-31 16:11:38,1823414,4061.000,2544.000,7211.000,-1711.000,-76.000,1515.000,0.000,0.000,1
2026-01-31 16:11:38,1823454,4692.000,1947.000,6580.000,-2249.000,-251.000,1321.000,0.000,0.000,1
2026-01-31 16:11:38,1823494,4620.000,1332.000,7088.000,-1784.000,-364.000,920.000,0.000,0.000,1
2026-01-31 16:11:38,1823534,6347.000,2300.000,7877.000,-958.000,-565.000,1168.000,0.000,0.000,1
2026-01-31 16:11:38,1823575,2792.000,2543.000,6952.000,-665.000,-416.000,981.000,0.000,0.000,1
2026-01-31 16:11:38,1823614,4711.000,1595.000,5861.000,-659.000,385.000,1527.000,0.000,0.000,1
2026-01-31 16:11:38,1823654,4066.000,1009.000,5219.000,-727.000,734.000,1245.000,0.000,0.000,1
2026-01-31 16:11:38,1823694,4573.000,210.000,5090.000,-591.000,838.000,912.000,0.000,0.000,1
2026-01-31 16:11:39,1823734,5529.000,692.000,6977.000,-941.000,253.000,469.000,0.000,0.000,1
2026-01-31 16:11:39,1823774,2757.000,1144.000,7447.000,-890.000,-593.000,-102.000,0.000,0.000,1
2026-01-31 16:11:39,1823814,8045.000,-303.000,7749.000,-1722.000,-342.000,502.000,0.000,0.000,1
2026-01-31 16:11:39,1823857,-241.000,-986.000,5647.000,919.000,-298.000,-359.000,0.000,0.000,1
2026-01-31 16:11:39,1823894,4385.000,25.000,6215.000,1566.000,18.000,-550.000,0.000,0.000,1
2026-01-31 16:11:39,1823934,3658.000,1113.000,6754.000,499.000,-696.000,-1018.000,0.000,0.000,1
2026-01-31 16:11:39,1823974,5445.000,815.000,7437.000,1283.000,-504.000,-790.000,0.000,0.000,1
2026-01-31 16:11:39,1824014,3003.000,1369.000,6477.000,1562.000,-271.000,-779.000,0.000,0.000,1
2026-01-31 16:11:39,1824054,4855.000,1558.000,5727.000,754.000,230.000,-1089.000,0.000,0.000,1
2026-01-31 16:11:39,1824094,4683.000,1295.000,6706.000,1213.000,390.000,-1100.000,0.000,0.000,1
2026-01-31 16:11:39,1824134,3313.000,2823.000,8155.000,1570.000,-68.000,-881.000,0.000,0.000,1
2026-01-31 16:11:39,1824174,5639.000,1030.000,6733.000,1170.000,432.000,-526.000,0.000,0.000,1
2026-01-31 16:11:39,1824214,4580.000,2703.000,8287.000,380.000,-1013.000,-400.000,0.000,0.000,1
2026-01-31 16:11:39,1824254,4354.000,1768.000,5993.000,513.000,-102.000,-276.000,0.000,0.000,1
2026-01-31 16:11:39,1824294,4431.000,984.000,5142.000,-364.000,-25.000,84.000,0.000,0.000,1
2026-01-31 16:11:39,1824334,5207.000,1333.000,5477.000,86.000,84.000,-140.000,0.000,0.000,1
2026-01-31 16:11:39,1824374,5389.000,1432.000,6920.000,-526.000,-125.000,-142.000,0.000,0.000,1
2026-01-31 16:11:39,1824414,4412.000,1216.000,7112.000,-332.000,-39.000,-333.000,0.000,0.000,1
2026-01-31 16:11:39,1824454,4593.000,2565.000,7565.000,850.000,-130.000,344.000,0.000,0.000,1
2026-01-31 16:11:39,1824494,4560.000,2057.000,7356.000,-98.000,-505.000,804.000,0.000,0.000,1
2026-01-31 16:11:39,1824534,3937.000,860.000,5890.000,-375.000,167.000,780.000,0.000,0.000,1
2026-01-31 16:11:39,1824574,4970.000,1276.000,6801.000,-476.000,-14.000,889.000,0.000,0.000,1
2026-01-31 16:11:39,1824614,5185.000,1449.000,7049.000,-380.000,-1.000,870.000,0.000,0.000,1
2026-01-31 16:11:39,1824654,3593.000,2540.000,7073.000,3.000,47.000,726.000,0.000,0.000,1
2026-01-31 16:11:39,1824694,3953.000,1117.000,6504.000,-495.000,2.000,892.000,0.000,0.000,1
2026-01-31 16:11:40,1824734,7112.000,460.000,7073.000,-1794.000,-92.000,807.000,0.000,0.000,1
2026-01-31 16:11:40,1824774,3214.000,1203.000,6173.000,-302.000,378.000,560.000,0.000,0.000,0
2026-01-31 16:11:40,1824814,5831.000,1081.000,6140.000,85.000,431.000,808.000,0.000,-29.611,1
2026-01-31 16:11:40,1824854,4771.000,175.000,6180.000,372.000,328.000,835.000,0.000,-29.611,1
2026-01-31 16:11:40,1824894,3388.000,482.000,6706.000,615.000,400.000,699.000,0.000,-29.611,1
2026-01-31 16:11:40,1824934,4289.000,-283.000,6588.000,-106.000,508.000,600.000,0.000,-29.611,1
2026-01-31 16:11:40,1824974,5289.000,-650.000,7369.000,-549.000,97.000,414.000,0.000,-29.611,1
2026-01-31 16:11:40,1825014,3923.000,707.000,7145.000,345.000,219.000,-46.000,0.000,-29.611,1
2026-01-31 16:11:40,1825054,4249.000,1634.000,6902.000,186.000,73.000,77.000,0.000,-29.611,1
2026-01-31 16:11:40,1825094,4007.000,1662.000,7253.000,380.000,-240.000,-141.000,0.000,-29.611,1
2026-01-31 16:11:40,1825134,5963.000,951.000,7471.000,-369.000,-486.000,-266.000,0.000,-29.611,1
2026-01-31 16:11:40,1825174,4189.000,593.000,6736.000,-114.000,-85.000,-564.000,0.000,-29.611,1
2026-01-31 16:11:40,1825214,4535.000,879.000,6765.000,50.000,-65.000,-1005.000,0.000,-29.611,1
2026-01-31 16:11:40,1825254,4491.000,1468.000,6617.000,324.000,-2.000,-1015.000,0.000,-29.611,1
2026-01-31 16:11:40,1825294,2741.000,2094.000,6230.000,356.000,421.000,-1094.000,0.000,-29.611,1
2026-01-31 16:11:40,1825334,6492.000,1399.000,6113.000,288.000,395.000,-993.000,0.000,-29.611,1
2026-01-31 16:11:40,1825374,4405.000,979.000,6077.000,744.000,128.000,-1227.000,0.000,-29.611,1
2026-01-31 16:11:40,1825414,4775.000,1282.000,6581.000,961.000,85.000,-1228.000,0.000,-29.611,1
2026-01-31 16:11:40,1825454,5650.000,935.000,6060.000,795.000,222.000,-1119.000,0.000,-29.611,1
2026-01-31 16:11:40,1825494,5043.000,1934.000,7687.000,835.000,-426.000,-1266.000,0.000,-29.611,1
2026-01-31 16:11:40,1825534,3894.000,1830.000,5757.000,1940.000,201.000,-847.000,0.000,-29.611,1
2026-01-31 16:11:40,1825574,5101.000,2436.000,6907.000,-163.000,-126.000,-553.000,0.000,-29.611,1
2026-01-31 16:11:40,1825614,5002.000,1273.000,6692.000,181.000,-210.000,-749.000,0.000,-29.611,1
2026-01-31 16:11:40,1825654,3436.000,3202.000,7581.000,1697.000,-70.000,-235.000,0.000,-29.611,1
2026-01-31 16:11:40,1825694,4543.000,2386.000,7195.000,-419.000,60.000,2.000,0.000,-29.611,1
2026-01-31 16:11:41,1825734,3935.000,2615.000,6857.000,-451.000,-131.000,602.000,0.000,-29.611,1
2026-01-31 16:11:41,1825774,3608.000,2353.000,7106.000,-1623.000,-166.000,792.000,0.000,-29.611,1
2026-01-31 16:11:41,1825814,4325.000,1732.000,6433.000,-1310.000,-37.000,977.000,0.000,3.760,1
2026-01-31 16:11:41,1825858,3861.000,1992.000,7693.000,-1404.000,-705.000,855.000,0.000,3.760,1
2026-01-31 16:11:41,1825896,4954.000,1867.000,6550.000,-1509.000,-259.000,977.000,0.000,3.760,1
2026-01-31 16:11:41,1825934,5163.000,1616.000,6334.000,-1996.000,-284.000,1078.000,0.000,3.760,1
2026-01-31 16:11:41,1825974,4991.000,659.000,5570.000,-1726.000,-89.000,1318.000,0.000,3.760,1
2026-01-31 16:11:41,1826014,4461.000,713.000,5885.000,-764.000,249.000,1538.000,0.000,3.760,1
2026-01-31 16:11:41,1826054,3854.000,1456.000,6706.000,62.000,111.000,1926.000,0.000,3.760,1
2026-01-31 16:11:41,1826094,8227.000,-858.000,6740.000,-1363.000,98.000,1686.000,0.000,3.760,1
2026-01-31 16:11:41,1826134,3896.000,-558.000,6755.000,177.000,101.000,1325.000,0.000,3.760,1
2026-01-31 16:11:41,1826174,4950.000,264.000,6554.000,176.000,157.000,825.000,0.000,3.760,1
2026-01-31 16:11:41,1826214,4878.000,-370.000,6366.000,-251.000,-59.000,423.000,0.000,3.760,1
2026-01-31 16:11:41,1826254,4562.000,116.000,6729.000,695.000,-62.000,-35.000,0.000,3.760,1
2026-01-31 16:11:41,1826294,5242.000,82.000,7211.000,401.000,-152.000,-416.000,0.000,3.760,1
2026-01-31 16:11:41,1826334,3559.000,366.000,7027.000,228.000,68.000,-555.000,0.000,3.760,1
2026-01-31 16:11:41,1826374,5163.000,633.000,6861.000,323.000,-108.000,-659.000,0.000,3.760,1
2026-01-31 16:11:41,1826414,3196.000,1511.000,6959.000,276.000,-38.000,-923.000,0.000,3.760,1
2026-01-31 16:11:41,1826454,5997.000,880.000,6457.000,495.000,261.000,-892.000,0.000,3.760,1
2026-01-31 16:11:41,1826494,5324.000,448.000,7485.000,559.000,-9.000,-1345.000,0.000,3.760,1
2026-01-31 16:11:41,1826534,4685.000,910.000,7464.000,341.000,56.000,-1558.000,0.000,3.760,1
2026-01-31 16:11:41,1826574,6445.000,1521.000,6085.000,510.000,297.000,-1241.000,0.000,3.760,1
2026-01-31 16:11:41,1826614,3486.000,1865.000,5770.000,1290.000,291.000,-926.000,0.000,3.760,1
2026-01-31 16:11:41,1826654,5875.000,1561.000,5956.000,1061.000,383.000,-932.000,0.000,3.760,1
2026-01-31 16:11:41,1826694,4843.000,1604.000,6974.000,1009.000,54.000,-682.000,0.000,3.760,1
2026-01-31 16:11:42,1826734,4082.000,1787.000,7520.000,361.000,287.000,-737.000,0.000,3.760,1
2026-01-31 16:11:42,1826774,4333.000,2664.000,7257.000,992.000,421.000,-368.000,0.000,3.760,1
2026-01-31 16:11:42,1826814,3208.000,2937.000,6829.000,857.000,333.000,-76.000,0.000,-8.670,1
2026-01-31 16:11:42,1826854,6533.000,2101.000,6950.000,-437.000,109.000,-44.000,0.000,-8.670,1
2026-01-31 16:11:42,1826894,2354.000,1158.000,7580.000,-413.000,-118.000,502.000,0.000,-8.670,1
2026-01-31 16:11:42,1826934,4882.000,2121.000,7614.000,-557.000,26.000,661.000,0.000,-8.670,1
2026-01-31 16:11:42,1826974,4521.000,1564.000,6496.000,-1879.000,-238.000,973.000,0.000,-8.670,1
2026-01-31 16:11:42,1827014,4304.000,1521.000,6568.000,-1812.000,-407.000,1051.000,0.000,-8.670,1
2026-01-31 16:11:42,1827054,5287.000,842.000,6788.000,-1897.000,-348.000,1134.000,0.000,-8.670,1
2026-01-31 16:11:42,1827094,4682.000,845.000,6618.000,-657.000,-171.000,1269.000,0.000,-8.670,1
2026-01-31 16:11:42,1827134,5109.000,33.000,6657.000,-1209.000,-155.000,1353.000,0.000,-8.670,1
2026-01-31 16:11:42,1827174,3896.000,163.000,6618.000,-746.000,-9.000,1257.000,0.000,-8.670,1
2026-01-31 16:11:42,1827214,4002.000,24.000,6345.000,-497.000,143.000,1434.000,0.000,-8.670,1
2026-01-31 16:11:42,1827254,5718.000,428.000,6779.000,-473.000,-332.000,1131.000,0.000,-8.670,1
2026-01-31 16:11:42,1827294,4378.000,911.000,7260.000,390.000,-59.000,532.000,0.000,-8.670,1
2026-01-31 16:11:42,1827334,4336.000,458.000,6964.000,-289.000,136.000,832.000,0.000,-8.670,1
2026-01-31 16:11:42,1827374,3380.000,301.000,6850.000,-825.000,220.000,449.000,0.000,-8.670,1
2026-01-31 16:11:42,1827414,5991.000,-1107.000,6316.000,-350.000,265.000,457.000,0.000,-8.670,1
2026-01-31 16:11:42,1827454,3413.000,-511.000,6754.000,335.000,218.000,-220.000,0.000,-8.670,1
2026-01-31 16:11:42,1827494,5838.000,-771.000,6998.000,649.000,-143.000,-848.000,0.000,-8.670,1
2026-01-31 16:11:42,1827534,4496.000,537.000,6767.000,1563.000,-366.000,-1354.000,0.000,-8.670,1
2026-01-31 16:11:42,1827577,5351.000,417.000,7414.000,296.000,-492.000,-1327.000,0.000,-8.670,1
2026-01-31 16:11:42,1827617,3475.000,157.000,6498.000,2269.000,-134.000,-1391.000,0.000,-8.670,1
2026-01-31 16:11:42,1827654,6337.000,800.000,6853.000,1977.000,-125.000,-1516.000,0.000,-8.670,1
2026-01-31 16:11:42,1827694,3640.000,632.000,6476.000,1155.000,-128.000,-1341.000,0.000,-8.670,1
2026-01-31 16:11:43,1827734,3726.000,936.000,6027.000,1198.000,265.000,-1655.000,0.000,-8.670,1
2026-01-31 16:11:43,1827774,4526.000,1153.000,5387.000,1532.000,362.000,-1256.000,0.000,-8.670,1
2026-01-31 16:11:43,1827814,5490.000,1434.000,6176.000,1707.000,-94.000,-1403.000,0.000,-6.700,1
2026-01-31 16:11:43,1827858,4422.000,2586.000,6882.000,2512.000,147.000,-775.000,0.000,-6.700,1
2026-01-31 16:11:43,1827894,5021.000,2901.000,7123.000,1693.000,107.000,-344.000,0.000,-6.700,1
2026-01-31 16:11:43,1827934,5961.000,1871.000,6272.000,1149.000,-22.000,-108.000,0.000,-6.700,1
2026-01-31 16:11:43,1827974,5004.000,1757.000,7383.000,1015.000,-217.000,-521.000,0.000,-6.700,1
2026-01-31 16:11:43,1828014,3635.000,3053.000,7393.000,1440.000,103.000,407.000,0.000,-6.700,1
2026-01-31 16:11:43,1828054,5145.000,2340.000,6791.000,-874.000,158.000,690.000,0.000,-6.700,1
2026-01-31 16:11:43,1828094,3718.000,2917.000,7026.000,-351.000,54.000,983.000,0.000,-6.700,1
2026-01-31 16:11:43,1828134,3253.000,2722.000,6443.000,-626.000,270.000,1300.000,0.000,-6.700,1
2026-01-31 16:11:43,1828174,7110.000,2433.000,6712.000,-1440.000,-110.000,1462.000,0.000,-6.700,1
2026-01-31 16:11:43,1828214,3477.000,2487.000,8069.000,-895.000,-331.000,2241.000,0.000,-6.700,1
2026-01-31 16:11:43,1828254,3732.000,2839.000,7139.000,-784.000,339.000,2424.000,0.000,-6.700,1
2026-01-31 16:11:43,1828294,6808.000,-131.000,5076.000,-1967.000,706.000,2625.000,0.000,-6.700,1
2026-01-31 16:11:43,1828334,3247.000,240.000,7224.000,-990.000,-162.000,2079.000,0.000,-6.700,1
2026-01-31 16:11:43,1828374,4667.000,171.000,7293.000,-635.000,356.000,1370.000,0.000,-6.700,1
2026-01-31 16:11:43,1828414,4505.000,109.000,6763.000,-990.000,232.000,1007.000,0.000,-6.700,1
2026-01-31 16:11:43,1828454,7180.000,-43.000,6847.000,-851.000,214.000,534.000,0.000,-6.700,1
2026-01-31 16:11:43,1828494,-458.000,2065.000,4730.000,1267.000,1254.000,592.000,0.000,-6.700,1
2026-01-31 16:11:43,1828534,8824.000,1743.000,5838.000,-1831.000,522.000,771.000,0.000,-6.700,1
2026-01-31 16:11:43,1828574,3803.000,-942.000,6141.000,-1850.000,-19.000,296.000,0.000,-6.700,1
2026-01-31 16:11:43,1828614,3203.000,-548.000,7344.000,250.000,423.000,-15.000,0.000,-6.700,1
2026-01-31 16:11:43,1828654,4382.000,-441.000,7663.000,212.000,147.000,-181.000,0.000,-6.700,1
2026-01-31 16:11:43,1828694,5789.000,461.000,7922.000,-163.000,-467.000,-691.000,0.000,-6.700,1
2026-01-31 16:11:44,1828734,2792.000,1552.000,7000.000,485.000,-337.000,-674.000,0.000,-6.700,1
2026-01-31 16:11:44,1828774,3139.000,951.000,5926.000,-114.000,-109.000,-745.000,0.000,-6.700,1
2026-01-31 16:11:44,1828814,9381.000,-195.000,6148.000,238.000,-184.000,-682.000,0.000,1.290,1
2026-01-31 16:11:44,1828854,1294.000,1419.000,6654.000,1433.000,-692.000,-2170.000,0.000,1.290,1
2026-01-31 16:11:44,1828894,5116.000,1999.000,5872.000,142.000,327.000,-1067.000,0.000,1.290,1
2026-01-31 16:11:44,1828934,5061.000,630.000,5351.000,-453.000,223.000,-1034.000,0.000,1.290,1
2026-01-31 16:11:44,1828974,5929.000,616.000,5878.000,1535.000,245.000,-1409.000,0.000,1.290,1
2026-01-31 16:11:44,1829014,3766.000,1930.000,7371.000,1360.000,98.000,-932.000,0.000,1.290,1
2026-01-31 16:11:44,1829054,4699.000,1633.000,7465.000,23.000,-10.000,-805.000,0.000,1.290,1
2026-01-31 16:11:44,1829094,5052.000,1505.000,7132.000,-153.000,-154.000,-886.000,0.000,1.290,1
2026-01-31 16:11:44,1829134,3899.000,2994.000,7157.000,978.000,-287.000,-945.000,0.000,1.290,1
2026-01-31 16:11:44,1829174,6306.000,2496.000,6820.000,291.000,123.000,-740.000,0.000,1.290,1
2026-01-31 16:11:44,1829214,3931.000,2551.000,7699.000,-285.000,-363.000,177.000,0.000,1.290,1
2026-01-31 16:11:44,1829254,4015.000,2405.000,6707.000,-1255.000,242.000,1017.000,0.000,1.290,1
2026-01-31 16:11:44,1829294,4005.000,1781.000,5893.000,-2126.000,277.000,1156.000,0.000,1.290,1
2026-01-31 16:11:44,1829334,4388.000,1050.000,6970.000,-1912.000,218.000,1345.000,0.000,1.290,1
2026-01-31 16:11:44,1829374,4658.000,1099.000,8571.000,-1834.000,-37.000,1097.000,0.000,1.290,1
2026-01-31 16:11:44,1829414,4955.000,803.000,7394.000,-1737.000,97.000,983.000,0.000,1.290,1
2026-01-31 16:11:44,1829454,3891.000,1100.000,6616.000,-1341.000,41.000,967.000,0.000,1.290,1
2026-01-31 16:11:44,1829494,6143.000,663.000,6488.000,-1623.000,5.000,1284.000,0.000,1.290,1
2026-01-31 16:11:44,1829534,5706.000,-122.000,6605.000,-1744.000,-233.000,877.000,0.000,1.290,1
2026-01-31 16:11:44,1829577,4749.000,541.000,6336.000,-1338.000,-37.000,238.000,0.000,1.290,1
2026-01-31 16:11:44,1829617,4043.000,872.000,6273.000,-1152.000,209.000,45.000,0.000,1.290,1
2026-01-31 16:11:44,1829654,4994.000,607.000,6231.000,-734.000,399.000,-14.000,0.000,1.290,1
2026-01-31 16:11:44,1829694,4793.000,99.000,6519.000,-171.000,670.000,176.000,0.000,1.290,1
2026-01-31 16:11:45,1829734,4947.000,-1033.000,7169.000,-388.000,567.000,-247.000,0.000,2.576,1
2026-01-31 16:11:45,1829774,3097.000,-1468.000,6642.000,289.000,400.000,-1088.000,0.000,2.576,1
2026-01-31 16:11:45,1829814,5169.000,-365.000,7423.000,232.000,97.000,-1416.000,0.000,2.576,1
2026-01-31 16:11:45,1829857,6033.000,670.000,7381.000,554.000,-239.000,-1705.000,0.000,2.576,1
2026-01-31 16:11:45,1829894,4989.000,288.000,7617.000,410.000,-312.000,-1519.000,0.000,2.576,1
2026-01-31 16:11:45,1829934,3949.000,755.000,7646.000,716.000,-400.000,-1716.000,0.000,2.576,1
2026-01-31 16:11:45,1829974,4151.000,908.000,7084.000,-797.000,-206.000,-1958.000,0.000,2.576,1
2026-01-31 16:11:45,1830014,3328.000,719.000,5522.000,-447.000,225.000,-1386.000,0.000,2.576,1
2026-01-31 16:11:45,1830054,6466.000,564.000,5563.000,492.000,398.000,-1494.000,0.000,2.576,1
2026-01-31 16:11:45,1830094,5433.000,269.000,5940.000,1439.000,179.000,-1348.000,0.000,2.576,1
2026-01-31 16:11:45,1830134,5078.000,922.000,6891.000,2099.000,-396.000,-1419.000,0.000,2.576,1
2026-01-31 16:11:45,1830174,4172.000,1626.000,7728.000,1659.000,-529.000,-515.000,0.000,2.576,1
2026-01-31 16:11:45,1830214,5169.000,995.000,6792.000,337.000,-211.000,-390.000,0.000,2.576,1
2026-01-31 16:11:45,1830254,5106.000,726.000,6028.000,996.000,-45.000,-259.000,0.000,2.576,1
2026-01-31 16:11:45,1830294,3226.000,1088.000,6831.000,1855.000,-107.000,-372.000,0.000,2.576,1
2026-01-31 16:11:45,1830334,4920.000,2024.000,7816.000,1199.000,7.000,-269.000,0.000,2.576,1
2026-01-31 16:11:45,1830374,3967.000,2271.000,7392.000,824.000,143.000,322.000,0.000,2.576,1
2026-01-31 16:11:45,1830414,5060.000,2108.000,6948.000,-499.000,-241.000,803.000,0.000,2.576,1
2026-01-31 16:11:45,1830454,3202.000,1925.000,7237.000,-418.000,-442.000,751.000,0.000,2.576,1
2026-01-31 16:11:45,1830494,5578.000,2338.000,6903.000,-167.000,-347.000,900.000,0.000,2.576,1
2026-01-31 16:11:45,1830534,3579.000,1072.000,6524.000,-1053.000,-228.000,1257.000,0.000,2.576,1
2026-01-31 16:11:45,1830574,4581.000,1119.000,7530.000,-1568.000,-230.000,1011.000,0.000,2.576,1
2026-01-31 16:11:45,1830614,4322.000,1809.000,7903.000,-2143.000,283.000,1174.000,0.000,2.576,1
2026-01-31 16:11:45,1830654,4731.000,1388.000,6762.000,-3362.000,638.000,1445.000,0.000,2.576,1
2026-01-31 16:11:45,1830694,5413.000,460.000,5839.000,-1084.000,891.000,1308.000,0.000,2.576,1
2026-01-31 16:11:46,1830734,4190.000,359.000,6138.000,-393.000,675.000,816.000,0.000,-10.740,1
2026-01-31 16:11:46,1830774,4114.000,187.000,6823.000,2361.000,714.000,-28.000,0.000,-10.740,1
2026-01-31 16:11:46,1830814,3858.000,2115.000,7215.000,2263.000,448.000,-485.000,0.000,-10.740,1
2026-01-31 16:11:46,1830854,5351.000,970.000,6656.000,-569.000,410.000,-382.000,0.000,-10.740,1
2026-01-31 16:11:46,1830894,4719.000,260.000,6998.000,-1702.000,379.000,-702.000,0.000,-10.740,1
2026-01-31 16:11:46,1830934,5673.000,-1062.000,6626.000,-1197.000,462.000,-1501.000,0.000,-10.740,1
2026-01-31 16:11:46,1830974,2386.000,1067.000,6198.000,456.000,-599.000,-1728.000,0.000,-10.740,1
2026-01-31 16:11:46,1831014,6488.000,793.000,6615.000,374.000,-398.000,-1858.000,0.000,-10.740,1
2026-01-31 16:11:46,1831054,1895.000,1706.000,7497.000,529.000,-481.000,-1331.000,0.000,-10.740,1
2026-01-31 16:11:46,1831094,4360.000,-134.000,6789.000,493.000,504.000,-874.000,0.000,-10.740,1
2026-01-31 16:11:46,1831134,3969.000,2835.000,6883.000,1992.000,-82.000,-1889.000,0.000,-10.740,1
2026-01-31 16:11:46,1831174,4434.000,1055.000,6446.000,-2087.000,-641.000,-524.000,0.000,-10.740,1
2026-01-31 16:11:46,1831214,6156.000,-1183.000,6727.000,-1455.000,-155.000,-1655.000,0.000,-10.740,1
2026-01-31 16:11:46,1831254,6667.000,1324.000,7186.000,1850.000,42.000,-1068.000,0.000,-10.740,1
2026-01-31 16:11:46,1831294,4090.000,1237.000,7022.000,933.000,34.000,-1530.000,0.000,-10.740,1
2026-01-31 16:11:46,1831334,4704.000,2402.000,7252.000,-1570.000,39.000,-747.000,0.000,-10.740,1
2026-01-31 16:11:46,1831374,4249.000,1163.000,6233.000,-1360.000,-68.000,-66.000,0.000,-10.740,1
2026-01-31 16:11:46,1831414,4133.000,1597.000,6783.000,26.000,-244.000,-472.000,0.000,-10.740,1
2026-01-31 16:11:46,1831454,4764.000,928.000,6963.000,-321.000,83.000,63.000,0.000,-10.740,1
2026-01-31 16:11:46,1831494,2696.000,951.000,6433.000,28.000,-88.000,865.000,0.000,-10.740,1
2026-01-31 16:11:46,1831534,4974.000,1276.000,8198.000,-964.000,-564.000,1005.000,0.000,-10.740,1
2026-01-31 16:11:46,1831577,4685.000,699.000,7591.000,-1587.000,-546.000,1725.000,0.000,-10.740,1
2026-01-31 16:11:46,1831614,4826.000,389.000,7087.000,-1355.000,-321.000,923.000,0.000,-10.740,1
2026-01-31 16:11:46,1831654,5497.000,477.000,7061.000,-909.000,-719.000,1449.000,0.000,-10.740,1
2026-01-31 16:11:46,1831694,3994.000,-89.000,6608.000,-1218.000,-1170.000,1494.000,0.000,-10.740,1
2026-01-31 16:11:47,1831734,5568.000,-525.000,6344.000,-529.000,-727.000,1376.000,0.000,-10.740,1
2026-01-31 16:11:47,1831774,4670.000,-533.000,6229.000,232.000,-798.000,1988.000,0.000,0.000,0
2026-01-31 16:11:47,1831814,4071.000,-469.000,6050.000,605.000,-570.000,1582.000,0.000,6.269,1
2026-01-31 16:11:47,1831857,4570.000,-783.000,6505.000,262.000,-202.000,1351.000,0.000,6.269,1
2026-01-31 16:11:47,1831894,2280.000,-218.000,7744.000,913.000,-681.000,2052.000,0.000,6.269,1
2026-01-31 16:11:47,1831934,2810.000,-152.000,6600.000,-931.000,-137.000,1208.000,0.000,6.269,1
2026-01-31 16:11:47,1831974,5496.000,702.000,6917.000,-885.000,619.000,142.000,0.000,6.269,1
2026-01-31 16:11:47,1832014,5720.000,-355.000,8061.000,-1290.000,682.000,413.000,0.000,6.269,1
2026-01-31 16:11:47,1832054,3542.000,122.000,6298.000,308.000,26.000,258.000,0.000,6.269,1
2026-01-31 16:11:47,1832094,3447.000,-247.000,6129.000,-809.000,-86.000,-456.000,0.000,6.269,1
2026-01-31 16:11:47,1832134,6499.000,-1375.000,7036.000,-353.000,608.000,-1384.000,0.000,6.269,1
2026-01-31 16:11:47,1832174,4178.000,-250.000,7794.000,754.000,490.000,-1109.000,0.000,6.269,1
2026-01-31 16:11:47,1832214,4520.000,117.000,6817.000,-1750.000,311.000,-1246.000,0.000,6.269,1
2026-01-31 16:11:47,1832254,4257.000,-124.000,7293.000,-2436.000,217.000,-1208.000,0.000,6.269,1
2026-01-31 16:11:47,1832294,4732.000,-428.000,6497.000,201.000,229.000,-1396.000,0.000,6.269,1
2026-01-31 16:11:47,1832334,4782.000,337.000,6557.000,1876.000,473.000,-1325.000,0.000,6.269,1
2026-01-31 16:11:47,1832374,4428.000,151.000,6091.000,903.000,70.000,-1366.000,0.000,6.269,1
2026-01-31 16:11:47,1832414,5699.000,-294.000,6459.000,23.000,386.000,-1251.000,0.000,6.269,1
2026-01-31 16:11:47,1832454,4767.000,-162.000,5941.000,1058.000,507.000,-921.000,0.000,6.269,1
2026-01-31 16:11:47,1832494,5972.000,776.000,6816.000,2116.000,477.000,-1018.000,0.000,6.269,1
2026-01-31 16:11:47,1832534,5396.000,1111.000,8114.000,2764.000,225.000,-502.000,0.000,6.269,1
2026-01-31 16:11:47,1832574,4237.000,765.000,8214.000,390.000,-108.000,-968.000,0.000,6.269,1
2026-01-31 16:11:47,1832614,2726.000,791.000,6249.000,-721.000,-487.000,532.000,0.000,6.269,1
2026-01-31 16:11:47,1832654,4400.000,1619.000,6921.000,-876.000,-264.000,181.000,0.000,6.269,1
2026-01-31 16:11:47,1832694,5186.000,513.000,7548.000,536.000,195.000,375.000,0.000,6.269,1
2026-01-31 16:11:48,1832734,4095.000,43.000,6980.000,-635.000,51.000,624.000,0.000,6.269,1
2026-01-31 16:11:48,1832774,2337.000,183.000,5976.000,-1522.000,-142.000,1840.000,0.000,6.269,1
2026-01-31 16:11:48,1832814,5158.000,982.000,7172.000,-953.000,-67.000,860.000,0.000,8.450,1
2026-01-31 16:11:48,1832854,5786.000,-208.000,7636.000,-350.000,-390.000,957.000,0.000,8.450,1
2026-01-31 16:11:48,1832894,5794.000,23.000,7603.000,64.000,-236.000,1536.000,0.000,8.450,1
2026-01-31 16:11:48,1832934,3731.000,-1161.000,5952.000,-984.000,-1315.000,1638.000,0.000,8.450,1
2026-01-31 16:11:48,1832974,6147.000,-1266.000,6781.000,-1762.000,-874.000,1114.000,0.000,8.450,1
2026-01-31 16:11:48,1833014,3978.000,-1110.000,5889.000,-1052.000,-759.000,873.000,0.000,8.450,1
2026-01-31 16:11:48,1833054,4460.000,-172.000,5764.000,-879.000,134.000,953.000,0.000,8.450,1
2026-01-31 16:11:48,1833094,6501.000,-1347.000,7287.000,-223.000,385.000,738.000,0.000,8.450,1
2026-01-31 16:11:48,1833134,2972.000,-926.000,6717.000,1261.000,-79.000,1680.000,0.000,8.450,1
2026-01-31 16:11:48,1833174,5669.000,7.000,7406.000,571.000,608.000,425.000,0.000,8.450,1
2026-01-31 16:11:48,1833214,3828.000,-1183.000,5768.000,-780.000,420.000,39.000,0.000,8.450,1
2026-01-31 16:11:48,1833254,4705.000,-1318.000,6593.000,465.000,383.000,-374.000,0.000,8.450,1
2026-01-31 16:11:48,1833294,6367.000,-613.000,8394.000,1776.000,215.000,-831.000,0.000,8.450,1
2026-01-31 16:11:48,1833334,4282.000,401.000,7905.000,1330.000,-354.000,-819.000,0.000,8.450,1
2026-01-31 16:11:48,1833374,4764.000,-215.000,6561.000,-2387.000,-416.000,-1331.000,0.000,8.450,1
2026-01-31 16:11:48,1833414,3670.000,-953.000,5513.000,-2268.000,44.000,-1018.000,0.000,8.450,1
2026-01-31 16:11:48,1833454,5975.000,74.000,6730.000,1881.000,1303.000,-1344.000,0.000,8.450,1
2026-01-31 16:11:48,1833494,3293.000,829.000,7276.000,3473.000,1068.000,-657.000,0.000,8.450,1
2026-01-31 16:11:48,1833534,5163.000,559.000,7758.000,1219.000,897.000,-953.000,0.000,8.450,1
2026-01-31 16:11:48,1833577,4828.000,-213.000,6749.000,145.000,244.000,-709.000,0.000,8.450,1
2026-01-31 16:11:48,1833617,4857.000,332.000,6190.000,-28.000,246.000,-975.000,0.000,8.450,1
2026-01-31 16:11:48,1833654,4990.000,404.000,5757.000,-10.000,162.000,-1300.000,0.000,8.450,1
2026-01-31 16:11:48,1833694,5459.000,1096.000,6696.000,847.000,230.000,-797.000,0.000,8.450,1
2026-01-31 16:11:49,1833734,3418.000,330.000,7018.000,1915.000,188.000,-66.000,0.000,-0.065,1
2026-01-31 16:11:49,1833774,5021.000,1559.000,7876.000,2004.000,324.000,-489.000,0.000,-0.065,1
2026-01-31 16:11:49,1833814,4376.000,832.000,7151.000,-326.000,265.000,-106.000,0.000,-0.065,1
2026-01-31 16:11:49,1833858,3030.000,768.000,6794.000,-299.000,-59.000,614.000,0.000,-0.065,1
2026-01-31 16:11:49,1833894,3469.000,1032.000,6951.000,-220.000,-55.000,560.000,0.000,-0.065,1
2026-01-31 16:11:49,1833934,3426.000,736.000,6682.000,-319.000,-185.000,866.000,0.000,-0.065,1
2026-01-31 16:11:49,1833974,6440.000,590.000,8049.000,95.000,72.000,18.000,0.000,-0.065,1
2026-01-31 16:11:49,1834014,4141.000,682.000,7947.000,-1041.000,-506.000,1126.000,0.000,-0.065,1
2026-01-31 16:11:49,1834054,4103.000,228.000,6678.000,-3119.000,-480.000,831.000,0.000,-0.065,1
2026-01-31 16:11:49,1834094,4746.000,17.000,6836.000,-3545.000,-149.000,696.000,0.000,-0.065,1
2026-01-31 16:11:49,1834134,2821.000,-775.000,6040.000,-2278.000,-314.000,1417.000,0.000,-0.065,1
2026-01-31 16:11:49,1834174,5563.000,-301.000,7246.000,-207.000,-234.000,1014.000,0.000,-0.065,1
2026-01-31 16:11:49,1834214,6102.000,-732.000,6705.000,-791.000,-633.000,799.000,0.000,-0.065,1
2026-01-31 16:11:49,1834254,4881.000,-972.000,6233.000,-2327.000,-910.000,466.000,0.000,-0.065,1
2026-01-31 16:11:49,1834294,4760.000,-1234.000,6310.000,-2354.000,-335.000,201.000,0.000,-0.065,1
2026-01-31 16:11:49,1834334,3967.000,-699.000,5910.000,-100.000,47.000,316.000,0.000,-0.065,1
2026-01-31 16:11:49,1834374,5123.000,-675.000,6578.000,1523.000,492.000,318.000,0.000,-0.065,1
2026-01-31 16:11:49,1834414,5094.000,-623.000,7523.000,2113.000,76.000,221.000,0.000,-0.065,1
2026-01-31 16:11:49,1834454,4558.000,-1026.000,7375.000,373.000,-393.000,-320.000,0.000,-0.065,1
2026-01-31 16:11:49,1834494,4337.000,-1203.000,6712.000,-1008.000,-448.000,-732.000,0.000,-0.065,1
2026-01-31 16:11:49,1834534,4974.000,-558.000,6509.000,-990.000,-58.000,-1141.000,0.000,-0.065,1
2026-01-31 16:11:49,1834574,3848.000,-952.000,5980.000,-647.000,557.000,-1400.000,0.000,-0.065,1
2026-01-31 16:11:49,1834614,4233.000,-66.000,6956.000,1869.000,528.000,-1255.000,0.000,-0.065,1
2026-01-31 16:11:49,1834654,4715.000,-43.000,7725.000,2183.000,39.000,-1219.000,0.000,-0.065,1
2026-01-31 16:11:49,1834694,5574.000,-235.000,7472.000,1332.000,-266.000,-1408.000,0.000,-0.065,1
2026-01-31 16:11:50,1834734,5534.000,90.000,6837.000,-858.000,-311.000,-1483.000,0.000,2.480,1
2026-01-31 16:11:50,1834774,4055.000,-1202.000,4851.000,-2220.000,-285.000,-1632.000,0.000,2.480,1
2026-01-31 16:11:50,1834814,3565.000,759.000,5565.000,1575.000,203.000,-229.000,0.000,2.480,1
2026-01-31 16:11:50,1834854,6098.000,991.000,7692.000,1881.000,619.000,-615.000,0.000,2.480,1
2026-01-31 16:11:50,1834894,5030.000,661.000,7591.000,1301.000,463.000,-50.000,0.000,2.480,1
2026-01-31 16:11:50,1834934,4787.000,-200.000,6913.000,14.000,-195.000,364.000,0.000,2.480,1
2026-01-31 16:11:50,1834974,4347.000,-363.000,6924.000,-504.000,-194.000,159.000,0.000,2.480,1
2026-01-31 16:11:50,1835014,3783.000,-1.000,6159.000,1.000,-469.000,514.000,0.000,2.480,1
2026-01-31 16:11:50,1835054,4608.000,308.000,6574.000,-378.000,173.000,266.000,0.000,2.480,1
2026-01-31 16:11:50,1835094,4437.000,823.000,6998.000,757.000,455.000,707.000,0.000,2.480,1
2026-01-31 16:11:50,1835134,5082.000,798.000,7786.000,871.000,453.000,830.000,0.000,2.480,1
2026-01-31 16:11:50,1835174,4054.000,596.000,7837.000,-87.000,-267.000,1124.000,0.000,2.480,1
2026-01-31 16:11:50,1835214,5040.000,-93.000,7214.000,-1371.000,80.000,940.000,0.000,2.480,1
2026-01-31 16:11:50,1835254,4638.000,-184.000,6318.000,-1033.000,-334.000,792.000,0.000,2.480,1
2026-01-31 16:11:50,1835294,4458.000,-148.000,6599.000,-1812.000,-309.000,561.000,0.000,2.480,1
2026-01-31 16:11:50,1835334,5556.000,-232.000,7251.000,-1322.000,-166.000,169.000,0.000,2.480,1
2026-01-31 16:11:50,1835374,4486.000,-399.000,6860.000,-1030.000,-94.000,28.000,0.000,2.480,1
2026-01-31 16:11:50,1835414,4119.000,-221.000,6024.000,-678.000,57.000,-223.000,0.000,2.480,1
2026-01-31 16:11:50,1835454,4844.000,-112.000,6031.000,-4.000,417.000,-175.000,0.000,2.480,1
2026-01-31 16:11:50,1835494,5412.000,-732.000,6634.000,736.000,491.000,-166.000,0.000,2.480,1
2026-01-31 16:11:50,1835534,4654.000,-803.000,6557.000,1230.000,111.000,-361.000,0.000,2.480,1
2026-01-31 16:11:50,1835574,5177.000,-651.000,6642.000,831.000,8.000,-788.000,0.000,2.480,1
2026-01-31 16:11:50,1835614,5457.000,-831.000,6477.000,310.000,-70.000,-772.000,0.000,2.480,1
2026-01-31 16:11:50,1835654,4640.000,-254.000,6317.000,272.000,-267.000,-461.000,0.000,2.480,1
2026-01-31 16:11:50,1835694,5790.000,-489.000,6334.000,254.000,-143.000,-456.000,0.000,2.480,1
2026-01-31 16:11:51,1835734,3297.000,-406.000,5760.000,1581.000,-555.000,385.000,0.000,-5.420,1
2026-01-31 16:11:51,1835774,7840.000,-1046.000,7529.000,773.000,898.000,-387.000,0.000,-5.420,1
2026-01-31 16:11:51,1835814,1418.000,297.000,5672.000,1648.000,-934.000,1372.000,0.000,-5.420,1
2026-01-31 16:11:51,1835857,5151.000,817.000,7634.000,94.000,-211.000,188.000,0.000,-5.420,1
2026-01-31 16:11:51,1835894,5763.000,455.000,7844.000,281.000,173.000,47.000,0.000,-5.420,1
2026-01-31 16:11:51,1835934,4675.000,420.000,7034.000,468.000,-107.000,636.000,0.000,-5.420,1
2026-01-31 16:11:51,1835974,4936.000,154.000,6575.000,-246.000,-283.000,-175.000,0.000,-5.420,1
2026-01-31 16:11:51,1836014,6131.000,60.000,7338.000,-879.000,114.000,-295.000,0.000,-5.420,1
2026-01-31 16:11:51,1836054,3613.000,479.000,6456.000,-331.000,-702.000,158.000,0.000,-5.420,1
2026-01-31 16:11:51,1836094,4508.000,209.000,5973.000,-95.000,-231.000,-250.000,0.000,-5.420,1
2026-01-31 16:11:51,1836134,5214.000,-328.000,6404.000,-489.000,254.000,20.000,0.000,-5.420,1
2026-01-31 16:11:51,1836174,6537.000,-743.000,7075.000,-77.000,697.000,-263.000,0.000,-5.420,1
2026-01-31 16:11:51,1836214,4280.000,-451.000,6957.000,118.000,-232.000,158.000,0.000,-5.420,1
2026-01-31 16:11:51,1836254,3785.000,427.000,5902.000,-483.000,-311.000,-8.000,0.000,-5.420,1
2026-01-31 16:11:51,1836294,4509.000,109.000,5521.000,-4.000,88.000,-68.000,0.000,-5.420,1
2026-01-31 16:11:51,1836334,5083.000,-312.000,6493.000,1054.000,317.000,126.000,0.000,-5.420,1
2026-01-31 16:11:51,1836374,5627.000,-223.000,7490.000,1163.000,285.000,161.000,0.000,-5.420,1
2026-01-31 16:11:51,1836414,5167.000,-438.000,7352.000,154.000,-22.000,131.000,0.000,-5.420,1
2026-01-31 16:11:51,1836454,5339.000,-203.000,6911.000,-259.000,-372.000,-185.000,0.000,-5.420,1
2026-01-31 16:11:51,1836494,3953.000,374.000,5930.000,-146.000,-434.000,19.000,0.000,-5.420,1
2026-01-31 16:11:51,1836534,6275.000,426.000,6680.000,50.000,216.000,-258.000,0.000,-5.420,1
2026-01-31 16:11:51,1836574,4062.000,-70.000,6473.000,543.000,22.000,411.000,0.000,-5.420,1
2026-01-31 16:11:51,1836614,5138.000,-72.000,6909.000,688.000,325.000,-77.000,0.000,-5.420,1
2026-01-31 16:11:51,1836654,5831.000,471.000,7356.000,685.000,97.000,-180.000,0.000,-5.420,1
2026-01-31 16:11:51,1836694,3999.000,163.000,6827.000,-74.000,-374.000,-11.000,0.000,-5.420,1
2026-01-31 16:11:52,1836734,4745.000,281.000,5791.000,-617.000,-233.000,-276.000,0.000,-5.420,1
2026-01-31 16:11:52,1836774,4861.000,-159.000,6170.000,-269.000,137.000,-213.000,0.000,0.000,0
2026-01-31 16:11:52,1836814,4823.000,64.000,6628.000,708.000,292.000,-134.000,0.000,5.398,1
2026-01-31 16:11:52,1836854,6241.000,605.000,7298.000,732.000,264.000,-121.000,0.000,5.398,1
2026-01-31 16:11:52,1836894,4317.000,3.000,6807.000,213.000,-136.000,79.000,0.000,5.398,1
2026-01-31 16:11:52,1836934,5747.000,262.000,6647.000,185.000,-145.000,-348.000,0.000,5.398,1
2026-01-31 16:11:52,1836974,4601.000,241.000,6366.000,527.000,-221.000,-186.000,0.000,5.398,1
2026-01-31 16:11:52,1837014,5169.000,616.000,6543.000,550.000,-92.000,-120.000,0.000,5.398,1
2026-01-31 16:11:52,1837054,4838.000,316.000,6486.000,254.000,-95.000,115.000,0.000,5.398,1
2026-01-31 16:11:52,1837094,4922.000,183.000,6432.000,445.000,130.000,76.000,0.000,5.398,1
2026-01-31 16:11:52,1837134,5491.000,447.000,6746.000,555.000,161.000,7.000,0.000,5.398,1
2026-01-31 16:11:52,1837174,4919.000,594.000,6791.000,496.000,20.000,274.000,0.000,5.398,1
2026-01-31 16:11:52,1837214,4868.000,244.000,6529.000,262.000,-18.000,162.000,0.000,5.398,1
2026-01-31 16:11:52,1837254,5058.000,377.000,6863.000,241.000,126.000,110.000,0.000,5.398,1
2026-01-31 16:11:52,1837294,4302.000,720.000,6614.000,375.000,118.000,192.000,0.000,5.398,1
2026-01-31 16:11:52,1837334,5911.000,840.000,6995.000,400.000,460.000,130.000,0.000,5.398,1
2026-01-31 16:11:52,1837374,4152.000,529.000,6866.000,699.000,-43.000,519.000,0.000,5.398,1
2026-01-31 16:11:52,1837414,5140.000,911.000,7058.000,211.000,0.000,119.000,0.000,5.398,1
2026-01-31 16:11:52,1837454,4627.000,600.000,6640.000,157.000,-85.000,319.000,0.000,5.398,1
2026-01-31 16:11:52,1837494,4703.000,902.000,6654.000,150.000,9.000,220.000,0.000,5.398,1
2026-01-31 16:11:52,1837534,3958.000,609.000,6492.000,-167.000,276.000,309.000,0.000,5.398,1
2026-01-31 16:11:52,1837574,122.000,669.000,4000.000,1097.000,149.000,1754.000,0.000,5.398,1
2026-01-31 16:11:52,1837614,16020.000,-2939.000,6983.000,-1506.000,1259.000,-4984.000,0.000,5.398,1
2026-01-31 16:11:52,1837654,4437.000,3215.000,7127.000,1825.000,397.000,-1925.000,0.000,5.398,1
2026-01-31 16:11:52,1837694,4591.000,2086.000,6259.000,-1812.000,82.000,-97.000,0.000,5.398,1
2026-01-31 16:11:53,1837734,6099.000,865.000,6299.000,-1293.000,320.000,-268.000,0.000,5.398,1
2026-01-31 16:11:53,1837774,4141.000,749.000,6451.000,1144.000,318.000,113.000,0.000,5.398,1
2026-01-31 16:11:53,1837814,4808.000,568.000,6553.000,181.000,532.000,-231.000,0.000,4.260,1
2026-01-31 16:11:53,1837857,4645.000,754.000,7118.000,-136.000,143.000,-570.000,0.000,4.260,1
2026-01-31 16:11:53,1837894,4153.000,987.000,6918.000,-202.000,-45.000,-460.000,0.000,4.260,1
2026-01-31 16:11:53,1837934,5375.000,1409.000,6435.000,-183.000,-64.000,-605.000,0.000,4.260,1
2026-01-31 16:11:53,1837974,6051.000,549.000,6361.000,-205.000,-161.000,-289.000,0.000,4.260,1
2026-01-31 16:11:53,1838014,3157.000,510.000,6242.000,-206.000,-917.000,-61.000,0.000,4.260,1
2026-01-31 16:11:53,1838054,3587.000,981.000,6208.000,-811.000,788.000,-137.000,0.000,4.260,1
2026-01-31 16:11:53,1838094,7342.000,258.000,6156.000,694.000,584.000,-515.000,0.000,4.260,1
2026-01-31 16:11:53,1838134,5697.000,127.000,8112.000,2377.000,-456.000,55.000,0.000,4.260,1
2026-01-31 16:11:53,1838174,4267.000,1439.000,7719.000,1360.000,-1109.000,222.000,0.000,4.260,1
2026-01-31 16:11:53,1838214,4384.000,-222.000,5433.000,-1787.000,-1046.000,441.000,0.000,4.260,1
2026-01-31 16:11:53,1838254,4231.000,-206.000,4807.000,-895.000,-1135.000,195.000,0.000,4.260,1
2026-01-31 16:11:53,1838294,5037.000,771.000,5932.000,41.000,-793.000,1267.000,0.000,4.260,1
2026-01-31 16:11:53,1838334,7360.000,47.000,6687.000,2673.000,-376.000,-1092.000,0.000,4.260,1
2026-01-31 16:11:53,1838374,4796.000,546.000,6833.000,2122.000,-643.000,973.000,0.000,4.260,1
2026-01-31 16:11:53,1838414,6161.000,509.000,6886.000,828.000,-828.000,478.000,0.000,4.260,1
2026-01-31 16:11:53,1838454,5602.000,818.000,6177.000,1387.000,-1210.000,1135.000,0.000,4.260,1
2026-01-31 16:11:53,1838494,5005.000,861.000,6569.000,969.000,-1325.000,1808.000,0.000,4.260,1
2026-01-31 16:11:53,1838534,5164.000,225.000,6231.000,465.000,-1385.000,1586.000,0.000,4.260,1
2026-01-31 16:11:53,1838574,6193.000,300.000,5969.000,746.000,-702.000,1332.000,0.000,4.260,1
2026-01-31 16:11:53,1838614,5066.000,1221.000,5952.000,1230.000,-390.000,1756.000,0.000,4.260,1
2026-01-31 16:11:53,1838654,5168.000,911.000,5850.000,1054.000,107.000,1885.000,0.000,4.260,1
2026-01-31 16:11:53,1838694,7224.000,193.000,5862.000,1755.000,739.000,1871.000,0.000,4.260,1
2026-01-31 16:11:54,1838734,4128.000,187.000,6766.000,2498.000,200.000,2117.000,0.000,4.260,1
2026-01-31 16:11:54,1838774,2929.000,2419.000,6255.000,1342.000,-120.000,1435.000,0.000,4.260,1
2026-01-31 16:11:54,1838814,2692.000,1770.000,4828.000,828.000,614.000,2514.000,0.000,-9.240,1
2026-01-31 16:11:54,1838854,2695.000,954.000,5250.000,1572.000,76.000,1877.000,0.000,-9.240,1
2026-01-31 16:11:54,1838894,13128.000,1019.000,8878.000,2.000,812.000,2024.000,0.000,-9.240,1
2026-01-31 16:11:54,1838934,2255.000,-1929.000,7585.000,5258.000,-1964.000,3988.000,0.000,-9.240,1
2026-01-31 16:11:54,1838974,2410.000,1367.000,6941.000,-226.000,-1044.000,202.000,0.000,-9.240,1
2026-01-31 16:11:54,1839014,2938.000,409.000,4759.000,-2802.000,-813.000,1666.000,0.000,-9.240,1
2026-01-31 16:11:54,1839054,12886.000,-300.000,7365.000,-646.000,-82.000,-1644.000,0.000,-9.240,1
2026-01-31 16:11:54,1839094,3326.000,-397.000,6163.000,1603.000,-489.000,617.000,0.000,-9.240,1
2026-01-31 16:11:54,1839134,5513.000,1092.000,6061.000,1619.000,733.000,97.000,0.000,-9.240,1
2026-01-31 16:11:54,1839174,8025.000,894.000,6724.000,510.000,1350.000,-252.000,0.000,-9.240,1
2026-01-31 16:11:54,1839214,2473.000,743.000,6797.000,1910.000,289.000,-247.000,0.000,-9.240,1
2026-01-31 16:11:54,1839254,5406.000,4159.000,6213.000,2905.000,-16.000,-940.000,0.000,-9.240,1
2026-01-31 16:11:54,1839294,5550.000,978.000,4173.000,-817.000,927.000,-809.000,0.000,-9.240,1
2026-01-31 16:11:54,1839334,4064.000,527.000,5265.000,-2146.000,168.000,-863.000,0.000,-9.240,1
2026-01-31 16:11:54,1839374,2786.000,1510.000,5176.000,1075.000,5413.000,96.000,0.000,-9.240,1
2026-01-31 16:11:54,1839414,6738.000,4839.000,4058.000,934.000,1017.000,-2580.000,0.000,-9.240,1
2026-01-31 16:11:54,1839454,6351.000,116.000,10279.000,-6568.000,3088.000,-2499.000,0.000,-9.240,1
2026-01-31 16:11:54,1839494,2311.000,1507.000,9529.000,3862.000,453.000,2235.000,0.000,-9.240,1
2026-01-31 16:11:54,1839534,3645.000,1531.000,7477.000,2338.000,-761.000,631.000,0.000,-9.240,1
2026-01-31 16:11:54,1839577,3383.000,1587.000,5054.000,-1820.000,169.000,1296.000,0.000,-9.240,1
2026-01-31 16:11:54,1839616,4023.000,1527.000,4890.000,-1655.000,447.000,500.000,0.000,-9.240,1
2026-01-31 16:11:54,1839654,6451.000,1693.000,5085.000,-627.000,357.000,-303.000,0.000,-9.240,1
2026-01-31 16:11:54,1839694,3751.000,431.000,7510.000,524.000,-104.000,-828.000,0.000,-9.240,1
2026-01-31 16:11:55,1839734,1421.000,1965.000,7378.000,385.000,-157.000,3174.000,0.000,-9.240,1
2026-01-31 16:11:55,1839774,6803.000,3053.000,6730.000,-2629.000,-148.000,-1752.000,0.000,-9.240,1
2026-01-31 16:11:55,1839814,5898.000,-428.000,7282.000,-2780.000,-637.000,950.000,0.000,-4.780,1
2026-01-31 16:11:55,1839857,-1474.000,3520.000,6408.000,3077.000,-1807.000,4738.000,0.000,-4.780,1
2026-01-31 16:11:55,1839896,4809.000,2979.000,8200.000,-2118.000,-8.000,4099.000,0.000,-4.780,1
2026-01-31 16:11:55,1839934,-1.000,77.000,6002.000,-6462.000,-2332.000,5024.000,0.000,-4.780,1
2026-01-31 16:11:55,1839974,8576.000,-792.000,7365.000,-3780.000,-687.000,-1568.000,0.000,-4.780,1
2026-01-31 16:11:55,1840014,2493.000,1085.000,5119.000,-388.000,-28.000,3780.000,0.000,-4.780,1
2026-01-31 16:11:55,1840054,4940.000,-1056.000,5768.000,-1613.000,53.000,1558.000,0.000,-4.780,1
2026-01-31 16:11:55,1840094,6410.000,-1145.000,6818.000,149.000,-333.000,693.000,0.000,-4.780,1
2026-01-31 16:11:55,1840134,1920.000,750.000,6633.000,1112.000,-71.000,1361.000,0.000,-4.780,1
2026-01-31 16:11:55,1840174,4566.000,1371.000,5900.000,-449.000,1431.000,318.000,0.000,-4.780,1
2026-01-31 16:11:55,1840214,6875.000,-1786.000,5806.000,-1813.000,1397.000,384.000,0.000,-4.780,1
2026-01-31 16:11:55,1840254,4058.000,-32.000,7749.000,384.000,-390.000,308.000,0.000,-4.780,1
2026-01-31 16:11:55,1840294,5816.000,-2619.000,6627.000,-2401.000,70.000,-589.000,0.000,-4.780,1
2026-01-31 16:11:55,1840334,5792.000,-1591.000,6687.000,-977.000,309.000,-1332.000,0.000,-4.780,1
2026-01-31 16:11:55,1840374,3640.000,-690.000,5932.000,916.000,80.000,-1319.000,0.000,-4.780,1
2026-01-31 16:11:55,1840414,3517.000,-519.000,6704.000,329.000,-509.000,-1434.000,0.000,-4.780,1
2026-01-31 16:11:55,1840454,5875.000,-333.000,7529.000,-2626.000,272.000,-1515.000,0.000,-4.780,1
2026-01-31 16:11:55,1840494,5815.000,-1191.000,6112.000,-1939.000,374.000,-1619.000,0.000,-4.780,1
2026-01-31 16:11:55,1840534,3880.000,-840.000,6109.000,13.000,21.000,-1773.000,0.000,-4.780,1
2026-01-31 16:11:55,1840574,5535.000,-542.000,6097.000,116.000,255.000,-2838.000,0.000,-4.780,1
2026-01-31 16:11:55,1840614,4066.000,304.000,6593.000,755.000,293.000,-2344.000,0.000,-4.780,1
2026-01-31 16:11:55,1840654,5615.000,321.000,6637.000,735.000,961.000,-2212.000,0.000,-4.780,1
2026-01-31 16:11:55,1840694,5397.000,255.000,7235.000,2080.000,324.000,-1700.000,0.000,-4.780,1
2026-01-31 16:11:56,1840734,4713.000,1600.000,7679.000,2519.000,21.000,-566.000,0.000,-4.780,1
2026-01-31 16:11:56,1840774,4015.000,1097.000,6481.000,136.000,-317.000,-188.000,0.000,-4.780,1
2026-01-31 16:11:56,1840814,5145.000,1214.000,6890.000,-232.000,118.000,-964.000,0.000,-23.750,1
2026-01-31 16:11:56,1840854,5726.000,1728.000,7580.000,143.000,553.000,-606.000,0.000,-23.750,1
2026-01-31 16:11:56,1840894,5041.000,972.000,7789.000,345.000,771.000,-452.000,0.000,-23.750,1
2026-01-31 16:11:56,1840934,2249.000,1693.000,7486.000,-361.000,298.000,566.000,0.000,-23.750,1
2026-01-31 16:11:56,1840974,4649.000,1655.000,7437.000,-2202.000,718.000,311.000,0.000,-23.750,1
2026-01-31 16:11:56,1841014,4269.000,584.000,7044.000,-1762.000,174.000,623.000,0.000,-23.750,1
2026-01-31 16:11:56,1841054,3215.000,1045.000,7142.000,-1111.000,115.000,968.000,0.000,-23.750,1
2026-01-31 16:11:56,1841094,4818.000,732.000,6395.000,-2740.000,-134.000,596.000,0.000,-23.750,1
2026-01-31 16:11:56,1841134,5952.000,-351.000,6631.000,-2749.000,150.000,659.000,0.000,-23.750,1
2026-01-31 16:11:56,1841174,4275.000,-452.000,6688.000,-1782.000,-34.000,1257.000,0.000,-23.750,1
2026-01-31 16:11:56,1841214,4036.000,-1032.000,6319.000,-1449.000,-339.000,868.000,0.000,-23.750,1
2026-01-31 16:11:56,1841254,7954.000,-1845.000,7158.000,-1469.000,25.000,492.000,0.000,-23.750,1
2026-01-31 16:11:56,1841294,3200.000,-985.000,6918.000,-502.000,-1022.000,373.000,0.000,-23.750,1
2026-01-31 16:11:56,1841334,4077.000,141.000,6123.000,-1473.000,-435.000,-216.000,0.000,-23.750,1
2026-01-31 16:11:56,1841374,6549.000,-973.000,6064.000,-2688.000,616.000,65.000,0.000,-23.750,1
2026-01-31 16:11:56,1841414,3052.000,-799.000,5823.000,-252.000,225.000,332.000,0.000,-23.750,1
2026-01-31 16:11:56,1841454,5823.000,-2258.000,6583.000,845.000,776.000,-270.000,0.000,-23.750,1
2026-01-31 16:11:56,1841494,4926.000,-1965.000,6995.000,600.000,205.000,-989.000,0.000,-23.750,1
2026-01-31 16:11:56,1841537,3135.000,-594.000,6770.000,195.000,-557.000,-1290.000,0.000,-23.750,1
2026-01-31 16:11:56,1841577,5543.000,-970.000,6766.000,507.000,80.000,-1695.000,0.000,-23.750,1
2026-01-31 16:11:56,1841614,4888.000,-724.000,6631.000,1506.000,-117.000,-1832.000,0.000,-23.750,1
2026-01-31 16:11:56,1841654,6025.000,-657.000,7230.000,2055.000,-39.000,-2255.000,0.000,-23.750,1
2026-01-31 16:11:56,1841694,3253.000,138.000,6387.000,1919.000,-46.000,-2098.000,0.000,-23.750,1
2026-01-31 16:11:57,1841734,6956.000,6.000,6840.000,1120.000,-95.000,-2437.000,0.000,-23.750,1
2026-01-31 16:11:57,1841774,4026.000,221.000,5989.000,1343.000,-66.000,-2186.000,0.000,-23.750,1
2026-01-31 16:11:57,1841814,4861.000,885.000,6027.000,1800.000,-197.000,-1567.000,0.000,-4.750,1
2026-01-31 16:11:57,1841854,6219.000,466.000,6441.000,1714.000,224.000,-1493.000,0.000,-4.750,1
2026-01-31 16:11:57,1841894,4126.000,1513.000,7292.000,2505.000,98.000,-1543.000,0.000,-4.750,1
2026-01-31 16:11:57,1841934,4113.000,2732.000,7724.000,1078.000,220.000,-1493.000,0.000,-4.750,1
2026-01-31 16:11:57,1841974,5510.000,2146.000,7737.000,-611.000,401.000,-1279.000,0.000,-4.750,1
2026-01-31 16:11:57,1842014,2960.000,1762.000,7572.000,-294.000,-148.000,261.000,0.000,-4.750,1
2026-01-31 16:11:57,1842054,4220.000,1398.000,7147.000,-843.000,501.000,-317.000,0.000,-4.750,1
2026-01-31 16:11:57,1842094,4949.000,1474.000,7210.000,-996.000,94.000,222.000,0.000,-4.750,1
2026-01-31 16:11:57,1842134,3941.000,1525.000,7197.000,-1958.000,-329.000,1032.000,0.000,-4.750,1
2026-01-31 16:11:57,1842174,4777.000,1042.000,6624.000,-2603.000,-163.000,1511.000,0.000,-4.750,1
2026-01-31 16:11:57,1842214,6512.000,-404.000,6312.000,-1916.000,-191.000,1586.000,0.000,-4.750,1
2026-01-31 16:11:57,1842254,4552.000,-108.000,7011.000,-967.000,-696.000,1948.000,0.000,-4.750,1
2026-01-31 16:11:57,1842294,5088.000,-510.000,6222.000,-1627.000,-535.000,1410.000,0.000,-4.750,1
2026-01-31 16:11:57,1842334,4364.000,-881.000,5576.000,-1536.000,-987.000,1294.000,0.000,-4.750,1
2026-01-31 16:11:57,1842374,5819.000,-745.000,6155.000,-838.000,-824.000,370.000,0.000,-4.750,1
2026-01-31 16:11:57,1842414,4572.000,-380.000,6388.000,-13.000,-622.000,516.000,0.000,-4.750,1
2026-01-31 16:11:57,1842454,5678.000,66.000,6449.000,326.000,-157.000,754.000,0.000,-4.750,1
2026-01-31 16:11:57,1842494,5568.000,-415.000,6916.000,256.000,-28.000,580.000,0.000,-4.750,1
2026-01-31 16:11:57,1842534,4234.000,-405.000,6693.000,339.000,51.000,480.000,0.000,-4.750,1
2026-01-31 16:11:57,1842574,5680.000,-1356.000,6150.000,-146.000,489.000,-145.000,0.000,-4.750,1
2026-01-31 16:11:57,1842614,4991.000,-2317.000,6036.000,-452.000,420.000,-822.000,0.000,-4.750,1
2026-01-31 16:11:57,1842654,4299.000,-585.000,6583.000,1346.000,135.000,-1114.000,0.000,-4.750,1
2026-01-31 16:11:57,1842694,4961.000,-655.000,6565.000,262.000,98.000,-1559.000,0.000,-4.750,1
2026-01-31 16:11:58,1842734,4728.000,-468.000,6509.000,1158.000,59.000,-1600.000,0.000,-4.750,1
2026-01-31 16:11:58,1842774,5077.000,-193.000,6867.000,1291.000,-116.000,-1970.000,0.000,-4.750,1
2026-01-31 16:11:58,1842814,5616.000,524.000,6508.000,1309.000,87.000,-1974.000,0.000,5.540,1
2026-01-31 16:11:58,1842854,6031.000,-76.000,6371.000,781.000,90.000,-1648.000,0.000,5.540,1
2026-01-31 16:11:58,1842894,4168.000,579.000,5976.000,1609.000,152.000,-1294.000,0.000,5.540,1
2026-01-31 16:11:58,1842934,4957.000,755.000,5877.000,2276.000,525.000,-1043.000,0.000,5.540,1
2026-01-31 16:11:58,1842974,6128.000,286.000,5239.000,3911.000,-937.000,-204.000,0.000,5.540,1
2026-01-31 16:11:58,1843014,5574.000,2540.000,8803.000,2898.000,-778.000,-507.000,0.000,5.540,1
2026-01-31 16:11:58,1843054,5001.000,1900.000,9292.000,2214.000,919.000,-1125.000,0.000,5.540,1
2026-01-31 16:11:58,1843094,4010.000,2793.000,7174.000,4346.000,1371.000,-1134.000,0.000,5.540,1
2026-01-31 16:11:58,1843134,2843.000,4500.000,6001.000,2291.000,920.000,601.000,0.000,5.540,1
2026-01-31 16:11:58,1843174,3051.000,4654.000,5734.000,-762.000,224.000,1458.000,0.000,5.540,1
2026-01-31 16:11:58,1843214,3642.000,3440.000,6288.000,-2298.000,-208.000,1623.000,0.000,5.540,1
2026-01-31 16:11:58,1843254,4729.000,2127.000,7248.000,-2935.000,-169.000,2237.000,0.000,5.540,1
2026-01-31 16:11:58,1843294,5805.000,557.000,6515.000,-3380.000,-121.000,2534.000,0.000,5.540,1
2026-01-31 16:11:58,1843334,5529.000,40.000,6215.000,-3277.000,23.000,2497.000,0.000,5.540,1
2026-01-31 16:11:58,1843374,4414.000,-13.000,6602.000,-2546.000,221.000,1051.000,0.000,5.540,1
2026-01-31 16:11:58,1843414,4987.000,1360.000,6793.000,-3206.000,294.000,943.000,0.000,5.540,1
2026-01-31 16:11:58,1843454,5040.000,605.000,6316.000,-3387.000,324.000,877.000,0.000,5.540,1
2026-01-31 16:11:58,1843494,4894.000,347.000,5251.000,-2120.000,216.000,904.000,0.000,5.540,1
2026-01-31 16:11:58,1843534,6023.000,-375.000,6103.000,-701.000,-285.000,182.000,0.000,5.540,1
2026-01-31 16:11:58,1843574,3740.000,-20.000,6666.000,78.000,193.000,-131.000,0.000,5.540,1
2026-01-31 16:11:58,1843614,4815.000,-135.000,6458.000,-1189.000,430.000,-379.000,0.000,5.540,1
2026-01-31 16:11:58,1843654,5595.000,-595.000,6145.000,-1236.000,467.000,-1104.000,0.000,5.540,1
2026-01-31 16:11:58,1843694,3682.000,-222.000,6628.000,-415.000,560.000,-1052.000,0.000,5.540,1
2026-01-31 16:11:59,1843734,4273.000,195.000,7113.000,-81.000,319.000,-1890.000,0.000,5.540,1
2026-01-31 16:11:59,1843774,4604.000,186.000,7378.000,-80.000,-72.000,-2467.000,0.000,5.540,1
2026-01-31 16:11:59,1843814,4799.000,447.000,6964.000,-331.000,88.000,-2688.000,0.000,29.310,1
2026-01-31 16:11:59,1843858,4736.000,636.000,6169.000,156.000,146.000,-2438.000,0.000,29.310,1
2026-01-31 16:11:59,1843894,4791.000,818.000,5956.000,434.000,294.000,-2264.000,0.000,29.310,1
2026-01-31 16:11:59,1843934,5815.000,732.000,5806.000,727.000,200.000,-2294.000,0.000,29.310,1
2026-01-31 16:11:59,1843974,5581.000,324.000,6360.000,775.000,166.000,-1844.000,0.000,29.310,1
2026-01-31 16:11:59,1844014,5380.000,-259.000,7097.000,776.000,649.000,-1662.000,0.000,29.310,1
2026-01-31 16:11:59,1844054,5183.000,804.000,7540.000,1249.000,1069.000,-1512.000,0.000,29.310,1
2026-01-31 16:11:59,1844094,5069.000,961.000,7242.000,999.000,1086.000,-1200.000,0.000,29.310,1
2026-01-31 16:11:59,1844134,3027.000,1385.000,7147.000,3290.000,748.000,-183.000,0.000,29.310,1
2026-01-31 16:11:59,1844174,3689.000,2556.000,6433.000,2292.000,665.000,445.000,0.000,29.310,1
2026-01-31 16:11:59,1844214,4078.000,2303.000,5963.000,-528.000,-212.000,758.000,0.000,29.310,1
2026-01-31 16:11:59,1844254,4488.000,709.000,6219.000,-1778.000,-704.000,1003.000,0.000,29.310,1
2026-01-31 16:11:59,1844294,4717.000,942.000,7441.000,-413.000,-674.000,1580.000,0.000,29.310,1
2026-01-31 16:11:59,1844334,4220.000,1341.000,7007.000,58.000,-531.000,1948.000,0.000,29.310,1
2026-01-31 16:11:59,1844374,5569.000,667.000,6807.000,-169.000,-345.000,1346.000,0.000,29.310,1
2026-01-31 16:11:59,1844414,3620.000,150.000,6394.000,1243.000,-727.000,2236.000,0.000,29.310,1
2026-01-31 16:11:59,1844454,4874.000,103.000,5997.000,344.000,-171.000,1673.000,0.000,29.310,1
2026-01-31 16:11:59,1844494,6376.000,206.000,6877.000,-1113.000,202.000,1134.000,0.000,29.310,1
2026-01-31 16:11:59,1844534,5390.000,226.000,7499.000,-942.000,-6.000,932.000,0.000,29.310,1
2026-01-31 16:11:59,1844574,4431.000,1284.000,7709.000,315.000,-293.000,470.000,0.000,29.310,1
2026-01-31 16:11:59,1844614,4548.000,514.000,7246.000,-473.000,-272.000,227.000,0.000,29.310,1
2026-01-31 16:11:59,1844654,4040.000,426.000,6306.000,-504.000,-306.000,-265.000,0.000,29.310,1
2026-01-31 16:11:59,1844694,6190.000,305.000,6025.000,-63.000,141.000,-1116.000,0.000,29.310,1
2026-01-31 16:12:00,1844734,3434.000,820.000,6862.000,325.000,63.000,-695.000,0.000,29.310,1
2026-01-31 16:12:00,1844774,4815.000,934.000,7087.000,-1706.000,211.000,-1209.000,0.000,29.310,1
2026-01-31 16:12:00,1844814,4870.000,493.000,6489.000,-925.000,284.000,-1126.000,0.000,4.940,1
2026-01-31 16:12:00,1844854,3929.000,1025.000,7646.000,1703.000,224.000,-833.000,0.000,4.940,1
2026-01-31 16:12:00,1844894,4095.000,374.000,6373.000,1327.000,355.000,-759.000,0.000,4.940,1
2026-01-31 16:12:00,1844934,5303.000,818.000,6248.000,1289.000,337.000,-1105.000,0.000,4.940,1
2026-01-31 16:12:00,1844974,4747.000,1171.000,6139.000,522.000,10.000,-1534.000,0.000,4.940,1
2026-01-31 16:12:00,1845014,5378.000,1691.000,6428.000,-116.000,37.000,-1488.000,0.000,4.940,1
2026-01-31 16:12:00,1845054,5200.000,1189.000,6527.000,-200.000,273.000,-760.000,0.000,4.940,1
2026-01-31 16:12:00,1845094,4502.000,1598.000,6808.000,889.000,-28.000,-372.000,0.000,4.940,1
2026-01-31 16:12:00,1845134,4262.000,2031.000,7010.000,959.000,-63.000,-123.000,0.000,4.940,1
2026-01-31 16:12:00,1845174,4988.000,2207.000,7478.000,-156.000,29.000,383.000,0.000,4.940,1
2026-01-31 16:12:00,1845214,4336.000,1167.000,7136.000,-735.000,-164.000,545.000,0.000,4.940,1
2026-01-31 16:12:00,1845254,4978.000,1149.000,7027.000,-538.000,-92.000,391.000,0.000,4.940,1
2026-01-31 16:12:00,1845294,4495.000,831.000,7040.000,-821.000,-488.000,817.000,0.000,4.940,1
2026-01-31 16:12:00,1845334,4360.000,1364.000,7106.000,-793.000,-346.000,950.000,0.000,4.940,1
2026-01-31 16:12:00,1845374,5502.000,1391.000,6642.000,-872.000,-202.000,1015.000,0.000,4.940,1
2026-01-31 16:12:00,1845414,4784.000,372.000,6881.000,-1030.000,-308.000,1100.000,0.000,4.940,1
2026-01-31 16:12:00,1845454,4779.000,130.000,6627.000,-871.000,-223.000,1167.000,0.000,4.940,1
2026-01-31 16:12:00,1845494,4891.000,-41.000,6534.000,-763.000,-282.000,967.000,0.000,4.940,1
2026-01-31 16:12:00,1845534,4994.000,-69.000,6438.000,-670.000,-119.000,843.000,0.000,4.940,1
2026-01-31 16:12:00,1845577,5377.000,-56.000,6647.000,-1197.000,-8.000,203.000,0.000,4.940,1
2026-01-31 16:12:00,1845617,3948.000,1009.000,5955.000,242.000,319.000,90.000,0.000,4.940,1
2026-01-31 16:12:00,1845654,3583.000,926.000,6011.000,312.000,307.000,132.000,0.000,4.940,1
2026-01-31 16:12:00,1845694,5343.000,246.000,7313.000,1120.000,597.000,-82.000,0.000,4.940,1
2026-01-31 16:12:01,1845734,4895.000,-52.000,7695.000,1747.000,225.000,-84.000,0.000,4.940,1
2026-01-31 16:12:01,1845774,5335.000,128.000,7436.000,666.000,-9.000,-555.000,0.000,4.940,1
2026-01-31 16:12:01,1845814,4439.000,-367.000,6245.000,-949.000,-483.000,-881.000,0.000,-8.620,1
2026-01-31 16:12:01,1845854,5892.000,-43.000,6326.000,-657.000,-208.000,-1699.000,0.000,-8.620,1
2026-01-31 16:12:01,1845894,3588.000,869.000,6723.000,294.000,-254.000,-1554.000,0.000,-8.620,1
2026-01-31 16:12:01,1845934,5376.000,1264.000,7218.000,801.000,209.000,-1587.000,0.000,-8.620,1
2026-01-31 16:12:01,1845974,4908.000,946.000,6537.000,1065.000,43.000,-1019.000,0.000,-8.620,1
2026-01-31 16:12:01,1846014,5083.000,1172.000,5893.000,1502.000,368.000,-1057.000,0.000,-8.620,1
2026-01-31 16:12:01,1846054,5633.000,1404.000,6453.000,1800.000,407.000,-988.000,0.000,-8.620,1
2026-01-31 16:12:01,1846094,5941.000,1732.000,7371.000,1936.000,336.000,-524.000,0.000,-8.620,1
2026-01-31 16:12:01,1846134,4518.000,1138.000,7248.000,-34.000,-99.000,-20.000,0.000,-8.620,1
2026-01-31 16:12:01,1846174,4640.000,1424.000,6805.000,-416.000,-80.000,-153.000,0.000,-8.620,1
2026-01-31 16:12:01,1846214,4558.000,2099.000,6390.000,37.000,-56.000,-90.000,0.000,-8.620,1
2026-01-31 16:12:01,1846254,3269.000,2049.000,6458.000,137.000,-68.000,253.000,0.000,-8.620,1
2026-01-31 16:12:01,1846294,5111.000,1795.000,7201.000,31.000,146.000,351.000,0.000,-8.620,1
2026-01-31 16:12:01,1846334,4209.000,1570.000,7452.000,-224.000,5.000,942.000,0.000,-8.620,1
2026-01-31 16:12:01,1846374,4594.000,1196.000,7224.000,-796.000,58.000,1019.000,0.000,-8.620,1
2026-01-31 16:12:01,1846414,4380.000,1653.000,6842.000,-819.000,-100.000,1131.000,0.000,-8.620,1
2026-01-31 16:12:01,1846454,5065.000,1029.000,6724.000,-765.000,-253.000,1324.000,0.000,-8.620,1
2026-01-31 16:12:01,1846494,4460.000,639.000,6952.000,-1202.000,-381.000,1303.000,0.000,-8.620,1
2026-01-31 16:12:01,1846534,4681.000,-6.000,6695.000,-1651.000,-433.000,1071.000,0.000,-8.620,1
2026-01-31 16:12:01,1846574,5343.000,-1.000,6235.000,-1550.000,-370.000,997.000,0.000,-8.620,1
2026-01-31 16:12:01,1846614,4227.000,434.000,5542.000,-1322.000,-197.000,726.000,0.000,-8.620,1
2026-01-31 16:12:01,1846654,5765.000,1618.000,6109.000,-456.000,144.000,506.000,0.000,-8.620,1
2026-01-31 16:12:01,1846694,5576.000,511.000,6651.000,60.000,403.000,590.000,0.000,-8.620,1
2026-01-31 16:12:02,1846734,3752.000,-107.000,6597.000,543.000,72.000,671.000,0.000,6.663,1
2026-01-31 16:12:02,1846774,4443.000,-452.000,6776.000,31.000,132.000,139.000,0.000,6.663,1
2026-01-31 16:12:02,1846814,5092.000,-281.000,6278.000,-170.000,-63.000,-747.000,0.000,6.663,1
2026-01-31 16:12:02,1846854,4548.000,342.000,6733.000,494.000,-106.000,-1019.000,0.000,6.663,1
2026-01-31 16:12:02,1846894,4887.000,902.000,7393.000,442.000,-133.000,-1309.000,0.000,6.663,1
2026-01-31 16:12:02,1846934,4988.000,750.000,7311.000,139.000,-119.000,-1247.000,0.000,6.663,1
2026-01-31 16:12:02,1846974,4470.000,414.000,6603.000,12.000,-200.000,-1120.000,0.000,6.663,1
2026-01-31 16:12:02,1847014,5022.000,892.000,6215.000,572.000,21.000,-1537.000,0.000,6.663,1
2026-01-31 16:12:02,1847054,4350.000,661.000,5959.000,579.000,221.000,-1087.000,0.000,6.663,1
2026-01-31 16:12:02,1847094,4636.000,1080.000,5996.000,1226.000,648.000,-1416.000,0.000,6.663,1
2026-01-31 16:12:02,1847134,5995.000,1453.000,6522.000,1710.000,550.000,-1320.000,0.000,6.663,1
2026-01-31 16:12:02,1847174,4745.000,1438.000,6687.000,1331.000,304.000,-688.000,0.000,6.663,1
2026-01-31 16:12:02,1847214,4842.000,1885.000,6870.000,974.000,217.000,-463.000,0.000,6.663,1
2026-01-31 16:12:02,1847254,3619.000,1607.000,6963.000,188.000,-228.000,-137.000,0.000,6.663,1
2026-01-31 16:12:02,1847294,4823.000,1851.000,7115.000,168.000,-83.000,-64.000,0.000,6.663,1
2026-01-31 16:12:02,1847334,4762.000,1725.000,7473.000,-95.000,-213.000,-5.000,0.000,6.663,1
2026-01-31 16:12:02,1847374,3603.000,1326.000,6875.000,-543.000,30.000,658.000,0.000,6.663,1
2026-01-31 16:12:02,1847414,4788.000,1219.000,7077.000,-694.000,66.000,453.000,0.000,6.663,1
2026-01-31 16:12:02,1847454,4668.000,1856.000,7237.000,-348.000,-22.000,902.000,0.000,6.663,1
2026-01-31 16:12:02,1847494,3956.000,1632.000,7231.000,-622.000,-302.000,1291.000,0.000,6.663,1
2026-01-31 16:12:02,1847534,5838.000,897.000,6691.000,-1028.000,-362.000,1268.000,0.000,6.663,1
2026-01-31 16:12:02,1847577,4008.000,253.000,6349.000,-2059.000,-410.000,1180.000,0.000,6.663,1
2026-01-31 16:12:02,1847616,5333.000,628.000,6400.000,-1531.000,-100.000,1669.000,0.000,6.663,1
2026-01-31 16:12:02,1847654,5452.000,670.000,6622.000,-1325.000,-125.000,1624.000,0.000,6.663,1
2026-01-31 16:12:02,1847694,3570.000,333.000,5792.000,-462.000,-251.000,1694.000,0.000,6.663,1
2026-01-31 16:12:03,1847734,6784.000,340.000,6669.000,-497.000,131.000,788.000,0.000,6.663,1
2026-01-31 16:12:03,1847774,4432.000,-288.000,6417.000,-199.000,92.000,994.000,0.000,0.000,0
2026-01-31 16:12:03,1847814,4755.000,-642.000,6434.000,14.000,14.000,719.000,0.000,-1.880,1
2026-01-31 16:12:03,1847857,3857.000,-547.000,6237.000,733.000,-61.000,21.000,0.000,-1.880,1
2026-01-31 16:12:03,1847894,5455.000,-67.000,6201.000,716.000,-16.000,-521.000,0.000,-1.880,1
2026-01-31 16:12:03,1847934,4670.000,97.000,7089.000,-81.000,-127.000,-860.000,0.000,-1.880,1
2026-01-31 16:12:03,1847974,5181.000,55.000,7232.000,176.000,-113.000,-1186.000,0.000,-1.880,1
