datetime_local,uptime_ms,acc_x,acc_y,acc_z,gyro_x,gyro_y,gyro_z,speed_mps,turn_rate_deg_s,gps_valid
2026-01-29 13:06:25,443262,8747.191,1631.769,-1942.866,-44.326,106.868,1206.921,3.154,0.000,1
2026-01-29 13:06:25,443302,8317.318,2163.214,203.118,-343.593,83.562,981.695,3.149,0.000,1
2026-01-29 13:06:25,443342,7983.517,4510.526,-534.628,219.574,-267.314,-225.893,3.325,0.000,1
2026-01-29 13:06:25,443382,9531.182,-302.757,-591.812,-649.373,-745.224,-148.419,3.192,0.000,1
2026-01-29 13:06:25,443422,6402.148,2563.302,55.616,214.817,369.501,376.458,3.234,0.000,1
2026-01-29 13:06:25,443462,7221.538,4866.302,-969.679,130.195,274.212,284.134,3.390,0.000,1
2026-01-29 13:06:25,443502,8544.633,4474.123,-1909.709,1065.556,-158.858,-1382.356,3.387,0.000,1
2026-01-29 13:06:25,443542,8323.217,6035.686,-200.320,349.140,325.479,-750.968,3.503,0.000,1
2026-01-29 13:06:25,443582,8142.017,1774.803,-334.232,-368.554,-529.933,-392.071,3.442,0.000,1
2026-01-29 13:06:25,443622,6142.704,2728.050,458.520,-680.377,-926.565,479.348,3.542,0.000,1
2026-01-29 13:06:25,443662,7287.786,2128.787,-1457.016,494.056,-720.355,399.645,3.606,0.000,1
2026-01-29 13:06:25,443702,9409.639,1045.397,-512.851,1003.510,-46.536,42.008,3.552,0.000,1
2026-01-29 13:06:25,443742,6061.741,783.292,-992.962,502.115,1558.417,-675.576,3.511,0.000,1
2026-01-29 13:06:25,443782,6410.494,2044.520,-311.784,67.207,1368.546,-953.354,3.622,0.000,1
2026-01-29 13:06:25,443822,7393.164,-673.252,-1624.139,-2113.599,-727.511,1155.043,3.487,0.000,1
2026-01-29 13:06:25,443862,9716.796,1148.362,-669.652,-801.259,-455.269,772.809,3.518,0.000,1
2026-01-29 13:06:25,443902,7294.230,3194.304,471.958,845.849,-1163.644,-118.751,3.636,0.000,1
2026-01-29 13:06:25,443942,8039.879,1775.533,0.586,-832.192,-131.736,428.889,3.683,0.000,0
2026-01-29 13:06:25,443982,8532.246,2688.693,494.121,540.733,239.493,230.803,3.721,0.000,1
2026-01-29 13:06:25,444022,7237.002,3844.256,-338.142,686.543,-359.787,-244.621,3.791,0.000,1
2026-01-29 13:06:25,444062,8652.605,950.274,-240.779,844.205,-1719.179,-1079.286,3.742,0.000,1
2026-01-29 13:06:25,444102,8672.428,2753.955,-976.124,643.598,-799.994,-1467.420,3.785,0.000,0
2026-01-29 13:06:25,444142,8945.705,3163.397,-579.045,487.308,-909.638,248.625,3.798,0.000,1
2026-01-29 13:06:25,444182,5943.217,2990.657,-870.749,531.988,-420.455,-427.903,3.853,0.000,1
2026-01-29 13:06:25,444222,6503.040,4830.619,-401.684,162.139,1688.410,-689.765,4.012,0.000,1
2026-01-29 13:06:26,444262,6495.972,-2299.705,674.739,480.774,-1518.800,590.792,3.807,0.000,1
2026-01-29 13:06:26,444302,8748.810,2245.370,-336.445,-1967.827,-902.797,-346.410,3.906,0.000,1
2026-01-29 13:06:26,444342,7020.436,4976.843,-618.237,602.266,-715.481,-632.123,4.065,0.000,1
2026-01-29 13:06:26,444382,6898.321,-2798.985,80.355,-119.530,-734.846,-772.380,3.955,0.000,1
2026-01-29 13:06:26,444422,6123.854,4604.399,-1272.502,1426.484,-463.565,-1162.374,4.034,0.000,1
2026-01-29 13:06:26,444462,8797.697,3907.139,-1716.496,-355.799,1076.959,-653.609,4.163,0.000,1
2026-01-29 13:06:26,444502,7682.790,-811.159,-873.478,593.483,1051.610,-687.767,4.137,0.000,1
2026-01-29 13:06:26,444542,8558.245,2087.052,-1199.602,254.081,276.963,282.210,4.150,0.000,1
2026-01-29 13:06:26,444582,8556.261,-696.355,-1556.701,800.058,-1139.345,854.310,4.028,0.000,1
2026-01-29 13:06:26,444622,8013.710,4280.260,-845.388,-765.185,-1669.183,1117.875,4.131,0.000,1
2026-01-29 13:06:26,444662,9865.598,4030.635,-1824.172,-1278.155,-172.940,-383.372,4.158,0.000,1
2026-01-29 13:06:26,444702,9112.261,6293.819,-700.937,-164.124,-285.871,579.105,4.320,0.000,1
2026-01-29 13:06:26,444742,8052.999,610.701,-1291.064,-541.290,216.866,338.735,4.262,0.000,0
2026-01-29 13:06:26,444782,6915.664,5645.117,-1152.563,771.698,-1204.218,-1019.891,4.354,0.000,1
2026-01-29 13:06:26,444822,7249.240,85.855,-692.759,2860.374,-513.040,-2359.388,4.212,0.000,0
2026-01-29 13:06:26,444862,8669.244,8549.621,-1378.625,651.826,1222.130,1686.990,4.429,0.000,1
2026-01-29 13:06:26,444902,7604.891,-1305.228,-795.068,798.495,144.393,781.610,4.271,0.000,0
2026-01-29 13:06:26,444942,5730.073,5512.474,-1621.981,-742.495,515.802,189.475,4.427,0.000,1
2026-01-29 13:06:26,444982,8749.317,514.947,-937.518,97.652,-1386.666,942.229,4.473,0.000,1
2026-01-29 13:06:26,445022,7127.829,-2591.794,-132.821,-583.703,-351.147,1093.024,4.380,0.000,1
2026-01-29 13:06:26,445062,6481.517,683.939,1636.850,-813.504,-818.330,-1294.121,4.395,0.000,1
2026-01-29 13:06:26,445102,6736.028,4550.376,-738.208,912.600,1333.542,752.010,4.581,0.000,1
2026-01-29 13:06:26,445142,8265.722,431.956,-526.190,-1022.313,-445.515,1118.787,4.576,0.000,1
2026-01-29 13:06:26,445182,8549.661,1365.953,-432.949,-626.803,382.435,-251.390,4.599,0.000,1
2026-01-29 13:06:26,445222,8544.743,2286.714,-847.109,-52.619,-723.391,-733.655,4.576,0.000,1
2026-01-29 13:06:27,445262,8459.938,1973.884,907.128,-582.761,616.556,1044.154,4.592,0.000,1
2026-01-29 13:06:27,445302,10759.809,3240.105,-250.995,1052.490,-87.414,184.358,4.635,0.000,1
2026-01-29 13:06:27,445342,9004.631,5390.214,1483.710,-279.420,-291.240,-261.211,4.791,0.000,1
2026-01-29 13:06:27,445382,8707.368,-148.640,-701.783,709.262,-657.897,516.404,4.730,0.000,1
2026-01-29 13:06:27,445422,8864.375,4434.216,-1070.423,-1565.210,-79.649,508.729,4.851,0.000,1
2026-01-29 13:06:27,445462,9179.671,2263.977,-1382.886,-763.227,-113.273,-343.022,4.885,0.000,1
2026-01-29 13:06:27,445502,8074.969,-531.032,-645.427,-1271.970,-911.249,-1187.492,4.789,0.000,0
2026-01-29 13:06:27,445542,6528.782,5560.749,488.161,728.315,-465.639,218.900,4.947,0.000,1
2026-01-29 13:06:27,445582,8561.768,624.034,-1103.259,223.120,-296.937,-151.087,4.787,0.000,1
2026-01-29 13:06:27,445622,6108.572,2925.695,-386.077,-42.556,419.735,1092.889,4.885,0.000,1
2026-01-29 13:06:27,445662,6508.867,6251.314,-552.272,-1169.659,-135.221,-132.859,5.062,0.000,1
2026-01-29 13:06:27,445702,7940.823,3156.501,-870.747,-236.372,-175.763,861.128,5.090,0.000,1
2026-01-29 13:06:27,445742,6977.350,1366.883,-458.554,926.823,256.375,-565.333,5.144,0.000,1
2026-01-29 13:06:27,445782,6084.448,-3701.035,-41.324,357.650,22.824,-588.796,4.967,0.000,1
2026-01-29 13:06:27,445822,8660.122,2262.949,-15.892,-450.775,431.169,1198.982,5.045,0.000,1
2026-01-29 13:06:27,445862,9743.771,394.025,-1354.389,-323.244,-926.248,171.074,5.038,0.000,1
2026-01-29 13:06:27,445902,7993.395,2188.209,-86.292,-60.079,575.789,-1646.986,5.092,0.000,1
2026-01-29 13:06:27,445942,8935.688,5038.450,-819.124,-262.783,1274.886,-1179.243,5.214,0.000,1
2026-01-29 13:06:27,445982,10774.078,-1382.412,-1241.626,1091.458,-689.394,7.266,5.097,0.000,1
2026-01-29 13:06:27,446022,8515.635,5791.454,-617.305,-10.141,428.712,100.088,5.246,0.000,1
2026-01-29 13:06:27,446062,9164.123,897.273,-576.805,-2476.667,1713.995,-1947.168,5.225,0.000,1
2026-01-29 13:06:27,446102,9570.634,7099.552,-811.769,904.319,-1729.618,191.758,5.402,0.000,1
2026-01-29 13:06:27,446142,8137.809,4076.911,-1875.875,116.382,49.418,11.470,5.410,0.000,1
2026-01-29 13:06:27,446182,6853.290,2162.562,-15.605,-394.950,1092.845,-359.836,5.326,0.000,1
2026-01-29 13:06:27,446222,5958.832,682.364,325.642,-1025.953,-1275.284,264.024,5.257,0.000,1
2026-01-29 13:06:28,446262,8525.282,5486.240,-825.949,-95.887,-271.548,1382.308,5.437,0.000,0
2026-01-29 13:06:28,446302,7428.543,853.779,464.519,-205.360,-950.998,-1403.828,5.421,0.000,1
2026-01-29 13:06:28,446342,6621.368,243.498,182.087,939.690,146.958,-23.510,5.425,0.000,1
2026-01-29 13:06:28,446382,8252.466,3748.268,-751.761,-272.806,-466.027,-394.089,5.555,0.000,0
2026-01-29 13:06:28,446422,8188.169,295.425,-1578.223,1667.806,-136.978,524.042,5.482,0.000,1
2026-01-29 13:06:28,446462,8345.819,3710.686,902.189,-978.975,-164.051,1261.315,5.612,0.000,1
2026-01-29 13:06:28,446502,8484.592,2688.187,-1743.186,1297.720,-579.152,945.917,5.713,0.000,0
2026-01-29 13:06:28,446542,7098.854,1097.921,-2920.925,1552.791,982.872,-1210.276,5.752,0.000,1
2026-01-29 13:06:28,446582,8614.481,3365.286,-842.075,90.243,658.337,1048.295,5.818,0.000,1
2026-01-29 13:06:28,446622,7258.148,-2281.507,-349.812,1442.888,-877.441,-1765.213,5.679,0.000,1
2026-01-29 13:06:28,446662,9077.170,1367.175,-1705.178,-27.329,-793.314,-1015.725,5.670,0.000,0
2026-01-29 13:06:28,446702,9178.124,3652.006,-1022.579,-111.264,-1286.748,-627.139,5.749,0.000,1
2026-01-29 13:06:28,446742,7644.627,2525.363,-726.593,285.754,97.046,604.255,5.849,0.000,1
2026-01-29 13:06:28,446782,8076.555,3887.291,66.062,-368.118,-299.204,665.895,5.832,0.000,1
2026-01-29 13:06:28,446822,7390.034,3027.146,-1563.497,-1205.050,-195.594,-766.066,5.810,0.000,1
2026-01-29 13:06:28,446862,9604.185,5231.702,-1193.753,1811.563,436.275,-319.389,5.878,0.000,1
2026-01-29 13:06:28,446902,7575.205,5659.858,-628.743,732.484,-366.233,-1170.674,6.031,0.000,0
2026-01-29 13:06:28,446942,7865.954,-400.219,-384.124,479.014,-1844.777,383.837,5.937,0.000,1
2026-01-29 13:06:28,446982,3899.629,1495.790,-897.955,-538.887,-467.048,-718.517,5.868,0.000,0
2026-01-29 13:06:28,447022,8200.580,4272.288,-1262.724,1098.198,865.306,-217.369,6.033,0.000,1
2026-01-29 13:06:28,447062,7944.241,-701.935,-313.164,-26.520,216.211,-106.807,5.969,0.000,1
2026-01-29 13:06:28,447102,7300.619,4470.178,-572.507,216.814,-1642.479,-1265.167,6.147,0.000,1
2026-01-29 13:06:28,447142,7964.106,1880.737,914.759,946.949,680.584,-909.204,6.180,0.000,0
2026-01-29 13:06:28,447182,8553.607,3232.070,-1163.982,-239.125,-125.459,-1813.171,6.259,0.000,1
2026-01-29 13:06:28,447222,8545.477,-3151.079,1044.669,952.478,-206.760,-1623.307,6.066,0.000,1
2026-01-29 13:06:29,447262,9208.916,2212.231,-595.008,1116.521,116.013,66.729,6.130,0.000,1
2026-01-29 13:06:29,447302,8753.200,2918.888,-568.942,509.767,1383.864,-145.819,6.209,0.000,1
2026-01-29 13:06:29,447342,6404.766,1126.095,166.297,790.621,-109.086,-87.000,6.169,0.000,1
2026-01-29 13:06:29,447382,8726.886,4874.818,-547.828,-1340.492,577.461,1234.484,6.391,0.000,1
2026-01-29 13:06:29,447422,6481.167,2636.702,-438.727,172.892,141.995,103.803,6.451,0.000,1
2026-01-29 13:06:29,447462,8973.901,2447.872,-506.028,720.802,-326.864,112.323,6.451,0.000,0
2026-01-29 13:06:29,447502,9280.532,-1529.298,-1195.889,-562.901,-150.287,-92.094,6.260,0.000,1
2026-01-29 13:06:29,447542,7755.185,4474.645,-2668.023,6.063,-1189.432,84.519,6.319,0.000,1
2026-01-29 13:06:29,447582,7673.504,7214.608,-952.328,184.035,1597.942,343.356,6.554,0.000,0
2026-01-29 13:06:29,447622,7780.702,2472.492,-1154.124,1318.164,173.871,-296.375,6.529,0.000,1
2026-01-29 13:06:29,447662,7045.284,1026.986,-1052.422,734.221,-86.362,694.740,6.560,0.000,0
2026-01-29 13:06:29,447702,6686.700,-1335.941,-954.683,832.488,650.315,-214.873,6.380,0.000,1
2026-01-29 13:06:29,447742,6821.778,7064.130,-1537.117,559.006,-1675.968,34.975,6.636,0.000,1
2026-01-29 13:06:29,447782,6827.292,-2078.538,-1318.922,-1210.914,230.304,74.767,6.447,0.000,1
2026-01-29 13:06:29,447822,7376.966,4340.832,-944.031,400.311,-641.214,356.746,6.704,0.000,1
2026-01-29 13:06:29,447862,6145.787,2796.196,-769.692,-496.345,296.279,701.792,6.744,0.000,1
2026-01-29 13:06:29,447902,6047.429,-4301.160,-20.112,-436.332,-259.365,452.258,6.581,0.000,1
2026-01-29 13:06:29,447942,10566.489,3963.275,-28.867,387.806,-541.520,545.772,6.664,0.000,1
2026-01-29 13:06:29,447982,8346.738,3929.742,702.129,303.867,48.486,-190.361,6.754,0.000,1
2026-01-29 13:06:29,448022,9325.746,2314.137,632.573,-412.891,-86.700,1172.582,6.701,0.000,1
2026-01-29 13:06:29,448062,8737.240,2803.189,-2167.671,-667.726,-510.243,440.791,6.680,0.000,0
2026-01-29 13:06:29,448102,7582.979,5284.072,-1560.951,86.622,-605.013,-1527.942,6.922,0.000,1
2026-01-29 13:06:29,448142,8527.734,-402.422,-1601.497,-443.794,-543.778,-959.654,6.773,0.000,1
2026-01-29 13:06:29,448182,7429.047,6685.175,-1705.985,-842.053,-511.800,-139.366,6.950,0.000,1
2026-01-29 13:06:29,448222,6347.672,629.407,557.967,541.460,424.294,1552.916,6.809,0.000,1
2026-01-29 13:06:30,448262,8856.553,4869.804,-991.618,80.965,1148.757,271.047,6.996,0.000,1
2026-01-29 13:06:30,448302,9270.582,577.841,963.977,404.230,-623.995,973.637,6.916,0.000,1
2026-01-29 13:06:30,448342,7966.915,-744.339,-1264.578,1163.905,-1136.206,581.935,6.889,0.000,0
2026-01-29 13:06:30,448382,7411.396,4660.385,-136.741,-551.521,1759.387,-775.423,6.995,0.000,1
2026-01-29 13:06:30,448422,8167.778,2432.348,-1292.649,-1993.318,634.615,27.452,6.979,0.000,1
2026-01-29 13:06:30,448462,6462.188,5775.810,406.919,-1612.805,-78.796,1054.165,7.200,0.000,1
2026-01-29 13:06:30,448502,7825.869,1506.642,-453.726,9.487,-672.458,-1292.610,7.213,0.000,1
2026-01-29 13:06:30,448542,9639.616,939.489,-273.966,-152.396,-638.514,-1172.020,7.148,0.000,1
2026-01-29 13:06:30,448582,7888.396,-1405.231,-1201.831,571.809,-414.292,-1210.571,7.043,0.000,1
2026-01-29 13:06:30,448622,7113.854,7694.995,-113.518,-2011.150,-985.591,203.960,7.355,0.000,1
2026-01-29 13:06:30,448662,7307.220,-2479.008,-330.151,232.287,1028.485,-118.615,7.106,0.000,1
2026-01-29 13:06:30,448702,7791.885,5673.827,507.287,-7.064,333.023,-492.131,7.301,0.000,1
2026-01-29 13:06:30,448742,7814.900,534.213,-81.300,-1438.981,-267.660,-649.396,7.177,0.000,1
2026-01-29 13:06:30,448782,9089.793,6071.139,-629.987,-442.818,568.284,-548.661,7.282,0.000,1
2026-01-29 13:06:30,448822,6434.441,7118.020,-1066.767,-208.645,-59.835,643.621,7.506,0.000,1
2026-01-29 13:06:30,448862,8436.949,1077.809,-632.812,-325.616,-511.755,1014.818,7.317,0.000,0
2026-01-29 13:06:30,448902,6231.212,6812.749,-390.052,14.216,147.185,-1481.256,7.563,0.000,1
2026-01-29 13:06:30,448942,7143.161,2884.265,-1297.403,-283.258,23.394,143.319,7.594,0.000,1
2026-01-29 13:06:30,448982,7042.729,1530.041,-1671.745,-100.413,-77.320,-495.723,7.541,0.000,1
2026-01-29 13:06:30,449022,9770.983,3115.723,831.093,-227.451,80.042,260.276,7.668,0.000,1
2026-01-29 13:06:30,449062,6948.757,-1452.170,-1056.133,-328.597,-329.965,-438.872,7.556,0.000,1
2026-01-29 13:06:30,449102,7142.034,218.949,-1100.022,-23.746,-270.327,-883.483,7.508,0.000,1
2026-01-29 13:06:30,449142,8652.140,2918.313,-1742.937,587.914,904.572,822.676,7.634,-5.258,1
2026-01-29 13:06:30,449182,7923.463,2631.963,-1384.082,-131.892,-99.682,624.075,7.625,-6.872,1
2026-01-29 13:06:30,449222,6661.814,-2466.896,56.243,636.080,-1001.959,1257.246,7.575,6.323,1
2026-01-29 13:06:31,449262,7089.026,-1376.698,-759.838,-239.491,-948.199,306.091,7.503,3.057,1
2026-01-29 13:06:31,449302,9308.171,1292.226,-211.183,1544.200,96.056,1448.478,7.532,1.428,0
2026-01-29 13:06:31,449342,8708.486,2570.892,-1299.828,-48.050,-41.708,-504.354,7.568,-5.518,1
2026-01-29 13:06:31,449382,9010.167,-1617.385,829.977,1204.099,-1152.818,-641.677,7.406,-5.453,1
2026-01-29 13:06:31,449422,8793.905,-834.988,-1732.589,-500.271,-1736.010,389.590,7.182,2.981,1
2026-01-29 13:06:31,449462,8016.493,-2426.472,-1369.308,-1391.914,-554.714,-446.109,6.973,-6.071,1
2026-01-29 13:06:31,449502,8899.220,6805.501,-1207.865,-489.741,-649.836,-1227.684,7.135,-2.403,1
2026-01-29 13:06:31,449542,7702.533,6455.632,-361.979,-88.435,592.581,705.645,7.362,4.922,1
2026-01-29 13:06:31,449582,9915.119,-173.129,653.512,1237.246,93.560,-21.657,7.234,-4.151,1
2026-01-29 13:06:31,449622,7652.044,-996.803,-943.238,908.510,1412.180,1226.947,7.126,3.951,1
2026-01-29 13:06:31,449662,7393.478,6355.382,-472.868,-793.892,-160.260,1687.334,7.231,1.486,1
2026-01-29 13:06:31,449702,8415.310,524.519,698.347,-102.778,-574.006,-826.805,7.202,-2.751,1
2026-01-29 13:06:31,449742,7015.401,5589.716,-799.510,-218.666,-1826.599,-1134.399,7.410,1.804,1
2026-01-29 13:06:31,449782,8690.374,790.158,65.702,618.365,90.792,424.868,7.427,-0.287,1
2026-01-29 13:06:31,449822,8279.720,2581.125,-1534.621,-363.551,-86.213,-490.731,7.617,-1.751,1
2026-01-29 13:06:31,449862,9168.634,4015.514,1234.960,-216.525,860.399,1802.037,7.667,28.291,1
2026-01-29 13:06:31,449902,7351.889,-67.161,1841.930,1529.087,1051.807,103.762,7.549,0.276,1
2026-01-29 13:06:31,449942,8786.211,2182.407,816.382,-225.907,544.714,509.125,7.558,-0.250,1
2026-01-29 13:06:31,449982,7966.081,2115.525,-1595.082,467.751,-282.931,-480.465,7.619,0.953,1
2026-01-29 13:06:31,450022,9986.545,2330.330,-2776.980,7.292,41.118,-809.721,7.640,0.795,1
2026-01-29 13:06:31,450062,7647.521,-2318.539,1159.046,-935.984,943.778,576.878,7.399,-0.496,1
2026-01-29 13:06:31,450102,7741.038,4756.035,-798.346,1583.765,-771.197,-41.741,7.580,1.571,1
2026-01-29 13:06:31,450142,7565.479,4517.689,470.560,88.173,-238.992,452.770,7.781,2.443,1
2026-01-29 13:06:31,450182,8590.220,4975.595,-3086.209,631.322,324.072,492.578,7.906,0.046,1
2026-01-29 13:06:31,450222,8067.292,3595.849,1474.750,-367.852,-688.336,-346.122,7.874,-0.832,1
2026-01-29 13:06:32,450262,6742.651,4236.279,-529.663,-491.498,604.197,569.317,7.919,-5.546,1
2026-01-29 13:06:32,450302,7921.687,5839.154,324.648,702.038,-645.963,1284.674,8.046,-2.151,1
2026-01-29 13:06:32,450342,7282.455,-2813.115,-889.837,-276.934,-409.469,623.806,7.835,-6.299,1
2026-01-29 13:06:32,450382,7317.471,-1855.288,-466.954,738.128,215.254,-326.933,7.643,-5.222,1
2026-01-29 13:06:32,450422,7065.129,7114.325,-175.483,-248.009,-240.296,-104.110,7.879,-3.238,1
2026-01-29 13:06:32,450462,7065.444,-2799.915,-281.787,1041.811,-836.302,279.440,7.652,-2.497,1
2026-01-29 13:06:32,450502,7976.118,-1056.833,194.241,-1439.835,1287.500,93.014,7.567,6.392,0
2026-01-29 13:06:32,450542,7427.409,338.821,620.118,154.058,-169.644,1237.911,7.709,8.964,1
2026-01-29 13:06:32,450582,7482.378,-2983.455,-1745.441,589.544,-139.181,-216.851,7.491,5.369,1
2026-01-29 13:06:32,450622,8453.151,3162.308,-876.889,900.420,948.680,-1264.075,7.613,0.523,1
2026-01-29 13:06:32,450662,7364.411,275.523,-729.613,-945.054,390.104,-1588.538,7.590,-5.248,0
2026-01-29 13:06:32,450702,9854.442,4445.129,-291.698,-836.296,1420.717,474.343,7.802,-0.923,1
2026-01-29 13:06:32,450742,7800.134,6460.288,-983.995,1238.513,721.363,-4.036,8.014,-9.660,1
2026-01-29 13:06:32,450782,8897.936,275.979,-427.971,520.786,-12.916,-520.811,7.910,7.147,1
2026-01-29 13:06:32,450822,7424.363,4180.643,66.966,398.632,860.387,-94.294,7.890,2.309,1
2026-01-29 13:06:32,450862,7823.146,5017.171,-1327.451,-108.995,34.207,-204.418,8.074,-0.295,1
2026-01-29 13:06:32,450902,8056.487,4567.400,411.926,-387.506,-1391.541,1582.184,8.060,3.003,1
2026-01-29 13:06:32,450942,7626.817,5625.959,-1893.010,683.473,-115.078,492.830,8.168,0.477,1
2026-01-29 13:06:32,450982,8490.102,987.700,-704.050,-783.277,630.674,-1.013,7.965,1.179,0
2026-01-29 13:06:32,451022,9163.562,5086.779,-1794.710,-192.183,823.782,-907.471,8.121,-8.741,1
2026-01-29 13:06:32,451062,7443.592,5968.481,-294.354,-284.433,-913.515,26.141,8.336,-5.273,1
2026-01-29 13:06:32,451102,7413.069,3538.375,-1244.822,651.067,-758.811,901.872,8.468,0.674,1
2026-01-29 13:06:32,451142,7777.409,1271.757,441.512,423.994,-1144.338,-156.033,8.488,6.983,1
2026-01-29 13:06:32,451182,8923.601,2163.074,-353.633,-1065.127,-1621.174,-1244.918,8.451,-2.499,1
2026-01-29 13:06:32,451222,9204.953,1207.313,1118.731,-1013.002,798.120,-813.952,8.311,4.902,1
2026-01-29 13:06:33,451262,9600.632,-334.705,-33.702,-511.627,49.422,1119.008,8.277,-3.063,1
2026-01-29 13:06:33,451302,7894.214,2501.254,276.358,349.192,1295.572,-1924.168,8.409,-5.162,1
2026-01-29 13:06:33,451342,9837.559,-463.805,110.507,466.562,-688.967,-389.088,8.253,-0.035,1
2026-01-29 13:06:33,451382,8267.455,880.840,-1398.186,747.271,759.172,-902.095,8.328,1.868,1
2026-01-29 13:06:33,451422,9032.533,-1997.362,-942.690,331.569,516.027,-28.945,8.120,1.813,0
2026-01-29 13:06:33,451462,7729.792,6447.467,1120.777,-1058.518,-507.595,431.043,8.354,1.304,0
2026-01-29 13:06:33,451502,8709.727,-367.257,-1287.699,1013.808,1856.956,-1221.358,8.286,1.546,1
2026-01-29 13:06:33,451542,9323.138,2539.282,-515.550,-17.378,411.111,226.544,8.310,-0.636,1
2026-01-29 13:06:33,451582,7993.417,3440.963,630.464,227.401,714.922,107.606,8.248,0.002,1
2026-01-29 13:06:33,451622,9007.646,-212.851,-534.215,-236.446,-1043.390,740.725,8.088,-0.320,1
2026-01-29 13:06:33,451662,7676.100,2977.148,-884.450,-651.934,469.697,1250.550,8.109,-0.757,1
2026-01-29 13:06:33,451702,7430.380,3789.252,478.491,299.980,-686.485,-77.500,8.147,1.669,1
2026-01-29 13:06:33,451742,7775.946,2174.059,-79.414,395.327,614.915,-1444.354,8.145,-2.535,1
2026-01-29 13:06:33,451782,9123.306,2359.945,938.710,-36.612,-313.027,493.631,8.308,1.092,1
2026-01-29 13:06:33,451822,7000.437,-2317.057,-1411.531,-215.348,214.779,-829.141,8.132,-0.931,1
2026-01-29 13:06:33,451862,7921.970,1696.176,954.381,340.733,-438.882,-1346.080,8.154,1.430,1
2026-01-29 13:06:33,451902,10487.931,904.416,-166.494,99.394,646.641,1086.029,8.165,3.785,1
2026-01-29 13:06:33,451942,8453.470,5299.824,-1964.863,-204.019,276.810,-33.508,8.370,-5.655,1
2026-01-29 13:06:33,451982,7104.845,3539.106,-1172.227,323.031,643.284,878.609,8.509,-6.290,1
2026-01-29 13:06:33,452022,7229.444,-2902.248,-3866.877,-302.750,-270.212,-1935.772,8.320,-34.997,1
2026-01-29 13:06:33,452062,9403.242,-2430.622,-611.776,-529.127,723.093,-881.086,8.080,7.410,1
2026-01-29 13:06:33,452102,9902.391,214.693,-1148.107,-344.319,659.506,68.176,7.855,-4.353,1
2026-01-29 13:06:33,452142,7582.576,2671.179,743.656,1060.346,8.363,1524.189,7.850,2.582,1
2026-01-29 13:06:33,452182,11311.874,3813.079,-1583.442,-682.133,59.001,160.487,8.050,-4.671,1
2026-01-29 13:06:33,452222,7905.332,2606.501,-1078.959,-738.701,-222.404,-40.590,8.069,-6.137,1
2026-01-29 13:06:34,452262,8943.879,1850.306,-1177.196,210.338,91.845,707.885,8.068,6.375,0
2026-01-29 13:06:34,452302,8181.183,5050.006,1289.084,509.751,124.550,-1055.188,8.249,3.055,1
2026-01-29 13:06:34,452342,7946.376,3508.711,-1411.591,558.419,1142.239,-52.723,8.302,5.921,1
2026-01-29 13:06:34,452382,9174.871,6148.748,-982.333,58.780,-1654.932,1381.336,8.482,3.059,1
2026-01-29 13:06:34,452422,6660.374,2306.868,1182.783,883.355,496.579,-376.413,8.416,-0.533,1
2026-01-29 13:06:34,452462,7807.399,1155.941,457.231,-81.085,762.774,1433.075,8.339,-9.927,1
2026-01-29 13:06:34,452502,7396.076,2363.556,-892.811,-209.402,437.703,623.957,8.373,-2.598,1
2026-01-29 13:06:34,452542,7135.711,-4488.352,-1002.910,713.211,538.406,629.042,8.152,5.348,1
2026-01-29 13:06:34,452582,7684.010,-3413.388,-1653.267,174.677,-896.149,689.833,7.921,-2.377,1
2026-01-29 13:06:34,452622,7237.333,584.606,-241.196,-813.660,839.318,-309.120,7.900,7.380,1
2026-01-29 13:06:34,452662,6738.698,-320.842,-831.295,-573.186,-519.805,1891.643,7.831,7.626,1
2026-01-29 13:06:34,452702,7098.860,-488.055,-645.842,-1129.979,-832.476,-498.884,7.863,-2.161,1
2026-01-29 13:06:34,452742,7867.150,-282.421,-269.245,-203.473,-1249.144,-1415.296,7.714,-1.814,1
2026-01-29 13:06:34,452782,8862.409,4233.500,-925.994,-1600.399,895.572,-747.374,7.801,3.745,1
2026-01-29 13:06:34,452822,6947.571,635.454,514.837,-616.308,182.850,-930.255,7.637,2.903,1
2026-01-29 13:06:34,452862,8695.922,6232.278,-1210.559,-77.444,-367.436,494.881,7.782,3.648,1
2026-01-29 13:06:34,452902,7851.654,820.138,-191.209,329.026,118.379,-1349.811,7.704,-5.862,1
2026-01-29 13:06:34,452942,8524.294,6814.807,-1213.222,-142.661,384.195,1323.545,7.926,0.368,1
2026-01-29 13:06:34,452982,8678.590,6286.875,-1804.011,1191.014,-1584.783,32.033,8.028,-1.723,1
2026-01-29 13:06:34,453022,7379.654,2251.692,368.717,906.964,1214.189,-33.757,7.995,0.072,1
2026-01-29 13:06:34,453062,6080.715,6857.588,-1282.938,-67.353,362.486,1329.328,8.178,-1.442,1
2026-01-29 13:06:34,453102,8065.088,325.745,398.196,1047.566,-850.973,-169.131,8.233,1.444,1
2026-01-29 13:06:34,453142,5922.964,-1525.390,-1473.093,649.073,562.005,-608.634,8.088,-1.334,1
2026-01-29 13:06:34,453182,6508.126,6383.228,454.809,925.888,578.644,815.676,8.315,0.429,1
2026-01-29 13:06:34,453222,6620.495,3193.183,-34.669,2.111,207.283,504.353,8.424,0.407,1
2026-01-29 13:06:35,453262,9329.231,613.128,270.350,557.357,-894.249,-534.711,8.290,-0.000,1
2026-01-29 13:06:35,453302,6221.941,3483.903,-1475.660,-139.076,-452.147,31.380,8.504,0.051,1
2026-01-29 13:06:35,453342,7228.687,2897.950,-72.935,-432.822,1606.128,811.839,8.592,-0.918,1
2026-01-29 13:06:35,453382,7152.537,-1359.423,227.491,-50.029,-443.494,-59.458,8.419,1.920,1
2026-01-29 13:06:35,453422,9394.570,-516.689,530.322,341.548,132.972,939.575,8.251,2.227,1
2026-01-29 13:06:35,453462,8897.315,502.641,241.332,373.142,240.679,-261.349,8.173,-0.450,1
2026-01-29 13:06:35,453502,9166.802,-983.711,-1690.190,-744.016,53.455,566.426,7.954,0.007,1
2026-01-29 13:06:35,453542,7416.646,7736.223,-741.773,126.681,-109.255,303.299,8.203,-1.816,1
2026-01-29 13:06:35,453582,10137.993,4370.101,-582.747,-403.711,-248.386,-1496.297,8.234,3.193,0
2026-01-29 13:06:35,453622,7514.793,6468.398,-1260.368,45.799,234.217,30.898,8.456,-6.009,1
2026-01-29 13:06:35,453662,8015.329,6336.499,-229.963,784.655,-1179.499,812.830,8.658,5.207,1
2026-01-29 13:06:35,453702,6957.494,-1883.590,-800.073,362.292,240.261,843.971,8.453,-6.057,1
2026-01-29 13:06:35,453742,6657.466,4631.695,-1116.410,-10.621,-1283.176,856.339,8.602,1.568,1
2026-01-29 13:06:35,453782,7845.311,-67.911,-619.914,-208.931,364.105,398.728,8.541,2.676,1
2026-01-29 13:06:35,453822,7846.202,-4456.859,-2962.191,251.309,239.379,-1655.653,8.303,3.245,1
2026-01-29 13:06:35,453862,7345.132,90.928,-2371.324,719.092,802.889,1782.849,8.295,-3.254,1
2026-01-29 13:06:35,453902,7587.562,2473.797,-1212.689,582.978,1238.407,-777.469,8.408,3.058,1
2026-01-29 13:06:35,453942,8544.112,5666.058,563.715,-460.360,-145.328,-707.692,8.647,-7.996,1
2026-01-29 13:06:35,453982,8614.749,3197.007,-996.090,-595.675,-103.385,440.029,8.812,0.077,1
2026-01-29 13:06:35,454022,8132.718,-2620.059,-1709.014,291.478,1007.839,-414.281,8.590,-8.931,1
2026-01-29 13:06:35,454062,8938.860,5588.660,936.357,-784.099,937.635,-1036.214,8.835,3.104,1
2026-01-29 13:06:35,454102,9699.986,3946.706,276.457,294.990,801.773,166.375,8.906,-2.693,1
2026-01-29 13:06:35,454142,8134.233,5739.261,-878.091,1145.023,721.261,-508.127,9.068,-2.966,1
2026-01-29 13:06:35,454182,9263.836,6942.028,-2044.210,23.381,-1743.067,1584.795,9.268,9.459,0
2026-01-29 13:06:35,454222,9000.754,3444.438,-2063.649,-258.119,-356.541,51.817,9.312,-7.607,1
2026-01-29 13:06:36,454262,9914.894,2033.800,21.677,17.579,141.734,905.967,9.195,4.649,0
2026-01-29 13:06:36,454302,7925.449,6745.391,-1268.642,316.563,-670.082,705.250,9.337,-0.332,1
2026-01-29 13:06:36,454342,7024.572,1426.766,1215.332,-600.049,732.235,821.511,9.231,6.901,1
2026-01-29 13:06:36,454382,6161.905,6767.336,-922.336,140.321,-820.065,-273.331,9.383,-3.400,1
2026-01-29 13:06:36,454422,8154.523,5774.270,-708.368,-850.572,899.531,-2466.347,9.530,-7.952,0
2026-01-29 13:06:36,454462,7724.384,-2326.705,-183.634,390.845,-682.149,-734.721,9.365,3.314,1
2026-01-29 13:06:36,454502,6612.829,-516.318,845.727,158.136,-507.268,171.739,9.272,5.517,1
2026-01-29 13:06:36,454542,9465.012,-311.022,-23.155,784.777,-647.221,-813.703,9.088,4.698,1
2026-01-29 13:06:36,454582,7787.429,-2623.284,-1620.595,948.195,-307.724,-1309.317,8.944,-1.107,1
2026-01-29 13:06:36,454622,4970.275,-130.344,-1084.524,537.917,140.304,177.708,8.820,3.724,1
2026-01-29 13:06:36,454662,7908.924,4635.076,-2471.793,-94.852,-180.147,423.981,9.044,-4.143,1
2026-01-29 13:06:36,454702,6805.734,4067.065,-370.244,986.964,118.702,622.122,9.214,1.372,1
2026-01-29 13:06:36,454742,9608.430,4781.780,604.471,43.465,170.448,-1227.096,9.423,2.056,1
2026-01-29 13:06:36,454782,8075.816,-508.643,-271.344,514.680,214.956,326.800,9.405,-1.733,1
2026-01-29 13:06:36,454822,8617.740,5955.539,-1285.776,676.798,-452.380,192.697,9.499,0.989,1
2026-01-29 13:06:36,454862,8796.024,2378.799,-50.243,1565.717,-618.572,672.661,9.362,0.824,0
2026-01-29 13:06:36,454902,9324.095,161.027,147.795,575.300,849.937,4.266,9.205,0.410,1
2026-01-29 13:06:36,454942,6943.926,5804.494,-1293.201,174.286,-275.283,1315.273,9.363,0.204,1
2026-01-29 13:06:36,454982,9409.622,4867.038,-1415.260,735.899,-573.109,-265.139,9.478,-0.741,1
2026-01-29 13:06:36,455022,7846.989,876.546,-1852.086,402.014,-311.676,789.989,9.377,0.731,1
2026-01-29 13:06:36,455062,7471.862,3371.107,-139.004,1863.667,-2083.283,434.610,9.398,1.229,1
2026-01-29 13:06:36,455102,10031.335,3111.080,-125.488,-688.947,1246.142,-1714.014,9.405,-0.426,1
2026-01-29 13:06:36,455142,7535.046,2859.600,-1457.793,156.731,-2376.132,-714.076,9.400,-3.670,1
2026-01-29 13:06:36,455182,6700.743,2737.361,-305.436,77.673,-302.906,914.337,9.503,2.218,1
2026-01-29 13:06:36,455222,6440.209,-3285.810,856.171,464.407,309.640,303.387,9.257,-2.179,1
2026-01-29 13:06:37,455262,6964.709,2380.409,459.671,1378.110,-241.746,-505.824,9.308,2.321,1
2026-01-29 13:06:37,455302,7104.989,66.673,1169.054,284.844,116.547,-223.539,9.282,2.702,1
2026-01-29 13:06:37,455342,8724.215,-2077.058,-818.494,-420.199,131.192,818.971,9.145,2.651,1
2026-01-29 13:06:37,455382,9341.022,-751.934,-711.754,-303.443,-1569.373,52.487,9.071,-0.634,1
2026-01-29 13:06:37,455422,8910.942,100.835,-362.924,13.626,-544.083,-816.687,8.976,-0.604,1
2026-01-29 13:06:37,455462,8535.151,7561.298,-2726.636,952.061,208.490,-255.340,9.225,-1.090,1
2026-01-29 13:06:37,455502,9928.702,-2818.578,-278.883,54.720,-790.549,-784.666,8.981,-1.652,1
2026-01-29 13:06:37,455542,10002.370,6637.662,265.545,204.243,134.337,695.540,9.147,6.315,1
2026-01-29 13:06:37,455582,9402.463,-1883.058,-1792.202,-704.042,-629.106,-61.828,8.967,-0.170,1
2026-01-29 13:06:37,455622,6904.324,-1944.795,-312.784,-46.338,792.706,-203.158,8.739,7.158,1
2026-01-29 13:06:37,455662,7902.261,3111.788,-152.429,789.458,218.764,183.050,8.758,3.612,1
2026-01-29 13:06:37,455702,5569.886,-760.812,-2560.891,-553.070,572.799,81.026,8.546,-1.677,1
2026-01-29 13:06:37,455742,7581.464,3311.059,1546.263,538.506,652.090,-146.890,8.561,8.739,1
2026-01-29 13:06:37,455782,7106.806,2.178,-239.039,-2143.490,1410.057,-892.999,8.513,-0.061,1
2026-01-29 13:06:37,455822,7613.388,4790.504,-887.103,707.235,1539.446,-1186.632,8.579,-8.697,0
2026-01-29 13:06:37,455862,6857.997,2361.230,556.619,-997.256,992.895,-572.369,8.751,5.506,0
2026-01-29 13:06:37,455902,7080.228,2034.837,307.780,-347.748,473.503,-1095.915,8.722,-7.742,1
2026-01-29 13:06:37,455942,6027.839,908.697,-1851.854,-1691.304,-204.986,931.730,8.802,6.753,1
2026-01-29 13:06:37,455982,8348.819,1582.628,-1451.819,1141.946,815.109,-396.786,8.798,-2.785,1
2026-01-29 13:06:37,456022,7840.240,3870.936,-1977.107,1403.344,410.862,-136.225,8.898,-3.584,1
2026-01-29 13:06:37,456062,7756.625,648.779,-2581.766,509.082,-932.367,-1532.642,8.914,-4.834,0
2026-01-29 13:06:37,456102,6731.074,4476.358,-456.215,116.631,-363.549,-667.307,8.994,4.725,1
2026-01-29 13:06:37,456142,9562.721,3897.573,-308.790,-8.600,94.215,278.009,9.074,6.538,1
2026-01-29 13:06:37,456182,9603.484,5446.192,641.264,-119.880,54.917,-285.888,9.238,-4.497,1
2026-01-29 13:06:37,456222,9682.826,-840.243,357.483,336.166,-693.730,586.237,9.066,-0.357,1
2026-01-29 13:06:38,456262,7908.600,1508.137,-201.240,-1733.556,348.432,67.289,8.902,-5.809,1
2026-01-29 13:06:38,456302,8241.511,2290.548,-1022.960,258.125,815.250,-155.114,8.817,2.427,1
2026-01-29 13:06:38,456342,7738.827,5683.780,-699.941,-451.777,-484.425,853.965,8.960,-3.518,1
2026-01-29 13:06:38,456382,8824.839,-1315.859,-939.078,115.974,639.356,439.901,8.802,-2.697,1
2026-01-29 13:06:38,456422,6637.678,-89.352,-876.243,-968.403,-534.405,-894.130,8.689,1.343,1
2026-01-29 13:06:38,456462,7154.914,-450.694,160.906,-783.274,435.656,-512.859,8.487,-0.432,1
2026-01-29 13:06:38,456502,6591.104,6605.183,-824.429,-941.711,-504.792,283.954,8.731,-0.707,0
2026-01-29 13:06:38,456542,7163.872,5518.131,-1011.451,-517.713,-713.664,1842.774,8.976,0.942,1
2026-01-29 13:06:38,456582,5537.887,-3829.873,443.028,291.170,-82.819,320.758,8.777,0.147,1
2026-01-29 13:06:38,456622,8448.299,1660.402,-594.116,283.686,-323.244,-1443.786,8.825,-0.476,1
2026-01-29 13:06:38,456662,8781.455,165.076,-51.610,283.340,72.931,1618.419,8.794,-0.128,1
2026-01-29 13:06:38,456702,7966.205,4874.474,-1612.966,52.669,-174.051,-626.767,8.982,-0.912,1
2026-01-29 13:06:38,456742,8808.484,4862.667,1629.318,122.929,1968.027,-1270.917,9.147,-1.400,1
2026-01-29 13:06:38,456782,7160.389,3488.386,-605.927,179.720,350.888,562.887,9.276,0.332,1
2026-01-29 13:06:38,456822,8074.714,725.563,982.544,-65.483,-569.164,-391.712,9.248,2.580,1
2026-01-29 13:06:38,456862,8312.466,6263.405,-1066.492,445.410,832.460,-217.044,9.442,-2.871,1
2026-01-29 13:06:38,456902,8712.743,3603.958,-2108.069,218.694,-1120.565,-189.686,9.487,-1.497,1
2026-01-29 13:06:38,456942,8146.370,-1316.647,-485.746,699.993,-46.935,-1391.373,9.309,-1.723,1
2026-01-29 13:06:38,456982,8055.146,-1729.498,-902.257,1271.779,905.206,-881.862,9.098,4.640,1
2026-01-29 13:06:38,457022,8088.410,3673.131,-315.272,-352.281,-118.635,1607.272,9.138,5.917,1
2026-01-29 13:06:38,457062,8160.501,-224.342,-821.002,-186.284,-932.026,-630.031,8.922,-0.510,1
2026-01-29 13:06:38,457102,8436.219,5992.757,2277.129,111.717,707.335,-284.963,9.165,7.069,0
2026-01-29 13:06:38,457142,9116.352,-1104.823,-981.985,-617.469,1218.094,-960.753,8.977,-4.506,1
2026-01-29 13:06:38,457182,8489.272,1226.008,67.473,-438.661,-1209.415,594.836,9.006,0.763,1
2026-01-29 13:06:38,457222,6823.437,1631.062,-462.231,794.614,-875.026,1235.122,8.947,7.775,1
2026-01-29 13:06:39,457262,7229.842,546.516,-1375.742,-389.767,264.203,-135.430,8.936,-3.161,1
2026-01-29 13:06:39,457302,7609.224,3595.629,-178.153,-142.659,-927.181,1919.844,8.989,6.547,1
2026-01-29 13:06:39,457342,7206.676,-4807.511,-674.880,403.016,-74.350,-319.086,8.754,-1.771,1
2026-01-29 13:06:39,457382,7702.957,3380.428,-378.484,338.458,363.813,-1205.085,8.855,-6.250,1
2026-01-29 13:06:39,457422,7658.177,1533.290,549.558,23.566,-107.269,1375.520,8.939,8.969,1
2026-01-29 13:06:39,457462,8284.658,992.699,-1310.149,-391.431,-95.761,-121.384,8.969,9.395,1
2026-01-29 13:06:39,457502,8026.118,6036.107,-342.612,-695.470,1004.376,118.530,9.133,-3.496,1
2026-01-29 13:06:39,457542,9849.263,-308.895,-49.599,-1056.509,-415.056,1394.898,8.897,5.798,1
2026-01-29 13:06:39,457582,9398.995,-461.508,-22.899,-649.596,-211.543,-760.465,8.725,2.635,1
2026-01-29 13:06:39,457622,9578.129,1570.618,-734.016,-9.190,122.945,-1404.693,8.678,2.010,1
2026-01-29 13:06:39,457662,7122.827,5801.269,-287.097,-1377.889,484.309,205.098,8.874,-5.091,1
2026-01-29 13:06:39,457702,9585.627,-1346.028,-1212.344,-57.025,-847.147,695.818,8.688,4.806,1
2026-01-29 13:06:39,457742,7027.192,654.087,-1051.620,-1369.621,604.445,70.328,8.505,4.488,1
2026-01-29 13:06:39,457782,9459.367,1146.619,-846.203,8.162,1058.440,-783.815,8.424,-4.471,1
2026-01-29 13:06:39,457822,5602.486,6870.054,-2187.720,-181.859,-461.738,967.130,8.639,-5.498,1
2026-01-29 13:06:39,457862,6935.769,1287.158,-347.055,489.541,29.536,-610.529,8.601,5.417,1
2026-01-29 13:06:39,457902,7080.434,-2708.821,1.498,747.347,-255.404,196.509,8.445,-4.507,1
2026-01-29 13:06:39,457942,6865.487,2972.046,-45.438,-931.619,-287.122,1055.325,8.597,2.799,1
2026-01-29 13:06:39,457982,6051.640,189.062,-542.595,-1357.146,-33.428,1230.635,8.576,1.074,1
2026-01-29 13:06:39,458022,7955.143,4870.058,339.337,1393.897,-1246.861,11.539,8.706,1.038,1
2026-01-29 13:06:39,458062,7742.728,5945.903,-634.652,288.389,-194.649,-854.294,8.916,-0.489,1
2026-01-29 13:06:39,458102,6962.492,4699.503,-2566.209,471.303,-33.838,-1871.314,9.116,-44.377,1
2026-01-29 13:06:39,458142,7879.612,271.759,-276.322,387.662,-906.961,273.403,9.032,-0.877,1
2026-01-29 13:06:39,458182,9122.029,1359.534,-2387.219,292.769,-840.576,606.181,8.996,-0.476,1
2026-01-29 13:06:39,458222,9141.698,7474.284,330.086,-692.527,946.839,-2.150,9.206,-0.611,1
2026-01-29 13:06:40,458262,10234.073,5741.865,-447.137,1130.861,-77.816,-123.885,9.415,0.000,1
2026-01-29 13:06:40,458302,8403.871,2928.492,43.222,-838.710,-473.126,410.364,9.369,0.120,0
2026-01-29 13:06:40,458342,6257.285,4844.788,1849.721,-66.699,478.745,68.256,9.461,0.522,0
2026-01-29 13:06:40,458382,8229.629,-403.333,-699.481,743.051,-270.283,133.075,9.308,-2.220,1
2026-01-29 13:06:40,458422,7063.599,2357.522,-29.231,-410.009,418.043,-793.088,9.376,-1.290,1
2026-01-29 13:06:40,458462,6759.352,4996.553,-2000.531,891.643,-1285.915,-1664.565,9.510,-2.694,1
2026-01-29 13:06:40,458502,8288.743,6182.070,1248.464,-1560.229,-10.256,106.972,9.698,2.832,1
2026-01-29 13:06:40,458542,6832.988,3015.981,630.524,275.372,-293.640,-1427.605,9.820,0.283,1
2026-01-29 13:06:40,458582,6998.511,2252.333,-225.621,-938.019,251.267,20.997,9.800,3.676,0
2026-01-29 13:06:40,458622,6707.395,-801.675,-1125.072,437.405,1621.782,1181.242,9.645,5.323,0
2026-01-29 13:06:40,458662,7961.370,-3712.115,-2850.371,-781.600,-452.545,-66.922,9.486,0.083,1
2026-01-29 13:06:40,458702,7461.077,3647.507,-1395.632,-469.886,271.624,-1910.464,9.598,-4.749,1
2026-01-29 13:06:40,458742,9291.546,-4400.913,-487.075,-34.982,-478.897,800.228,9.388,1.894,1
2026-01-29 13:06:40,458782,8224.191,3047.755,-419.671,1659.548,-1311.600,738.971,9.496,-4.135,1
2026-01-29 13:06:40,458822,8549.495,2329.951,-306.769,579.626,760.832,-448.201,9.500,-1.043,1
2026-01-29 13:06:40,458862,9003.949,-1068.149,-976.760,-668.697,1314.892,-2052.745,9.346,-7.561,1
2026-01-29 13:06:40,458902,8975.049,1252.894,-2154.116,765.770,-1289.777,581.933,9.299,-4.344,1
2026-01-29 13:06:40,458942,9377.930,-737.557,-2057.172,-920.411,-35.877,243.455,9.118,-7.794,1
2026-01-29 13:06:40,458982,9071.926,6286.765,-257.763,-48.144,-321.790,-1206.229,9.238,-4.417,1
2026-01-29 13:06:40,459022,8024.370,737.540,1135.530,-1235.487,-38.162,-416.145,9.109,2.460,1
2026-01-29 13:06:40,459062,7325.418,7107.886,-1117.043,-111.731,-160.409,-685.496,9.339,1.010,1
2026-01-29 13:06:40,459102,7822.302,10.830,-2486.511,-672.393,-798.971,-2185.053,9.244,-9.434,1
2026-01-29 13:06:40,459142,5820.893,1767.374,-1312.461,-1890.639,1.661,172.668,9.180,-4.943,1
2026-01-29 13:06:40,459182,7475.626,3588.290,-561.166,713.296,99.443,664.611,9.363,4.884,1
2026-01-29 13:06:40,459222,6877.844,15.677,994.940,42.854,-219.762,-712.468,9.274,0.421,1
2026-01-29 13:06:41,459262,7398.081,-2429.976,-419.068,1595.293,-1074.584,-72.485,9.093,9.275,1
2026-01-29 13:06:41,459302,8454.839,1743.223,-2253.953,-1430.524,565.886,-200.604,9.136,7.430,1
2026-01-29 13:06:41,459342,8091.458,6063.286,-430.988,-191.369,28.265,559.121,9.361,-1.449,1
2026-01-29 13:06:41,459382,6899.878,-355.097,-372.098,39.842,-1153.202,-1132.279,9.278,1.113,1
2026-01-29 13:06:41,459422,6088.083,-1807.945,-878.876,-673.212,738.207,-1185.074,9.178,-1.006,1
2026-01-29 13:06:41,459462,8227.555,-554.518,-990.739,792.983,-593.273,-671.517,8.968,0.341,1
2026-01-29 13:06:41,459502,9391.807,-2814.711,-178.481,314.974,-56.427,-384.100,8.737,6.545,1
2026-01-29 13:06:41,459542,6724.653,6249.713,-55.117,-534.722,1818.869,-417.124,8.910,-5.525,1
2026-01-29 13:06:41,459582,8472.946,7068.653,-1332.333,485.491,490.239,1053.993,9.150,-1.623,1
2026-01-29 13:06:41,459622,8796.999,6387.996,-1139.394,-392.392,-246.251,599.299,9.296,0.548,1
2026-01-29 13:06:41,459662,7963.295,-181.790,-221.117,1126.655,-1028.642,1143.051,9.142,0.552,1
2026-01-29 13:06:41,459702,7280.770,482.005,-799.769,-1527.672,-284.504,327.486,9.115,4.020,1
2026-01-29 13:06:41,459742,6244.221,7414.290,-1391.048,366.187,-370.181,-22.935,9.321,-2.831,1
2026-01-29 13:06:41,459782,7239.912,1794.741,-2749.380,-557.071,700.743,-997.941,9.205,-2.595,1
2026-01-29 13:06:41,459822,7447.357,2130.520,-437.055,-119.953,-1200.672,490.383,9.155,1.721,1
2026-01-29 13:06:41,459862,8222.940,-3433.070,1075.602,-342.408,-598.216,620.059,8.915,-0.055,1
2026-01-29 13:06:41,459902,8698.795,917.064,910.011,197.829,276.442,838.769,8.834,0.158,1
2026-01-29 13:06:41,459942,7049.775,-655.050,-1165.108,-426.171,246.638,405.073,8.727,0.107,1
2026-01-29 13:06:41,459982,8714.656,-3595.608,-756.972,-295.438,532.888,231.701,8.495,0.990,1
2026-01-29 13:06:41,460022,7941.105,3699.920,-339.923,-933.655,1664.973,-1.817,8.661,-0.171,1
2026-01-29 13:06:41,460062,9269.606,899.350,-2466.398,-51.039,-924.206,-100.189,8.701,-0.608,1
2026-01-29 13:06:41,460102,8196.739,2085.270,-1800.919,579.209,172.196,926.967,8.745,-0.920,1
2026-01-29 13:06:41,460142,8741.526,1278.875,-1591.891,253.533,-970.648,-265.634,8.700,1.222,1
2026-01-29 13:06:41,460182,8431.189,2968.443,-3005.990,-453.814,-359.092,-1401.492,8.753,-21.816,1
2026-01-29 13:06:41,460222,7323.414,6619.004,1242.132,-493.178,-1035.704,1231.363,8.950,-2.813,1
2026-01-29 13:06:42,460262,9123.588,4396.053,-1723.030,-1189.520,-442.604,297.398,8.966,3.799,0
2026-01-29 13:06:42,460302,9573.502,749.636,-287.608,1892.430,366.769,1474.430,8.889,3.536,1
2026-01-29 13:06:42,460342,8031.201,3885.692,-1337.462,-154.773,-313.756,-481.380,8.872,2.805,1
2026-01-29 13:06:42,460382,8750.511,7015.361,-841.969,-1083.743,263.304,-169.095,9.099,4.749,0
2026-01-29 13:06:42,460422,8453.457,1008.670,-1421.986,688.541,612.003,30.549,9.011,1.189,0
2026-01-29 13:06:42,460462,8681.583,162.678,-886.981,-206.911,-2429.498,-812.249,8.794,4.414,0
2026-01-29 13:06:42,460502,8120.858,-2790.027,-1884.764,-171.771,-528.423,-486.759,8.617,-2.487,1
2026-01-29 13:06:42,460542,7507.528,-1671.564,-507.480,1202.742,641.400,-44.293,8.497,-7.391,1
2026-01-29 13:06:42,460582,7560.186,3566.670,-1371.315,-219.702,-768.861,1039.548,8.638,-1.071,1
2026-01-29 13:06:42,460622,6374.410,3053.473,-1158.983,-744.651,-686.386,-350.211,8.756,1.794,1
2026-01-29 13:06:42,460662,7566.029,5301.852,-1019.581,1186.726,-404.223,101.425,8.870,4.778,0
2026-01-29 13:06:42,460702,8837.139,-2250.345,-52.358,-222.699,-443.205,661.247,8.640,3.603,1
2026-01-29 13:06:42,460742,8728.965,609.251,-235.681,-18.481,674.309,-687.364,8.680,-5.827,1
2026-01-29 13:06:42,460782,8728.155,5249.053,-895.850,-1170.616,-6.978,-275.885,8.880,2.538,0
2026-01-29 13:06:42,460822,9534.906,-1272.517,614.255,2055.649,871.822,-708.056,8.673,6.748,1
2026-01-29 13:06:42,460862,8955.344,-1647.891,-1638.199,443.869,-703.992,-318.941,8.530,-8.565,1
2026-01-29 13:06:42,460902,9131.165,2129.550,1210.458,-488.559,-107.704,418.114,8.541,8.052,1
2026-01-29 13:06:42,460942,8942.347,4158.124,-971.066,-241.036,629.711,-438.133,8.624,-5.426,1
2026-01-29 13:06:42,460982,8677.108,7525.183,41.003,3.956,-819.867,-462.079,8.800,8.843,1
2026-01-29 13:06:42,461022,8853.765,7986.547,-204.425,258.557,211.691,99.652,8.990,6.046,1
2026-01-29 13:06:42,461062,7620.242,7097.989,-2297.557,205.034,1539.489,736.370,9.208,0.174,1
2026-01-29 13:06:42,461102,6766.559,5529.461,-1337.844,1177.341,-644.449,1424.450,9.380,5.655,1
2026-01-29 13:06:42,461142,7197.319,4423.128,-208.934,-305.104,1152.446,-1179.502,9.421,-4.880,1
2026-01-29 13:06:42,461182,7547.283,6568.307,-774.019,891.527,27.757,-322.680,9.656,-5.024,1
2026-01-29 13:06:42,461222,8942.924,2893.186,141.044,477.802,786.578,1007.756,9.581,3.483,1
2026-01-29 13:06:43,461262,8462.305,-3145.456,-2116.881,1395.697,608.709,-543.330,9.386,-3.190,1
2026-01-29 13:06:43,461302,7707.829,1378.887,-429.003,-581.017,851.749,-402.473,9.451,1.286,1
2026-01-29 13:06:43,461342,8038.890,-1335.499,640.188,7.203,-544.502,-1029.045,9.283,-0.463,1
2026-01-29 13:06:43,461382,8868.183,-1638.134,-1004.476,359.818,71.089,-407.318,9.178,-0.955,1
2026-01-29 13:06:43,461422,8034.061,3534.814,128.784,-245.698,-855.727,69.599,9.332,2.454,1
2026-01-29 13:06:43,461462,7071.983,-2461.393,328.612,325.561,-1599.943,-930.798,9.186,-1.513,1
2026-01-29 13:06:43,461502,8562.190,1764.399,-1043.673,-1282.360,149.651,-1108.683,9.243,-1.581,1
2026-01-29 13:06:43,461542,8683.822,339.955,-1894.865,-627.756,633.064,501.274,9.196,-0.086,1
2026-01-29 13:06:43,461582,9170.448,5901.472,981.710,-275.476,306.236,-1276.755,9.439,-0.079,1
2026-01-29 13:06:43,461622,10219.034,310.673,-895.074,-856.723,-428.022,-416.156,9.309,-0.014,0
2026-01-29 13:06:43,461662,9337.409,-2608.743,-1696.488,-686.122,-1584.276,1500.338,9.096,-0.913,1
2026-01-29 13:06:43,461702,9068.435,5623.655,806.719,-42.837,-606.254,1586.981,9.254,-1.646,1
2026-01-29 13:06:43,461742,10769.009,3317.888,-969.706,-734.933,-90.563,-468.942,9.263,-1.044,1
2026-01-29 13:06:43,461782,8783.620,7050.881,-291.103,-292.236,48.186,496.531,9.417,1.804,1
2026-01-29 13:06:43,461822,7352.873,924.038,-1761.221,-748.477,-125.987,-533.354,9.309,-4.075,1
2026-01-29 13:06:43,461862,6469.269,-3164.691,313.106,912.846,-1209.773,722.563,9.102,0.127,1
2026-01-29 13:06:43,461902,7279.119,1523.918,-1641.339,-329.399,-893.930,1597.123,9.127,5.090,1
2026-01-29 13:06:43,461942,7026.974,-2220.812,-36.221,-638.184,-362.106,-1535.992,8.932,-0.913,1
2026-01-29 13:06:43,461982,7034.737,-640.404,-793.631,-409.125,-767.073,468.604,8.834,1.661,1
2026-01-29 13:06:43,462022,6660.330,2613.378,-1024.220,630.520,385.635,238.552,9.025,-4.496,1
2026-01-29 13:06:43,462062,9813.736,-1617.664,-2180.405,1857.376,2071.056,655.083,8.939,-1.229,1
2026-01-29 13:06:43,462102,8570.096,-859.980,1157.952,-478.877,-286.065,1430.684,8.864,5.384,1
2026-01-29 13:06:43,462142,8956.682,4874.965,-679.310,275.528,-132.360,-664.380,9.017,-0.346,1
2026-01-29 13:06:43,462182,7586.064,1403.035,-3551.803,-167.793,-1143.882,948.432,9.007,-5.573,1
2026-01-29 13:06:43,462222,7863.545,-3783.728,512.076,895.936,-432.292,634.700,8.771,-1.600,1
2026-01-29 13:06:44,462262,8601.869,5349.258,10.689,-1085.931,1483.384,-520.187,8.997,0.958,1
2026-01-29 13:06:44,462302,8297.193,3957.125,-1616.586,-732.016,-416.851,570.560,9.067,-8.174,1
2026-01-29 13:06:44,462342,9527.826,5416.102,592.647,-369.634,176.061,-328.459,9.122,2.020,1
2026-01-29 13:06:44,462382,7962.285,4860.160,1284.569,811.147,272.173,567.719,9.283,9.260,1
2026-01-29 13:06:44,462422,8599.714,-2629.330,-2776.668,-915.262,369.615,-1099.644,9.059,-6.135,0
2026-01-29 13:06:44,462462,9280.419,488.042,-1045.540,827.290,553.482,1404.353,8.996,-0.197,1
2026-01-29 13:06:44,462502,9035.579,3495.405,-2523.628,30.076,148.218,363.577,8.999,-7.438,1
2026-01-29 13:06:44,462542,8086.069,5403.965,-2613.560,-669.898,121.292,-330.390,9.156,1.776,1
2026-01-29 13:06:44,462582,5498.348,3622.966,-193.759,74.566,522.090,-1447.567,9.248,0.962,1
2026-01-29 13:06:44,462622,6420.695,1226.976,1226.554,700.205,-761.563,-985.509,9.289,-8.095,1
2026-01-29 13:06:44,462662,8905.703,-2458.524,-1200.917,199.126,-53.002,-358.506,9.095,3.306,1
2026-01-29 13:06:44,462702,8715.527,2815.230,-1292.133,207.559,-442.092,-1125.869,9.123,-0.522,1
2026-01-29 13:06:44,462742,7526.706,178.024,-334.083,-401.027,-245.365,482.789,9.051,7.695,1
2026-01-29 13:06:44,462782,10036.472,-3821.432,-24.483,-1183.030,544.190,1255.471,8.825,6.183,1
2026-01-29 13:06:44,462822,8153.284,658.820,1164.228,-289.587,911.792,684.827,8.776,5.104,1
2026-01-29 13:06:44,462862,9981.936,-2349.558,-518.781,-779.947,-545.601,712.302,8.587,6.423,1
2026-01-29 13:06:44,462902,7641.336,-3716.355,-2368.135,699.094,485.537,89.001,8.341,2.765,1
2026-01-29 13:06:44,462942,10015.717,1496.022,-2192.216,-646.917,-219.141,-3370.667,8.280,-41.574,1
2026-01-29 13:06:44,462982,8905.849,-1065.018,1012.000,304.190,945.002,-88.104,8.105,2.591,1
2026-01-29 13:06:44,463022,10610.393,4042.357,-1497.305,113.079,378.525,84.866,8.186,0.688,1
2026-01-29 13:06:44,463062,6547.899,1875.707,754.842,62.828,908.926,990.454,8.275,0.493,1
2026-01-29 13:06:44,463102,8469.110,7935.429,-2804.654,507.853,-1315.566,915.971,8.521,0.404,1
2026-01-29 13:06:44,463142,6825.764,2251.668,364.222,-1450.255,856.232,-610.062,8.476,-1.962,1
2026-01-29 13:06:44,463182,8821.789,3961.564,-568.024,1472.327,-342.472,-1350.269,8.519,0.406,1
2026-01-29 13:06:44,463222,5161.999,6903.847,-2404.010,1.112,-1425.214,-228.638,8.758,0.032,0
2026-01-29 13:06:45,463262,5690.477,4852.273,-1429.889,-1309.814,-80.176,417.875,8.848,-0.000,1
2026-01-29 13:06:45,463302,8234.096,2137.383,-1267.053,1749.844,1300.607,693.081,8.917,-0.436,1
2026-01-29 13:06:45,463342,7811.786,3489.117,116.472,-1096.212,-813.938,-93.885,9.099,-0.387,1
2026-01-29 13:06:45,463382,7880.314,-1998.103,96.992,-602.958,192.947,-475.423,9.070,0.586,1
2026-01-29 13:06:45,463422,9732.462,3767.102,-1048.355,-341.167,58.009,-70.336,9.199,2.874,1
2026-01-29 13:06:45,463462,8807.175,140.195,-1456.315,-520.907,583.999,-585.014,9.215,-0.510,0
2026-01-29 13:06:45,463502,7503.422,3663.458,-383.373,-504.056,12.571,134.640,9.418,-1.005,1
2026-01-29 13:06:45,463542,8404.239,1554.365,-922.653,227.586,-1077.049,-128.033,9.405,-2.156,1
2026-01-29 13:06:45,463582,7750.821,2533.378,-823.512,625.098,1040.025,199.710,9.474,-2.346,1
2026-01-29 13:06:45,463622,7808.222,6838.772,-256.494,-94.875,350.719,-800.140,9.671,0.128,1
2026-01-29 13:06:45,463662,9051.050,1964.134,-1570.313,-1695.000,-751.247,-951.390,9.650,-1.298,1
2026-01-29 13:06:45,463702,10213.059,1250.614,-29.492,363.206,-514.773,339.792,9.558,2.801,1
2026-01-29 13:06:45,463742,7752.373,4371.629,-822.452,-582.151,-967.361,460.922,9.660,-0.139,1
2026-01-29 13:06:45,463782,7562.095,264.097,-136.366,-1022.991,143.758,-30.965,9.570,-4.700,1
2026-01-29 13:06:45,463822,7725.903,2065.756,658.288,131.838,114.919,930.563,9.420,7.837,1
2026-01-29 13:06:45,463862,6720.959,1689.667,-777.042,597.072,632.506,-785.726,9.421,-4.353,1
2026-01-29 13:06:45,463902,7356.025,6035.632,996.777,141.155,1352.178,-1062.993,9.608,0.086,1
2026-01-29 13:06:45,463942,8375.621,2569.459,1978.736,1267.755,-72.809,-1139.197,9.594,-1.249,1
2026-01-29 13:06:45,463982,7657.550,-954.308,-1193.342,500.146,856.668,-1922.471,9.362,2.534,1
2026-01-29 13:06:45,464022,8329.803,-1108.812,1841.351,-938.251,381.787,2113.031,9.180,46.848,0
2026-01-29 13:06:45,464062,6646.459,-1152.249,-1643.637,222.920,-15.138,779.238,9.108,-8.890,1
2026-01-29 13:06:45,464102,9666.734,1453.123,-1347.110,-1537.797,21.968,654.698,9.083,1.256,1
2026-01-29 13:06:45,464142,6246.483,4925.374,-1294.082,-790.945,-414.819,-1182.667,9.210,-6.206,1
2026-01-29 13:06:45,464182,8020.414,3871.429,-196.843,-1021.552,1481.971,-44.815,9.440,3.641,0
2026-01-29 13:06:45,464222,5710.022,4983.240,-1193.836,-286.847,-1181.015,-1843.932,9.629,-9.481,1
2026-01-29 13:06:46,464262,8081.839,2113.297,-1496.592,1138.965,-1562.254,-1109.086,9.705,-5.414,1
2026-01-29 13:06:46,464302,7001.512,1292.834,-672.472,9.630,201.591,410.732,9.666,8.671,1
2026-01-29 13:06:46,464342,8945.771,408.519,-148.858,279.815,978.942,586.874,9.533,-1.957,1
2026-01-29 13:06:46,464382,8444.343,7308.481,-1601.555,-438.825,682.745,-1731.022,9.731,-6.773,0
2026-01-29 13:06:46,464422,9488.221,1664.094,-434.563,34.283,152.396,889.613,9.736,0.846,1
2026-01-29 13:06:46,464462,7826.552,1360.850,949.194,-524.135,-832.646,-1890.447,9.804,-3.731,1
2026-01-29 13:06:46,464502,7099.812,741.000,-789.511,193.422,1223.274,1144.709,9.682,6.077,0
2026-01-29 13:06:46,464542,8897.884,1772.757,-1586.547,1466.139,-608.466,-965.123,9.657,-6.045,1
2026-01-29 13:06:46,464582,6900.613,9342.035,294.193,1281.571,-43.521,1017.083,9.904,2.939,0
2026-01-29 13:06:46,464622,8435.475,-3883.246,5.808,-1474.077,98.868,-1368.287,9.667,-0.430,1
2026-01-29 13:06:46,464662,8220.561,-1260.552,-301.208,1282.632,-564.694,867.728,9.628,0.447,1
2026-01-29 13:06:46,464702,6755.695,3599.409,807.502,-170.450,-601.618,283.267,9.749,-3.272,1
2026-01-29 13:06:46,464742,6366.035,2116.702,-876.008,-627.403,-55.480,1075.499,9.769,-0.673,1
2026-01-29 13:06:46,464782,7921.062,4964.142,-336.061,338.391,30.004,-736.712,10.013,0.817,1
2026-01-29 13:06:46,464822,7642.844,-2980.399,617.811,-616.658,440.301,780.930,9.829,1.796,1
2026-01-29 13:06:46,464862,8457.284,5673.105,-48.839,-1259.210,134.230,-116.632,10.037,-0.842,1
2026-01-29 13:06:46,464902,8647.577,5003.338,-1156.908,536.720,419.863,415.471,10.164,0.228,1
2026-01-29 13:06:46,464942,9529.486,-2757.336,-847.369,644.278,211.914,412.312,9.944,12.065,1
2026-01-29 13:06:46,464982,9471.259,5947.905,-899.937,848.684,-1252.208,279.644,10.124,0.188,1
2026-01-29 13:06:46,465022,6862.059,2440.188,360.497,-70.759,79.938,324.011,10.103,-1.642,1
2026-01-29 13:06:46,465062,8395.189,7337.053,-2714.298,-778.334,-894.800,-1083.433,10.350,-2.173,1
2026-01-29 13:06:46,465102,8922.392,3290.905,-213.459,280.962,-108.332,641.598,10.311,-1.326,1
2026-01-29 13:06:46,465142,7482.404,5839.788,-730.607,-124.802,-979.242,-286.021,10.489,2.504,1
2026-01-29 13:06:46,465182,8182.456,5402.621,-293.248,2270.568,153.766,-397.040,10.643,3.135,1
2026-01-29 13:06:46,465222,8083.172,1255.529,731.538,653.329,932.005,41.717,10.533,3.158,0
2026-01-29 13:06:47,465262,7807.303,4232.194,-1554.562,-376.201,491.460,-33.113,10.549,-5.069,1
2026-01-29 13:06:47,465302,7378.960,-1446.476,-2169.016,-254.370,-177.104,-482.778,10.391,5.402,1
2026-01-29 13:06:47,465342,7258.948,4711.021,-1404.039,-2071.170,497.408,-70.663,10.541,1.462,0
2026-01-29 13:06:47,465382,8101.229,909.938,-1300.974,299.954,-377.399,422.136,10.506,-1.418,1
2026-01-29 13:06:47,465422,6355.853,3848.268,-896.750,-31.173,-1106.300,-1263.073,10.663,3.030,0
2026-01-29 13:06:47,465462,8229.882,6147.532,-1092.962,-471.337,640.133,1102.059,10.898,-6.510,1
2026-01-29 13:06:47,465502,8795.559,1413.238,-1154.034,210.644,-98.629,373.488,11.000,-7.537,1
2026-01-29 13:06:47,465542,7333.238,1458.705,-564.586,-432.208,268.421,1057.427,11.000,-7.424,1
2026-01-29 13:06:47,465582,9241.840,1610.647,-455.132,-1100.534,135.191,565.001,11.000,-0.340,1
2026-01-29 13:06:47,465622,7749.362,-441.000,-1381.709,-1603.131,473.952,1280.913,10.921,-6.293,1
2026-01-29 13:06:47,465662,10148.806,-3479.315,-806.786,-132.600,1086.932,578.226,10.681,1.491,1
2026-01-29 13:06:47,465702,10027.853,4096.184,566.913,94.412,783.486,-1752.578,10.692,-1.744,1
2026-01-29 13:06:47,465742,8262.057,5030.148,-711.562,-75.478,1526.302,697.386,10.898,-5.334,1
2026-01-29 13:06:47,465782,8332.994,1091.857,-1246.189,1033.807,-1275.362,1912.320,10.817,9.031,1
2026-01-29 13:06:47,465822,6580.232,2071.206,-1283.737,1169.298,-30.824,-1489.425,10.820,-3.558,1
2026-01-29 13:06:47,465862,7225.781,3046.057,-312.620,-223.488,-430.927,475.490,10.784,-5.875,1
2026-01-29 13:06:47,465902,7859.179,7862.675,169.525,-546.565,-1398.088,-63.546,11.000,7.040,1
2026-01-29 13:06:47,465942,6229.220,666.248,-888.491,42.250,-778.531,13.717,10.913,4.830,1
2026-01-29 13:06:47,465982,7351.065,4430.575,263.279,482.108,-562.967,453.774,11.000,-1.526,1
2026-01-29 13:06:47,466022,8707.338,1886.714,-1205.713,940.720,353.024,624.300,11.000,-4.992,1
2026-01-29 13:06:47,466062,7218.919,-3752.457,-1700.702,171.482,-486.706,474.347,10.828,-7.865,1
2026-01-29 13:06:47,466102,8829.920,2619.398,-368.844,196.769,-108.583,-404.884,10.876,-6.128,1
2026-01-29 13:06:47,466142,9054.125,3233.837,564.824,-1096.311,343.973,-196.555,10.998,4.464,1
2026-01-29 13:06:47,466182,7410.333,175.843,-1112.271,1265.998,793.220,-53.957,10.912,5.141,1
2026-01-29 13:06:47,466222,8609.401,4329.750,-1371.842,814.189,46.174,-1471.568,11.000,-2.463,1
2026-01-29 13:06:48,466262,7030.021,2325.674,-483.037,407.126,-1540.953,269.153,11.000,4.037,1
2026-01-29 13:06:48,466302,7053.258,-1270.392,1272.765,696.328,-1448.338,1531.157,10.777,4.083,0
2026-01-29 13:06:48,466342,7316.568,-1323.453,-1724.708,-2604.482,68.348,-23.967,10.678,-4.562,1
2026-01-29 13:06:48,466382,7542.352,2540.056,-1586.516,-775.711,939.766,562.508,10.633,-1.811,1
2026-01-29 13:06:48,466422,9372.681,4058.257,-1253.185,28.159,-176.721,-172.567,10.765,1.555,1
2026-01-29 13:06:48,466462,8086.262,2572.161,-528.663,-76.716,1247.318,1376.811,10.812,1.513,1
2026-01-29 13:06:48,466502,8723.005,1591.975,-328.075,821.276,-1325.993,1130.112,10.836,-1.049,1
2026-01-29 13:06:48,466542,8799.619,6999.215,-535.124,802.953,-164.458,-214.615,11.000,0.065,1
2026-01-29 13:06:48,466582,9542.666,3109.194,361.999,282.505,-767.240,302.172,11.000,0.159,1
2026-01-29 13:06:48,466622,5867.188,1308.166,-743.701,-331.494,684.844,-115.842,11.000,-0.453,1
2026-01-29 13:06:48,466662,7417.804,-294.985,-565.848,985.618,431.075,-305.681,10.851,1.159,1
2026-01-29 13:06:48,466702,8479.879,-2263.899,859.737,-468.432,-440.043,-129.556,10.668,-0.219,1
2026-01-29 13:06:48,466742,6711.859,4983.106,-397.522,1035.723,-744.391,460.954,10.917,-0.807,1
2026-01-29 13:06:48,466782,7487.398,-656.282,190.005,7.299,-733.651,-503.149,10.793,3.338,1
2026-01-29 13:06:48,466822,8395.900,-2234.841,-1240.914,-776.512,1996.470,359.784,10.649,0.039,1
2026-01-29 13:06:48,466862,6726.445,-2163.698,-2561.267,-661.635,1060.262,-672.337,10.493,-2.025,1
2026-01-29 13:06:48,466902,6984.742,180.851,-1389.000,-212.394,-381.577,-591.991,10.379,-3.219,0
2026-01-29 13:06:48,466942,7224.586,5934.662,-1680.971,-711.939,-1087.767,-1307.158,10.583,-5.487,1
2026-01-29 13:06:48,466982,8661.156,2643.995,-1626.306,-814.455,182.547,-949.004,10.615,-4.981,1
2026-01-29 13:06:48,467022,9008.687,5246.160,540.305,-112.145,-944.509,511.698,10.822,4.202,1
2026-01-29 13:06:48,467062,8520.188,5728.782,26.356,355.037,-682.512,43.378,10.852,-5.892,1
2026-01-29 13:06:48,467102,7470.833,5507.994,-1001.302,-719.655,-1480.005,-920.834,11.000,-5.118,1
2026-01-29 13:06:48,467142,6958.022,1608.001,761.705,-682.180,675.474,-640.328,10.862,-4.403,1
2026-01-29 13:06:48,467182,8303.102,-294.244,-370.852,54.776,-270.681,1792.327,10.646,1.959,1
2026-01-29 13:06:48,467222,6799.788,5820.097,754.674,1805.032,67.067,-1477.880,10.893,7.502,1
2026-01-29 13:06:49,467262,7115.490,-974.340,-229.417,164.760,1340.181,-510.489,10.697,4.761,1
2026-01-29 13:06:49,467302,6388.131,49.888,396.905,-517.734,-117.735,878.296,10.619,8.606,1
2026-01-29 13:06:49,467342,7379.496,-2534.728,-476.541,-4.780,575.182,517.999,10.425,-0.398,1
2026-01-29 13:06:49,467382,7959.943,-2505.723,-707.726,666.876,2.449,601.278,10.268,4.141,1
2026-01-29 13:06:49,467422,7963.939,-452.637,46.409,-252.532,-1095.475,328.731,10.171,-2.604,1
2026-01-29 13:06:49,467462,7439.406,174.527,-1273.506,39.511,-787.715,123.288,10.162,6.676,1
2026-01-29 13:06:49,467502,8169.357,1314.672,-554.217,395.071,-905.085,-1924.657,10.207,-3.158,1
2026-01-29 13:06:49,467542,9327.162,4898.804,-604.425,287.495,585.501,-860.293,10.390,-6.413,1
2026-01-29 13:06:49,467582,10269.253,4514.039,-572.176,1783.277,-708.652,125.148,10.552,9.437,1
2026-01-29 13:06:49,467622,10580.205,-2033.119,155.933,-93.735,1083.447,-472.512,10.329,-4.504,1
2026-01-29 13:06:49,467662,8979.856,5904.536,398.707,824.808,676.790,915.957,10.546,1.720,1
2026-01-29 13:06:49,467702,8264.336,1499.077,-378.347,-89.989,300.962,362.174,10.512,0.324,0
2026-01-29 13:06:49,467742,8498.278,5472.236,-348.342,667.983,-1674.511,227.554,10.645,2.670,1
2026-01-29 13:06:49,467782,9691.374,6638.435,-1133.133,-688.594,2065.467,-896.118,10.892,0.203,1
2026-01-29 13:06:49,467822,7746.804,5275.381,-1595.672,938.507,-636.467,-252.262,11.000,-7.360,0
2026-01-29 13:06:49,467862,6594.000,1994.671,-1888.424,-527.704,558.482,-2230.618,10.968,0.330,1
2026-01-29 13:06:49,467902,8149.190,1259.556,-350.823,181.609,-106.337,1124.578,10.912,-1.710,1
2026-01-29 13:06:49,467942,8780.295,4895.806,-1599.714,-1040.548,218.140,455.297,11.000,-3.635,1
2026-01-29 13:06:49,467982,6850.353,2372.728,-585.937,301.691,-918.662,-175.670,11.000,2.291,1
2026-01-29 13:06:49,468022,7482.179,2734.196,-1754.407,-202.659,554.003,1397.072,11.000,3.422,1
2026-01-29 13:06:49,468062,7922.480,1552.398,-2039.981,1501.734,-282.370,-985.834,11.000,-1.090,1
2026-01-29 13:06:49,468102,5744.239,-2139.150,-769.981,282.387,1165.550,10.347,10.833,2.142,1
2026-01-29 13:06:49,468142,8415.457,938.991,-117.548,1664.605,536.235,1038.916,10.837,1.106,1
2026-01-29 13:06:49,468182,6922.425,-1113.610,169.291,494.967,127.645,1750.152,10.670,1.025,0
2026-01-29 13:06:49,468222,6262.954,673.086,1414.366,-311.706,50.722,620.965,10.702,0.525,1
2026-01-29 13:06:50,468262,9622.657,-2178.703,-811.662,-254.980,380.243,620.193,10.604,-0.000,1
2026-01-29 13:06:50,468302,8183.816,2602.983,-1313.417,87.544,281.281,1071.985,10.675,0.666,1
2026-01-29 13:06:50,468342,8098.886,1588.964,-1141.785,-481.027,506.055,-652.715,10.617,0.718,0
2026-01-29 13:06:50,468382,8571.257,2726.905,-536.466,1255.107,137.336,-641.591,10.660,-0.514,0
2026-01-29 13:06:50,468422,9962.453,3713.795,-1241.666,-86.950,429.207,-830.448,10.783,1.761,1
2026-01-29 13:06:50,468462,9769.219,1132.908,412.477,-1174.700,-959.100,116.626,10.647,1.623,1
2026-01-29 13:06:50,468502,7689.509,3839.353,-42.444,-151.646,566.786,510.504,10.791,0.954,0
2026-01-29 13:06:50,468542,8603.594,7773.218,-1721.263,-420.953,869.344,-1940.698,11.000,-3.134,1
2026-01-29 13:06:50,468582,5471.332,2761.163,-1873.052,1305.944,-582.948,-328.892,11.000,3.974,1
2026-01-29 13:06:50,468622,8405.714,288.724,180.008,-269.304,-598.770,457.646,10.853,0.236,0
2026-01-29 13:06:50,468662,7219.599,-1109.627,-608.964,137.035,1374.715,-1050.349,10.652,-3.949,1
2026-01-29 13:06:50,468702,7127.803,-1223.416,-2346.323,80.825,-801.578,957.771,10.541,5.004,0
2026-01-29 13:06:50,468742,6985.071,6133.164,-431.460,-342.080,-522.540,1556.666,10.761,5.690,1
2026-01-29 13:06:50,468782,7985.414,4996.645,-1373.877,-756.252,553.287,-898.477,10.940,-7.958,1
2026-01-29 13:06:50,468822,7176.432,550.070,-1099.195,254.128,1362.120,1849.455,10.931,-2.577,1
2026-01-29 13:06:50,468862,8268.594,-3564.881,1190.988,-76.575,-57.755,-1186.037,10.723,1.566,1
2026-01-29 13:06:50,468902,8019.597,1123.900,-1498.536,882.172,737.198,-1335.476,10.655,-0.705,1
2026-01-29 13:06:50,468942,9199.808,3192.981,-1742.919,1204.057,-176.379,-927.393,10.664,-0.161,0
2026-01-29 13:06:50,468982,8582.429,3351.985,414.920,-158.999,642.748,1092.806,10.799,4.019,1
2026-01-29 13:06:50,469022,10573.097,-1501.473,-35.585,207.224,1645.759,850.676,10.557,4.096,1
2026-01-29 13:06:50,469062,8265.941,322.500,-1292.786,550.403,801.452,1378.289,10.501,-8.659,1
2026-01-29 13:06:50,469102,9026.602,2823.481,1336.229,-159.605,-527.483,769.722,10.498,8.204,1
2026-01-29 13:06:50,469142,8584.950,-1451.269,-1322.882,361.183,-415.275,893.329,10.263,-8.709,1
2026-01-29 13:06:50,469182,7875.888,5951.202,251.636,-745.443,6.655,1047.222,10.474,-1.479,1
2026-01-29 13:06:50,469222,7098.581,7065.084,1990.438,235.290,798.627,1053.459,10.699,7.098,1
2026-01-29 13:06:51,469262,7330.187,-313.944,-2591.524,160.804,-258.835,-112.185,10.536,-7.436,1
2026-01-29 13:06:51,469302,8202.413,6139.178,-525.733,1518.133,-847.891,693.768,10.731,6.581,1
2026-01-29 13:06:51,469342,7414.039,-794.803,393.542,-18.006,318.605,428.847,10.544,4.727,0
2026-01-29 13:06:51,469382,6293.388,-1470.070,-2136.281,288.408,-652.647,16.114,10.339,-5.276,0
2026-01-29 13:06:51,469422,7635.697,4894.323,-657.998,-129.430,457.177,-81.911,10.531,-8.090,1
2026-01-29 13:06:51,469462,6242.382,-3244.927,-1013.762,-346.500,97.633,-2442.227,10.319,7.220,1
2026-01-29 13:06:51,469502,9564.637,1379.645,-774.370,1331.512,568.344,-395.864,10.365,-4.526,1
2026-01-29 13:06:51,469542,7204.609,5514.931,1392.656,-761.564,973.346,1593.205,10.603,0.656,1
2026-01-29 13:06:51,469582,8646.792,6033.206,-53.618,-1735.161,-619.919,-1228.463,10.805,-5.369,1
2026-01-29 13:06:51,469622,7174.931,250.812,-426.063,632.045,1702.057,-1049.952,10.762,1.814,0
2026-01-29 13:06:51,469662,9113.529,-1578.986,-626.409,695.305,266.526,-897.154,10.595,0.363,1
2026-01-29 13:06:51,469702,8105.047,1390.924,-49.127,1589.049,690.928,-1121.036,10.532,-2.311,1
2026-01-29 13:06:51,469742,6930.145,7652.507,-202.940,-19.398,-275.599,1193.906,10.766,2.169,1
2026-01-29 13:06:51,469782,8681.406,716.097,-356.019,-1131.550,-1113.932,-269.232,10.601,0.556,0
2026-01-29 13:06:51,469822,6976.412,3568.442,-1024.636,347.088,349.762,993.025,10.607,-0.091,1
2026-01-29 13:06:51,469862,7937.009,2554.176,-129.714,1430.406,-116.902,-6.068,10.598,-0.551,1
2026-01-29 13:06:51,469902,7799.302,8036.759,-868.035,-210.921,635.118,-2183.838,10.826,-0.253,1
2026-01-29 13:06:51,469942,6464.386,-425.697,-384.657,209.409,200.766,-1106.882,10.738,-0.191,1
2026-01-29 13:06:51,469982,7491.773,4536.523,-570.099,257.874,389.094,24.003,10.834,-0.313,1
2026-01-29 13:06:51,470022,6823.339,193.486,-156.924,-261.975,523.926,-472.215,10.655,-0.544,1
2026-01-29 13:06:51,470062,7421.362,5709.276,-695.882,-6.187,922.122,-1590.776,10.901,-0.432,1
2026-01-29 13:06:51,470102,6403.187,2246.714,-521.389,-1043.772,360.009,-562.463,10.949,-2.076,1
2026-01-29 13:06:51,470142,6996.233,651.115,8.964,2351.059,787.427,1108.999,11.000,-0.139,1
2026-01-29 13:06:51,470182,7784.476,-772.958,-1317.171,-738.926,412.119,-878.219,10.934,1.328,0
2026-01-29 13:06:51,470222,9017.220,24.150,-2258.911,-322.663,-619.670,35.986,11.000,-0.633,1
2026-01-29 13:06:52,470262,8531.058,-2502.114,445.119,-821.234,-9.231,969.834,10.835,3.435,1
2026-01-29 13:06:52,470302,8907.234,1737.400,-189.423,-265.796,1036.617,708.614,10.889,-3.128,1
2026-01-29 13:06:52,470342,9371.884,-3743.990,271.847,1120.939,93.268,194.840,10.670,1.440,1
2026-01-29 13:06:52,470382,7789.450,-823.851,-227.532,-536.079,994.694,273.092,10.505,4.731,1
2026-01-29 13:06:52,470422,9338.957,-1173.755,-1635.140,-302.703,-129.146,731.722,10.342,-5.072,1
2026-01-29 13:06:52,470462,8969.895,-1608.628,-884.790,347.320,1132.051,425.804,10.126,-7.452,1
2026-01-29 13:06:52,470502,8778.094,2840.777,77.916,-263.255,-683.318,-338.868,10.007,-5.542,1
2026-01-29 13:06:52,470542,8314.642,4322.224,1792.571,-169.651,-842.305,-86.408,10.176,5.367,1
2026-01-29 13:06:52,470582,8959.216,4061.390,25.088,-194.446,-720.424,301.957,10.179,4.995,1
2026-01-29 13:06:52,470622,7731.788,-1690.750,1560.644,-331.421,-232.601,-271.876,9.937,0.954,1
2026-01-29 13:06:52,470662,9048.998,880.518,1661.312,-366.171,558.558,761.358,9.927,-4.188,1
2026-01-29 13:06:52,470702,7016.451,3544.640,-984.728,399.955,-1174.233,-425.635,10.007,-0.829,1
2026-01-29 13:06:52,470742,6294.375,-1948.964,-1619.270,-1191.263,299.874,-1085.523,9.835,-1.237,1
2026-01-29 13:06:52,470782,7968.968,2670.912,-1153.128,1130.199,-442.018,697.670,9.901,7.660,1
2026-01-29 13:06:52,470822,8627.967,-1278.901,-1026.751,-371.019,823.679,-1372.872,9.771,4.051,1
2026-01-29 13:06:52,470862,7776.166,3020.355,-1262.654,-1724.332,846.882,367.480,9.843,-7.532,1
2026-01-29 13:06:52,470902,6695.325,-2464.751,-1111.931,-347.384,236.846,-50.556,9.659,6.230,1
2026-01-29 13:06:52,470942,8583.983,837.511,-117.943,-1138.249,338.061,1185.606,9.597,1.922,1
2026-01-29 13:06:52,470982,8995.160,199.661,-67.488,-1274.298,-1009.512,577.574,9.527,1.157,1
2026-01-29 13:06:52,471022,8198.992,-2001.369,-399.811,-564.369,-108.071,-193.371,9.340,-1.960,1
2026-01-29 13:06:52,471062,9637.607,456.488,-2165.193,-326.853,488.433,-829.541,9.225,-5.711,1
2026-01-29 13:06:52,471102,8932.159,-681.119,-312.185,-1005.081,-1093.138,-809.961,9.023,1.980,1
2026-01-29 13:06:52,471142,9061.947,7416.049,-313.522,-514.025,-750.819,1223.249,9.206,-0.069,1
2026-01-29 13:06:52,471182,8295.703,3513.880,-1848.143,251.142,95.650,-1501.901,9.222,1.660,1
2026-01-29 13:06:52,471222,7027.898,-225.084,-935.022,-918.815,847.966,-1360.565,9.082,-3.599,1
2026-01-29 13:06:53,471262,6984.816,-388.093,-324.060,-569.096,64.322,-333.504,8.992,-0.463,1
2026-01-29 13:06:53,471302,6296.694,71.119,1187.019,392.807,138.128,1406.739,8.887,4.559,1
2026-01-29 13:06:53,471342,9293.990,5053.839,-22.475,25.600,194.561,542.202,9.020,-1.251,1
2026-01-29 13:06:53,471382,8795.933,6221.077,645.282,1113.390,-1188.390,-367.470,9.262,-0.015,1
2026-01-29 13:06:53,471422,7776.781,830.831,-344.511,1408.570,456.894,617.264,9.242,1.505,1
2026-01-29 13:06:53,471462,8068.549,-4040.041,335.796,291.068,-1360.245,-804.305,9.017,0.801,1
2026-01-29 13:06:53,471502,6515.595,-1700.931,-1080.270,-871.669,-365.935,-1397.992,8.893,-0.100,1
2026-01-29 13:06:53,471542,5961.174,2930.843,-2721.707,1474.494,176.627,601.035,9.097,0.333,1
2026-01-29 13:06:53,471582,8567.532,225.843,-644.456,249.783,385.214,416.149,8.967,-0.160,1
2026-01-29 13:06:53,471622,6239.431,-3502.871,-438.349,438.031,853.727,953.810,8.768,-0.219,1
2026-01-29 13:06:53,471662,8746.684,3402.202,955.602,894.355,-382.718,-1701.654,8.805,0.747,1
2026-01-29 13:06:53,471702,9558.957,3533.755,-830.083,-442.385,152.444,-601.475,8.996,1.118,1
2026-01-29 13:06:53,471742,9455.081,232.531,-125.094,-641.619,-958.401,563.257,8.888,-2.622,1
2026-01-29 13:06:53,471782,8804.784,4349.298,571.796,-42.004,301.649,737.800,8.941,0.981,1
2026-01-29 13:06:53,471822,8253.887,1755.684,673.851,27.765,-426.392,217.854,8.909,3.450,1
2026-01-29 13:06:53,471862,8993.625,5429.278,-1135.997,-135.274,-1449.973,191.663,9.056,1.136,1
2026-01-29 13:06:53,471902,7950.345,6882.409,-1262.169,1240.290,-1435.495,-185.097,9.270,-0.820,0
2026-01-29 13:06:53,471942,8852.765,5409.316,-1052.844,-2382.659,278.531,-89.592,9.352,-1.487,1
2026-01-29 13:06:53,471982,8783.571,8448.260,1043.427,-298.010,1006.719,-52.865,9.575,5.310,1
2026-01-29 13:06:53,472022,7663.165,567.448,-1082.009,229.281,1489.958,-1280.864,9.417,-0.515,1
2026-01-29 13:06:53,472062,6060.478,737.867,-952.349,-772.179,133.039,361.429,9.432,-2.839,1
2026-01-29 13:06:53,472102,9502.859,-106.712,-1047.922,-426.299,-723.712,-187.340,9.349,0.137,1
2026-01-29 13:06:53,472142,7547.658,677.906,-915.557,679.112,1118.963,-154.056,9.284,-4.822,1
2026-01-29 13:06:53,472182,6587.871,5489.185,-2726.369,1066.519,-415.928,-1242.713,9.505,-8.300,0
2026-01-29 13:06:53,472222,6951.680,341.902,-761.725,-633.881,-406.949,-0.798,9.514,-3.496,1
2026-01-29 13:06:54,472262,5342.441,670.890,818.634,-762.515,-390.333,-9.298,9.506,-2.162,1
2026-01-29 13:06:54,472302,8570.220,1173.340,138.132,396.656,424.217,-1440.574,9.562,3.744,1
2026-01-29 13:06:54,472342,9288.294,5303.264,1150.155,144.079,307.985,-103.337,9.729,0.695,0
2026-01-29 13:06:54,472382,9265.864,-149.453,-906.033,20.820,975.472,792.819,9.564,4.466,1
2026-01-29 13:06:54,472422,9244.440,2134.156,-1576.389,85.245,336.236,-225.531,9.572,2.908,1
2026-01-29 13:06:54,472462,9432.834,6048.643,-1451.801,-834.092,-177.636,-449.169,9.773,2.630,1
2026-01-29 13:06:54,472502,8008.308,4371.690,134.655,-916.460,1963.491,-10.769,9.902,4.425,1
2026-01-29 13:06:54,472542,8127.590,6171.656,-2627.812,362.076,-1406.717,-278.536,10.103,-6.165,1
2026-01-29 13:06:54,472582,6801.992,6197.391,-2063.161,-831.162,901.272,1149.901,10.161,-5.159,1
2026-01-29 13:06:54,472622,6898.018,1618.825,-888.733,-41.261,-185.459,-1147.053,10.025,-3.708,0
2026-01-29 13:06:54,472662,6906.730,5724.023,751.487,-768.390,228.200,982.905,10.206,0.525,1
2026-01-29 13:06:54,472702,5112.777,-1017.254,1368.343,574.982,-353.128,-227.144,10.018,7.636,1
2026-01-29 13:06:54,472742,7978.576,330.367,-1128.848,1356.938,49.443,-815.439,9.902,-5.973,1
2026-01-29 13:06:54,472782,8141.490,108.185,-242.828,7.082,319.825,508.578,9.884,3.345,1
2026-01-29 13:06:54,472822,8000.405,-904.720,-1328.555,127.335,-100.641,541.089,9.776,3.730,1
2026-01-29 13:06:54,472862,7117.678,6983.240,-2426.935,-1098.689,-1419.397,255.437,10.000,-4.357,1
2026-01-29 13:06:54,472902,8596.993,4796.231,-1679.440,-257.113,364.456,-330.288,10.198,0.437,1
2026-01-29 13:06:54,472942,7931.336,4057.504,905.246,-2125.079,-385.037,2452.621,10.407,20.894,1
2026-01-29 13:06:54,472982,6884.035,4647.961,-804.078,-1438.404,598.351,366.990,10.610,-3.586,1
2026-01-29 13:06:54,473022,9547.298,459.642,343.587,547.249,57.672,748.005,10.561,1.746,1
2026-01-29 13:06:54,473062,8280.373,2035.316,-1338.917,-871.137,-481.070,-1553.206,10.626,-2.614,0
2026-01-29 13:06:54,473102,8224.181,4896.030,-398.290,546.847,-907.125,511.820,10.780,0.408,1
2026-01-29 13:06:54,473142,6767.985,3399.629,-689.863,103.461,-361.461,775.002,10.923,-0.463,1
2026-01-29 13:06:54,473182,7701.660,4220.784,-525.519,2248.494,147.304,-1313.775,11.000,0.404,1
2026-01-29 13:06:54,473222,6002.541,2967.651,1180.418,337.780,1143.657,260.294,11.000,-0.044,1
2026-01-29 13:06:55,473262,9182.867,2319.791,-1210.469,-800.955,161.257,1181.615,10.929,-0.000,1
2026-01-29 13:06:55,473302,7721.602,3248.867,-2135.939,-788.477,462.391,-2401.828,11.000,-32.650,0
2026-01-29 13:06:55,473342,6214.048,-1739.976,-2800.055,359.697,-1061.768,966.011,10.795,0.199,1
2026-01-29 13:06:55,473382,8420.723,834.914,129.676,1321.167,733.980,-971.610,10.786,1.838,1
2026-01-29 13:06:55,473422,7591.188,2296.150,-1278.804,-1039.824,1113.808,142.999,10.923,0.336,1
2026-01-29 13:06:55,473462,6050.434,-2251.190,-226.086,264.642,-771.875,-1166.603,10.766,0.163,1
2026-01-29 13:06:55,473502,8612.085,505.392,27.249,-692.956,-1228.821,-160.864,10.793,3.005,1
2026-01-29 13:06:55,473542,8556.502,-2106.366,-779.671,469.987,-1354.757,-838.308,10.718,1.447,1
2026-01-29 13:06:55,473582,7446.795,4684.201,-328.574,-1483.776,1086.056,-807.167,10.850,5.224,1
2026-01-29 13:06:55,473622,8175.751,-2101.512,-835.773,-796.534,-1151.168,1090.416,10.686,3.860,1
2026-01-29 13:06:55,473662,9269.265,-382.302,533.240,898.263,-732.840,-1022.767,10.559,-5.037,1
2026-01-29 13:06:55,473702,7291.165,6080.131,-290.048,1300.097,-388.727,470.260,10.791,-3.031,1
2026-01-29 13:06:55,473742,8819.708,3289.436,-540.668,-594.596,-584.814,-1067.067,10.900,-0.762,1
2026-01-29 13:06:55,473782,8564.605,2553.697,-689.453,-416.695,814.360,458.759,10.910,5.905,1
2026-01-29 13:06:55,473822,7124.503,608.781,3281.496,-849.511,211.468,1822.747,10.832,42.462,1
2026-01-29 13:06:55,473862,7460.388,5947.021,-110.923,594.943,-1130.275,461.630,11.000,6.018,0
2026-01-29 13:06:55,473902,7629.879,-713.633,-2710.044,1004.812,71.074,2.901,10.834,-6.485,1
2026-01-29 13:06:55,473942,8715.274,4933.898,-602.737,341.828,-865.881,865.209,10.941,8.675,1
2026-01-29 13:06:55,473982,8116.229,1991.910,-916.332,246.120,1321.969,275.891,10.959,5.202,1
2026-01-29 13:06:55,474022,8317.076,3251.474,-2133.215,433.508,673.373,-1255.280,11.000,-9.599,1
2026-01-29 13:06:55,474062,6415.584,1719.695,-2803.256,1037.196,505.979,332.538,11.000,4.850,1
2026-01-29 13:06:55,474102,6322.065,-641.338,172.354,1061.410,282.900,907.659,10.866,-0.245,0
2026-01-29 13:06:55,474142,7469.605,-3360.207,611.426,-1523.335,375.335,-493.674,10.626,-0.097,0
2026-01-29 13:06:55,474182,7901.623,-1468.267,-315.226,-317.050,327.318,-836.827,10.562,5.022,1
2026-01-29 13:06:55,474222,7635.377,7297.802,-863.171,1119.980,601.415,93.877,10.802,6.818,1
2026-01-29 13:06:56,474262,7799.239,3629.001,-2203.142,652.894,159.257,-2776.798,10.949,-23.059,1
2026-01-29 13:06:56,474302,8548.823,1794.258,-243.759,-1477.060,130.576,-334.306,11.000,2.498,1
2026-01-29 13:06:56,474342,8304.683,-1841.411,-956.339,1257.009,988.704,200.530,10.790,-5.289,1
2026-01-29 13:06:56,474382,8270.892,5894.754,134.705,-1052.719,-166.608,207.330,11.000,1.999,1
2026-01-29 13:06:56,474422,8060.825,3127.010,-191.399,1138.348,-102.847,-397.938,11.000,-1.331,1
2026-01-29 13:06:56,474462,9262.161,677.752,-834.490,-1072.889,-833.727,933.730,10.918,-1.984,1
2026-01-29 13:06:56,474502,6463.064,-589.083,-728.034,-317.277,-805.809,1579.831,10.769,0.978,1
2026-01-29 13:06:56,474542,7037.696,4340.000,-1721.517,-261.130,-601.493,195.906,10.890,5.816,1
2026-01-29 13:06:56,474582,6456.612,-235.040,-2166.002,-157.222,-1696.827,707.551,10.775,5.771,1
2026-01-29 13:06:56,474622,8223.521,-1872.707,-458.918,-435.059,-1686.179,127.886,10.597,2.480,1
2026-01-29 13:06:56,474662,9615.045,-558.116,-1897.634,1086.786,-234.546,-204.655,10.449,3.485,1
2026-01-29 13:06:56,474702,6016.130,5456.564,-1015.748,-144.354,313.939,286.646,10.618,2.434,1
2026-01-29 13:06:56,474742,6913.100,2479.595,-1047.002,-491.307,-672.644,540.984,10.631,2.371,1
2026-01-29 13:06:56,474782,8127.064,-384.194,-63.570,-629.634,376.999,430.187,10.528,-2.410,1
2026-01-29 13:06:56,474822,6240.383,3619.001,105.209,-1489.288,1002.627,-1077.182,10.722,0.079,1
2026-01-29 13:06:56,474862,6861.650,-2141.236,85.605,-218.536,1452.572,-163.917,10.534,-0.947,1
2026-01-29 13:06:56,474902,7543.915,5539.589,-645.120,474.911,377.751,407.667,10.715,0.410,1
2026-01-29 13:06:56,474942,7786.182,3218.226,426.850,621.443,-922.147,600.723,10.856,0.174,1
2026-01-29 13:06:56,474982,7611.115,319.764,-966.221,-214.168,208.410,745.394,10.743,0.555,1
2026-01-29 13:06:56,475022,8533.708,-352.128,-1089.733,919.846,339.634,-1248.730,10.754,0.092,1
2026-01-29 13:06:56,475062,7451.174,1366.319,-778.141,260.147,822.319,-243.038,10.790,2.443,1
2026-01-29 13:06:56,475102,8637.302,-3177.293,-1480.401,-259.595,23.515,-1001.986,10.547,2.585,1
2026-01-29 13:06:56,475142,8041.900,-2119.026,2037.816,398.647,453.655,1062.694,10.347,18.988,1
2026-01-29 13:06:56,475182,9588.201,4194.613,1276.343,935.415,-93.358,-7.052,10.382,3.439,1
2026-01-29 13:06:56,475222,10244.341,759.553,-2113.050,-1861.347,342.935,-735.738,10.209,-3.948,1
2026-01-29 13:06:57,475262,8805.223,8366.962,-409.708,231.795,176.945,-130.302,10.447,-2.552,1
2026-01-29 13:06:57,475302,8205.952,-651.995,-1154.357,1870.304,504.107,-2317.590,10.305,-5.181,1
2026-01-29 13:06:57,475342,7633.392,6586.425,632.406,-288.809,-177.533,-468.418,10.452,5.160,1
2026-01-29 13:06:57,475382,7361.824,4542.954,-2159.694,616.315,285.754,-283.133,10.562,-2.716,1
2026-01-29 13:06:57,475422,8068.370,4458.779,-2289.687,-504.641,759.064,-1026.543,10.667,-7.394,1
2026-01-29 13:06:57,475462,7554.786,6153.916,-578.104,-1083.105,609.796,-177.104,10.817,0.063,1
2026-01-29 13:06:57,475502,6502.136,3588.112,-198.791,338.349,-536.255,-1548.509,11.000,-2.608,1
2026-01-29 13:06:57,475542,10001.258,-3463.654,125.565,-67.699,1247.401,-125.982,10.866,-7.343,1
2026-01-29 13:06:57,475582,5991.863,-3151.033,-1426.670,203.252,984.202,-1788.083,10.702,-7.504,1
2026-01-29 13:06:57,475622,7474.350,1353.228,-813.559,-531.723,-426.564,-159.368,10.690,-8.288,1
2026-01-29 13:06:57,475662,9211.541,-2280.832,-1669.540,845.016,-632.060,-750.587,10.448,-6.682,0
2026-01-29 13:06:57,475702,8672.181,1431.341,-1079.570,404.121,-586.509,72.167,10.467,5.404,1
2026-01-29 13:06:57,475742,9281.375,4318.500,1613.654,-328.597,-113.191,2674.632,10.604,9.936,1
2026-01-29 13:06:57,475782,6871.277,-1428.446,-591.628,-850.465,728.890,29.355,10.488,-9.310,1
2026-01-29 13:06:57,475822,9575.178,360.262,558.010,-295.606,381.341,1621.526,10.427,-3.256,1
2026-01-29 13:06:57,475862,7885.542,7978.137,-75.247,274.962,-378.890,742.837,10.656,-2.227,1
2026-01-29 13:06:57,475902,9158.760,-3341.435,492.118,-2168.700,210.619,1353.430,10.432,4.233,1
2026-01-29 13:06:57,475942,9742.031,6390.756,-1751.036,1316.624,54.074,-78.399,10.572,-1.270,1
2026-01-29 13:06:57,475982,8842.658,2989.647,-1434.584,37.448,-22.006,-1236.200,10.442,-8.703,1
2026-01-29 13:06:57,476022,6812.881,2925.351,-787.672,-100.346,-856.554,518.237,10.426,3.987,0
2026-01-29 13:06:57,476062,6174.208,7474.744,-298.231,682.997,-469.306,1768.947,10.607,7.001,1
2026-01-29 13:06:57,476102,7411.888,194.205,572.970,-134.006,1341.333,226.196,10.505,-4.987,1
2026-01-29 13:06:57,476142,6353.691,7745.901,-1444.314,1115.886,14.767,-1029.840,10.748,3.458,1
2026-01-29 13:06:57,476182,6753.983,-313.400,-720.602,-1075.324,158.137,1574.940,10.662,6.117,1
2026-01-29 13:06:57,476222,8395.690,-605.798,-2510.705,-444.936,1753.584,1247.645,10.616,-1.567,1
2026-01-29 13:06:58,476262,7858.445,-278.814,-1986.134,1001.422,253.138,548.021,10.595,0.820,1
2026-01-29 13:06:58,476302,7056.682,-566.091,772.115,-1306.483,2060.867,-316.228,10.504,-2.772,1
2026-01-29 13:06:58,476342,9272.068,5855.117,-2676.171,-667.501,310.501,-773.222,10.748,1.591,1
2026-01-29 13:06:58,476382,7970.482,-2212.774,-109.612,-180.260,813.552,782.085,10.634,0.970,1
2026-01-29 13:06:58,476422,9364.646,301.579,-1821.720,284.141,707.127,231.675,10.498,3.200,1
2026-01-29 13:06:58,476462,9567.122,2001.409,1070.240,-455.154,638.441,-535.240,10.519,1.978,1
2026-01-29 13:06:58,476502,8745.267,2839.895,-1234.682,313.678,-5.641,729.141,10.431,0.097,1
2026-01-29 13:06:58,476542,8782.681,2463.029,-1126.221,819.239,-89.585,-276.177,10.461,-0.517,1
2026-01-29 13:06:58,476582,9563.418,1323.453,-1294.067,12.496,-1187.760,201.821,10.473,-0.167,1
2026-01-29 13:06:58,476622,10043.597,3792.805,-463.041,743.578,-895.633,840.862,10.465,0.358,1
2026-01-29 13:06:58,476662,7824.170,9098.787,-853.846,-341.471,-994.652,776.501,10.710,0.311,1
2026-01-29 13:06:58,476702,8735.539,7201.133,45.624,-1527.961,-371.515,1169.238,10.930,0.927,1
2026-01-29 13:06:58,476742,8059.381,-2924.082,-460.460,-230.779,-755.224,-473.250,10.782,0.779,1
2026-01-29 13:06:58,476782,7581.705,-89.876,480.900,189.303,546.379,-239.888,10.651,-1.649,1
2026-01-29 13:06:58,476822,6501.531,372.157,-182.044,414.473,851.816,449.996,10.539,0.115,0
2026-01-29 13:06:58,476862,6904.017,4330.311,297.182,486.055,652.074,434.036,10.771,3.356,1
2026-01-29 13:06:58,476902,8673.712,451.657,1853.030,272.028,117.609,-617.133,10.760,3.021,1
2026-01-29 13:06:58,476942,9365.395,-1283.980,-1014.332,-1169.244,-872.402,978.101,10.563,-4.883,1
2026-01-29 13:06:58,476982,9379.395,940.680,-715.849,-702.009,562.393,267.574,10.585,3.044,1
2026-01-29 13:06:58,477022,8242.007,-3697.551,-2242.748,-431.962,1767.838,235.496,10.338,-6.033,1
2026-01-29 13:06:58,477062,9320.916,-714.381,786.791,405.805,-447.768,1026.627,10.138,-1.407,1
2026-01-29 13:06:58,477102,9107.573,-238.099,-1174.838,-780.734,-1648.103,991.537,10.019,-0.529,1
2026-01-29 13:06:58,477142,9564.578,-478.052,-659.627,-109.308,308.829,136.500,9.820,-4.198,1
2026-01-29 13:06:58,477182,7514.279,754.510,142.289,673.560,229.329,348.562,9.691,1.745,1
2026-01-29 13:06:58,477222,9653.505,-859.772,-555.889,-337.921,-4.583,518.340,9.470,-3.487,1
2026-01-29 13:06:59,477262,6666.332,-644.996,-433.570,-508.774,-708.976,939.735,9.275,8.215,1
2026-01-29 13:06:59,477302,6779.847,1252.710,-878.050,-1067.566,-560.346,796.228,9.138,2.906,1
2026-01-29 13:06:59,477342,7484.494,2657.541,-210.634,1057.984,1092.134,115.065,9.048,7.975,1
2026-01-29 13:06:59,477382,7843.230,2813.849,-1817.493,-1441.262,-1055.620,-1075.308,9.049,-7.654,1
2026-01-29 13:06:59,477422,6640.714,4038.963,-93.021,-379.303,733.836,1477.689,9.212,8.783,1
2026-01-29 13:06:59,477462,7635.075,3559.295,-623.873,839.438,182.636,834.202,9.287,-5.172,1
2026-01-29 13:06:59,477502,6873.634,2077.400,397.640,-276.816,-125.627,-33.941,9.328,-3.491,1
2026-01-29 13:06:59,477542,6561.139,-887.391,580.590,-206.056,650.483,895.433,9.241,3.059,1
2026-01-29 13:06:59,477582,7575.153,629.412,-491.815,-675.810,1023.441,-957.172,9.156,4.529,1
2026-01-29 13:06:59,477622,7287.628,-4369.486,91.582,640.646,-991.391,-924.898,8.913,-1.796,1
2026-01-29 13:06:59,477662,8454.510,2767.500,-527.260,969.666,-1056.855,242.416,9.038,-4.370,1
2026-01-29 13:06:59,477702,8410.436,-3020.457,-1724.691,-188.808,182.631,-26.927,8.954,-2.618,1
2026-01-29 13:06:59,477742,9011.889,3401.836,-1554.520,575.023,-333.793,110.435,9.018,-4.416,1
2026-01-29 13:06:59,477782,8807.146,2215.456,-616.012,-534.516,-455.070,601.109,9.000,3.630,0
2026-01-29 13:06:59,477822,8739.342,4255.077,832.790,211.876,206.325,887.128,9.040,-2.088,1
2026-01-29 13:06:59,477862,7727.650,4916.730,553.185,-154.314,-44.267,-167.792,9.143,1.377,1
2026-01-29 13:06:59,477902,8859.246,-1268.745,-1056.297,1383.876,1053.732,105.805,8.959,-0.493,1
2026-01-29 13:06:59,477942,6442.290,-827.080,-911.357,771.937,-810.497,378.440,8.830,-2.691,1
2026-01-29 13:06:59,477982,9258.119,623.738,-1218.589,726.057,-358.169,215.669,8.682,4.865,1
2026-01-29 13:06:59,478022,6033.365,3752.278,927.640,624.372,-162.104,-524.586,8.801,0.550,1
2026-01-29 13:06:59,478062,7877.307,5653.328,273.675,71.586,2353.028,129.596,8.966,0.016,1
2026-01-29 13:06:59,478102,6509.322,6329.852,1219.111,-556.276,234.437,668.714,9.150,-0.173,1
2026-01-29 13:06:59,478142,5861.807,1942.043,-1639.303,259.388,-19.630,368.018,9.101,0.932,1
2026-01-29 13:06:59,478182,5335.409,2906.137,-562.067,-1836.297,-114.049,948.928,9.082,0.334,0
2026-01-29 13:06:59,478222,6368.910,-2220.971,-413.128,947.794,-149.535,-439.132,8.973,0.005,1
2026-01-29 13:07:00,478262,5582.157,-151.642,-818.439,278.066,1156.327,-1121.740,8.899,-0.000,1
2026-01-29 13:07:00,478302,6968.732,-1710.079,-811.782,1608.501,592.691,444.174,8.715,-0.203,0
2026-01-29 13:07:00,478342,7706.448,-3017.940,-877.790,-1036.434,-658.784,202.305,8.569,-0.139,1
2026-01-29 13:07:00,478382,8091.883,5905.617,129.562,320.950,-135.444,885.811,8.772,-0.508,1
2026-01-29 13:07:00,478422,9655.873,-3160.117,850.883,312.852,594.063,1332.091,8.570,-1.244,1
2026-01-29 13:07:00,478462,9077.072,-2433.701,145.944,106.729,-437.481,-310.870,8.401,-1.806,1
2026-01-29 13:07:00,478502,8682.430,4896.348,899.018,1395.489,-8.736,650.526,8.555,2.629,1
2026-01-29 13:07:00,478542,8398.838,5805.236,-724.572,813.428,-428.472,-1470.170,8.745,-2.299,0
2026-01-29 13:07:00,478582,8550.639,1450.199,-1265.950,138.217,440.380,258.331,8.620,0.546,1
2026-01-29 13:07:00,478622,9858.479,5305.044,-1665.323,-753.323,290.302,443.470,8.856,1.138,1
2026-01-29 13:07:00,478662,9000.051,1868.879,-1790.490,-487.042,1086.573,-511.757,8.833,-5.739,1
2026-01-29 13:07:00,478702,8121.120,-485.931,329.802,-254.886,1902.368,-831.341,8.723,1.985,1
2026-01-29 13:07:00,478742,6495.276,-1439.829,-1076.861,-1378.553,832.670,72.463,8.563,-0.405,1
2026-01-29 13:07:00,478782,8969.983,6231.885,-92.154,663.503,829.652,-1603.087,8.744,-3.432,1
2026-01-29 13:07:00,478822,8125.870,-1794.133,-540.808,617.083,314.648,-750.755,8.558,-1.819,1
2026-01-29 13:07:00,478862,6373.751,-3322.201,-63.625,1738.197,1181.080,-855.030,8.313,-4.913,1
2026-01-29 13:07:00,478902,7746.883,-1818.046,-549.103,629.341,-412.111,108.491,8.197,7.820,1
2026-01-29 13:07:00,478942,7225.500,-2172.418,-1101.245,-251.266,399.178,305.624,8.060,1.279,1
2026-01-29 13:07:00,478982,7230.879,2429.645,-1793.417,-1241.688,-530.531,-1824.293,8.157,3.471,1
2026-01-29 13:07:00,479022,8416.860,-3807.840,-560.507,513.520,-900.984,-619.905,7.954,9.788,0
2026-01-29 13:07:00,479062,7758.652,513.171,-1125.491,-94.296,592.327,-2884.535,7.962,-7.170,1
2026-01-29 13:07:00,479102,7367.700,4723.457,-1374.649,446.018,-443.215,-315.419,8.198,-4.731,1
2026-01-29 13:07:00,479142,7082.769,3107.137,-1561.994,-1644.032,510.830,151.263,8.200,-9.898,0
2026-01-29 13:07:00,479182,9742.316,2654.812,-1817.052,82.973,239.300,-545.217,8.307,-2.830,1
2026-01-29 13:07:00,479222,7634.963,-3826.054,-966.397,459.413,-1619.064,-1116.954,8.080,1.499,1
2026-01-29 13:07:01,479262,7912.834,-1378.202,361.907,29.646,-342.095,107.366,7.887,-2.427,0
2026-01-29 13:07:01,479302,8316.993,4481.069,-1940.082,-276.406,-1123.513,-3268.185,7.921,-3.306,0
2026-01-29 13:07:01,479342,8896.480,-1771.170,-1189.852,-65.072,523.248,1997.704,7.767,7.096,1
2026-01-29 13:07:01,479382,9523.970,3832.999,723.846,747.031,1128.284,1037.971,7.866,-5.163,1
2026-01-29 13:07:01,479422,9516.557,4417.486,-876.339,500.937,-1873.718,-849.524,7.912,0.396,1
2026-01-29 13:07:01,479462,8357.381,-772.148,-407.853,1003.079,1059.359,-53.967,7.704,-5.381,0
2026-01-29 13:07:01,479502,7396.034,-3229.718,-1413.371,-500.235,260.367,512.119,7.493,-1.639,1
2026-01-29 13:07:01,479542,7360.682,4633.776,-920.297,-568.443,-1272.788,771.070,7.705,6.170,1
2026-01-29 13:07:01,479582,6691.851,-2346.284,512.722,-789.041,-625.040,826.627,7.493,2.551,1
2026-01-29 13:07:01,479622,8183.575,4978.653,-1661.387,1079.974,-20.832,-1184.711,7.720,-5.089,1
2026-01-29 13:07:01,479662,9034.129,-935.479,-563.859,2374.039,2.771,439.346,7.640,-4.656,1
2026-01-29 13:07:01,479702,8671.355,-63.151,-500.013,76.580,-671.222,883.721,7.564,3.982,1
2026-01-29 13:07:01,479742,6649.648,882.823,-307.718,641.292,1263.466,299.058,7.567,-1.004,1
2026-01-29 13:07:01,479782,9951.805,1088.508,-781.302,658.833,834.938,-257.020,7.557,2.148,1
2026-01-29 13:07:01,479822,8127.505,796.825,-595.448,491.110,938.024,-361.120,7.398,0.300,0
2026-01-29 13:07:01,479862,8368.531,766.095,-1421.181,302.899,-1113.565,497.485,7.348,0.946,1
2026-01-29 13:07:01,479902,6951.905,-2439.991,-1707.138,1205.938,-269.199,671.629,7.150,0.387,1
2026-01-29 13:07:01,479942,6526.307,1156.294,-506.068,-914.290,218.610,780.883,7.055,0.173,1
2026-01-29 13:07:01,479982,8857.228,1159.540,549.455,-456.333,580.676,1168.467,6.980,0.263,1
2026-01-29 13:07:01,480022,6960.344,-22.742,-282.860,647.963,-372.132,452.419,6.823,0.296,0
2026-01-29 13:07:01,480062,6953.393,1341.756,1384.195,292.841,560.915,-831.333,6.805,1.428,1
2026-01-29 13:07:01,480102,7768.739,4712.638,373.848,-378.527,465.707,876.383,6.995,-1.867,1
2026-01-29 13:07:01,480142,7092.564,531.579,-457.108,-321.360,-645.532,212.434,6.919,-1.778,1
2026-01-29 13:07:01,480182,7854.389,5664.431,579.833,1338.161,-1175.735,288.772,7.159,3.000,1
2026-01-29 13:07:01,480222,4791.719,7686.600,-1067.474,-539.828,1256.619,170.154,7.407,-2.353,1
2026-01-29 13:07:02,480262,7952.409,3128.939,-1898.436,-478.917,205.768,57.155,7.493,1.865,1
2026-01-29 13:07:02,480302,6274.038,-3152.836,-1187.233,-113.809,-722.715,127.300,7.280,-3.116,0
2026-01-29 13:07:02,480342,8482.350,1899.631,-668.479,-1342.046,-23.483,410.959,7.253,-0.014,1
2026-01-29 13:07:02,480382,7739.877,740.075,-1704.423,1155.884,516.037,-304.519,7.278,-6.999,1
2026-01-29 13:07:02,480422,7248.007,-3521.787,-20.913,-866.271,370.018,1124.467,7.036,-0.018,0
2026-01-29 13:07:02,480462,9549.192,-242.247,-2434.953,560.437,-782.558,31.215,7.003,-4.941,1
2026-01-29 13:07:02,480502,9330.380,5846.817,-117.351,281.584,-1091.395,877.253,7.230,3.240,1
2026-01-29 13:07:02,480542,7986.915,4354.197,-793.563,516.135,-928.921,375.848,7.352,3.511,1
2026-01-29 13:07:02,480582,8243.415,5967.248,-1025.719,104.168,-272.382,518.771,7.564,9.378,0
2026-01-29 13:07:02,480622,7383.303,4016.584,666.448,377.382,-109.827,-636.077,7.665,6.551,1
2026-01-29 13:07:02,480662,8844.833,4350.478,328.448,815.713,136.967,723.928,7.740,-3.758,1
2026-01-29 13:07:02,480702,8355.947,-3252.125,1130.504,-862.333,904.484,319.659,7.530,-7.850,1
2026-01-29 13:07:02,480742,7909.150,-431.512,-1719.635,1687.916,109.721,-519.994,7.348,-9.492,1
2026-01-29 13:07:02,480782,8096.962,-925.241,429.797,-1834.911,-1283.505,275.913,7.127,5.994,1
2026-01-29 13:07:02,480822,4933.906,5706.673,1543.481,-183.963,1457.210,-937.225,7.364,5.470,1
2026-01-29 13:07:02,480862,7736.069,-1131.209,-796.322,1362.486,-721.864,-18.203,7.255,-3.145,1
2026-01-29 13:07:02,480902,6673.696,1814.491,-1247.521,457.918,-519.508,-187.952,7.303,-3.762,0
2026-01-29 13:07:02,480942,8574.026,2513.735,-1759.949,98.883,88.474,-348.678,7.323,-8.773,1
2026-01-29 13:07:02,480982,5978.157,-1076.010,-2475.648,-177.647,-1106.849,-1342.549,7.164,-7.660,1
2026-01-29 13:07:02,481022,7586.337,1532.730,-2181.199,-1291.399,-351.035,-478.798,7.213,-6.183,1
2026-01-29 13:07:02,481062,7664.233,4531.134,-762.420,-175.130,-473.962,650.179,7.447,0.440,1
2026-01-29 13:07:02,481102,6994.630,-1272.676,-974.622,-1400.558,-875.428,356.037,7.393,4.623,1
2026-01-29 13:07:02,481142,10571.063,-2334.507,-849.774,272.602,-844.256,823.441,7.225,6.580,1
2026-01-29 13:07:02,481182,9419.434,3696.302,-702.044,438.276,764.471,1036.149,7.357,3.275,1
2026-01-29 13:07:02,481222,9135.857,3263.911,-122.633,-442.679,407.722,596.535,7.429,4.904,1
2026-01-29 13:07:03,481262,10861.318,503.369,-1388.667,1286.261,1061.201,120.213,7.290,2.515,1
2026-01-29 13:07:03,481302,8668.174,-2957.824,-587.950,-435.477,-161.440,-1400.467,7.041,-3.347,1
2026-01-29 13:07:03,481342,7212.304,531.132,1063.965,329.137,113.553,301.429,6.837,-1.579,0
2026-01-29 13:07:03,481382,8970.632,-614.718,-628.614,471.240,1273.181,-202.035,6.663,1.431,1
2026-01-29 13:07:03,481422,9083.096,390.100,-234.988,-181.171,-465.700,505.556,6.461,1.827,1
2026-01-29 13:07:03,481462,7016.887,-1616.368,195.262,-1145.131,-717.704,-887.984,6.280,1.041,1
2026-01-29 13:07:03,481502,7845.315,1261.423,-569.679,83.703,736.934,711.693,6.206,1.207,1
2026-01-29 13:07:03,481542,6251.243,5741.108,845.680,615.540,-251.017,998.003,6.415,0.563,1
2026-01-29 13:07:03,481582,5732.875,1339.630,-2901.666,-282.220,-879.632,-380.319,6.419,0.189,1
2026-01-29 13:07:03,481622,6806.415,2825.238,-1016.308,220.418,-1559.109,-407.385,6.584,-0.229,1
2026-01-29 13:07:03,481662,6962.724,-1569.081,640.503,-1200.486,-712.752,684.884,6.407,-0.428,1
2026-01-29 13:07:03,481702,6480.667,1781.618,-339.032,788.053,-66.505,-566.444,6.473,-0.723,0
2026-01-29 13:07:03,481742,7788.877,-1124.383,-2049.020,-400.807,-676.085,-2005.267,6.407,-2.629,1
2026-01-29 13:07:03,481782,7681.101,-3197.837,-670.872,-40.328,100.281,91.610,6.172,-1.910,1
2026-01-29 13:07:03,481822,7642.595,-2565.777,414.889,-521.361,-213.647,1881.103,5.936,-1.787,1
2026-01-29 13:07:03,481862,8355.446,-2391.361,-315.235,-248.839,-972.093,922.934,5.722,0.423,1
2026-01-29 13:07:03,481902,7256.993,7578.527,-1071.049,-908.746,409.214,451.228,5.953,-4.845,0
2026-01-29 13:07:03,481942,5385.992,1093.304,386.756,-539.158,347.951,-1322.241,5.894,-1.949,1
2026-01-29 13:07:03,481982,9442.684,-357.840,-1898.641,-99.035,459.135,-1457.548,5.801,-0.734,0
2026-01-29 13:07:03,482022,7100.211,2270.469,-703.896,-586.848,-804.446,654.861,5.888,-0.930,1
2026-01-29 13:07:03,482062,8363.838,7358.841,-2500.426,-90.050,683.152,-440.996,6.081,-1.436,1
2026-01-29 13:07:03,482102,7343.569,1171.913,-1408.090,715.598,-86.118,-169.963,6.062,-3.872,1
2026-01-29 13:07:03,482142,8318.383,1020.686,-307.915,-193.436,-1071.775,-515.835,5.978,-0.998,1
2026-01-29 13:07:03,482182,7663.422,964.868,-2710.734,-1117.421,247.170,616.568,5.973,-7.882,1
2026-01-29 13:07:03,482222,6297.760,5972.875,-1680.396,63.470,-447.068,646.889,6.214,-4.163,1
2026-01-29 13:07:04,482262,6103.585,-1207.847,-1323.041,-866.967,-114.764,-691.121,6.042,-1.231,1
2026-01-29 13:07:04,482302,8132.303,-328.563,94.639,-90.573,-670.779,-148.395,5.963,1.374,1
2026-01-29 13:07:04,482342,7896.325,-719.271,-462.317,-261.908,120.740,1282.594,5.873,-5.666,1
2026-01-29 13:07:04,482382,6664.022,3407.107,-209.659,-1063.079,435.462,-723.436,6.034,-7.251,1
2026-01-29 13:07:04,482422,8133.649,1584.686,-223.292,-954.578,279.408,503.471,6.106,-9.246,1
2026-01-29 13:07:04,482462,7418.311,5283.137,900.373,-292.790,-618.184,-1346.670,6.330,3.927,1
2026-01-29 13:07:04,482502,8295.678,-1913.887,-1263.909,1083.227,656.429,-494.831,6.112,0.339,1
2026-01-29 13:07:04,482542,7558.870,-7.152,-1584.733,-204.494,391.189,472.072,6.035,-1.449,1
2026-01-29 13:07:04,482582,8567.295,-3074.552,1380.761,-163.921,-61.915,-724.253,5.839,3.457,1
2026-01-29 13:07:04,482622,9983.225,2763.704,-495.037,-535.213,-1198.538,-514.441,5.829,1.259,1
2026-01-29 13:07:04,482662,9091.080,1853.393,-861.322,975.349,-132.969,-152.152,5.788,6.283,1
2026-01-29 13:07:04,482702,9066.863,-1756.893,-530.738,-507.142,1030.029,255.603,5.582,2.725,1
2026-01-29 13:07:04,482742,9360.122,5789.112,33.985,1494.289,-878.855,98.494,5.720,4.704,1
2026-01-29 13:07:04,482782,7172.370,-1467.586,33.677,869.093,728.174,789.115,5.490,-7.006,1
2026-01-29 13:07:04,482822,6471.555,2277.642,-1446.371,261.065,-127.907,-370.069,5.604,-5.375,1
2026-01-29 13:07:04,482862,5365.007,2757.241,480.551,-365.742,-318.134,200.018,5.638,2.411,1
2026-01-29 13:07:04,482902,8575.582,6309.050,289.173,418.569,-537.628,-618.852,5.866,2.746,1
2026-01-29 13:07:04,482942,8392.920,1008.754,-301.078,110.248,334.895,536.268,5.853,-1.888,1
2026-01-29 13:07:04,482982,5398.706,1252.770,-1147.812,543.027,-520.613,1210.725,5.841,-2.937,1
2026-01-29 13:07:04,483022,6043.652,-4867.698,-1684.806,432.771,-89.994,833.560,5.634,-0.102,1
2026-01-29 13:07:04,483062,8413.715,2768.539,-1814.702,637.551,-758.410,232.605,5.649,2.161,1
2026-01-29 13:07:04,483102,6811.515,3390.099,-2227.154,1202.632,137.601,535.862,5.813,-2.452,1
2026-01-29 13:07:04,483142,8865.291,3880.534,-824.189,-1209.269,1.520,-543.764,5.963,0.641,1
2026-01-29 13:07:04,483182,9493.168,4530.181,-538.046,-281.841,-1869.541,-548.737,6.095,1.098,1
2026-01-29 13:07:04,483222,8497.600,5732.262,-2145.542,-1210.434,-867.789,-479.646,6.221,0.042,1
2026-01-29 13:07:05,483262,9548.564,942.279,-1707.863,334.971,504.932,-455.522,6.165,-0.000,0
2026-01-29 13:07:05,483302,8010.625,401.536,-1126.110,449.982,-499.385,1229.923,6.020,-0.295,1
2026-01-29 13:07:05,483342,9471.479,4519.925,-371.191,1629.895,1205.970,249.999,6.074,0.172,1
2026-01-29 13:07:05,483382,8589.705,5192.331,-572.312,1399.697,896.935,204.546,6.122,0.902,1
2026-01-29 13:07:05,483422,6315.426,1562.033,-1385.107,1197.787,992.661,184.595,6.105,0.468,1
2026-01-29 13:07:05,483462,8973.542,-2123.799,-963.257,-1225.367,-959.713,67.645,5.871,-1.932,1
2026-01-29 13:07:05,483502,6623.193,4943.157,19.241,-262.705,280.858,-459.864,6.015,3.439,1
2026-01-29 13:07:05,483542,7264.768,2513.766,2048.182,-133.367,-49.802,-1133.643,5.948,4.528,1
2026-01-29 13:07:05,483582,6821.385,-3470.980,-1988.145,551.673,-616.912,140.310,5.720,-0.162,1
2026-01-29 13:07:05,483622,5903.120,2783.227,-569.546,115.461,-701.821,3320.338,5.820,47.819,1
2026-01-29 13:07:05,483662,6513.460,4911.369,-884.563,65.523,1249.988,478.377,6.066,-6.713,1
2026-01-29 13:07:05,483702,7080.971,-3516.648,-29.803,411.780,-529.119,641.354,5.826,0.832,1
2026-01-29 13:07:05,483742,7363.893,4664.810,-1627.937,-1085.477,377.788,-1225.451,6.002,-34.654,1
2026-01-29 13:07:05,483782,8685.495,-3376.818,292.547,-198.473,-1396.087,-241.957,5.819,1.325,1
2026-01-29 13:07:05,483822,8262.746,5215.366,-1042.694,80.844,-88.978,-310.318,5.970,0.574,1
2026-01-29 13:07:05,483862,8466.059,-4005.434,-1718.354,-66.045,1314.454,-419.530,5.754,-3.326,1
2026-01-29 13:07:05,483902,7121.580,1494.450,223.723,431.407,-593.766,824.362,5.712,0.050,1
2026-01-29 13:07:05,483942,9649.285,816.791,-1901.489,-684.340,-399.492,-814.463,5.694,-2.172,1
2026-01-29 13:07:05,483982,9519.492,3699.381,171.299,-65.368,407.134,-948.283,5.720,-2.692,1
2026-01-29 13:07:05,484022,7955.962,5030.087,348.348,847.001,414.846,575.885,5.750,6.737,1
2026-01-29 13:07:05,484062,10000.600,1322.555,1518.019,256.701,-86.729,247.727,5.575,-1.256,1
2026-01-29 13:07:05,484102,8355.961,2522.913,-1783.035,925.330,1141.133,-67.836,5.594,-1.695,1
2026-01-29 13:07:05,484142,8427.140,6243.145,286.318,-932.380,15.162,740.826,5.767,5.965,0
2026-01-29 13:07:05,484182,8390.230,7120.880,1266.255,479.103,-1206.134,-643.718,6.013,-1.532,1
2026-01-29 13:07:05,484222,6459.412,-612.225,-830.938,57.969,688.408,156.077,5.853,-9.570,1
2026-01-29 13:07:06,484262,6559.612,-49.371,-1786.499,-849.302,895.073,-146.321,5.832,-26.707,1
2026-01-29 13:07:06,484302,7432.543,-1366.526,-898.218,-843.509,1898.849,-18.341,5.668,-8.930,1
2026-01-29 13:07:06,484342,6085.606,-1508.247,-160.238,1070.972,954.537,819.166,5.600,-5.919,0
2026-01-29 13:07:06,484382,7850.618,-555.129,-1270.693,-559.864,295.596,51.681,5.449,-2.152,1
2026-01-29 13:07:06,484422,4705.758,-2191.016,-711.908,427.650,230.159,642.955,5.222,1.803,1
2026-01-29 13:07:06,484462,8130.327,4740.875,-1869.817,337.215,-1143.892,-1100.339,5.358,-4.602,1
2026-01-29 13:07:06,484502,11813.703,-3086.444,-467.821,-336.827,637.908,702.753,5.195,2.661,1
2026-01-29 13:07:06,484542,7162.657,2357.705,-361.709,1129.340,16.501,-192.284,5.263,4.756,0
2026-01-29 13:07:06,484582,6897.873,2761.613,213.296,-1145.932,254.006,589.535,5.333,1.253,1
2026-01-29 13:07:06,484622,10226.587,5096.549,-1475.063,1323.597,507.888,-248.012,5.443,-2.473,1
2026-01-29 13:07:06,484662,8938.207,4958.979,90.186,384.510,699.206,855.541,5.595,4.761,1
2026-01-29 13:07:06,484702,6893.877,6065.949,-759.051,23.206,410.306,-377.059,5.785,1.034,1
2026-01-29 13:07:06,484742,8386.557,3512.304,-1126.022,1808.778,-157.146,387.834,5.850,1.200,0
2026-01-29 13:07:06,484782,6827.808,6902.352,-838.782,225.318,-720.089,601.073,6.073,0.714,0
2026-01-29 13:07:06,484822,7765.827,2855.028,393.430,-158.861,-485.962,-675.965,6.075,1.607,1
2026-01-29 13:07:06,484862,8404.084,-1118.178,-819.486,95.574,131.491,186.439,5.924,-0.872,1
2026-01-29 13:07:06,484902,9536.172,2438.081,38.843,1467.708,-682.978,12.934,5.995,0.301,1
2026-01-29 13:07:06,484942,6275.375,1656.630,1079.508,255.232,-213.809,-391.645,5.929,0.176,1
2026-01-29 13:07:06,484982,7911.479,1849.003,449.362,128.104,-47.368,-123.284,5.950,-0.198,1
2026-01-29 13:07:06,485022,6445.171,2933.597,631.264,-57.661,-583.962,157.948,5.964,0.680,1
2026-01-29 13:07:06,485062,7241.954,-2038.707,-387.994,357.737,2117.394,592.079,5.728,-1.018,1
2026-01-29 13:07:06,485102,9058.057,4987.524,-813.809,-549.750,217.810,548.869,5.896,3.050,1
2026-01-29 13:07:06,485142,5719.372,4581.236,-621.835,776.397,-415.219,227.883,6.084,-2.045,1
2026-01-29 13:07:06,485182,7304.264,-3455.318,597.728,-578.242,-1059.073,-2546.712,5.839,-1.668,1
2026-01-29 13:07:06,485222,8471.069,2564.491,-520.847,-598.461,76.535,449.730,5.920,5.008,1
2026-01-29 13:07:07,485262,7453.858,-2712.513,9.941,366.878,265.211,-578.131,5.688,-4.769,1
2026-01-29 13:07:07,485302,7566.960,-983.033,-573.914,630.810,-1628.096,909.203,5.460,3.053,0
2026-01-29 13:07:07,485342,7757.685,6214.740,1657.711,825.155,1364.337,308.864,5.616,5.879,1
2026-01-29 13:07:07,485382,8376.181,2033.845,-836.459,-473.920,111.640,-369.433,5.566,4.276,1
2026-01-29 13:07:07,485422,8439.879,-182.742,-1642.196,-1567.573,-1489.908,-459.103,5.457,4.792,1
2026-01-29 13:07:07,485462,7749.013,3940.285,-229.506,-780.507,-1780.277,721.099,5.524,4.058,1
2026-01-29 13:07:07,485502,8291.877,6629.797,-682.184,-481.415,-561.173,-256.442,5.664,-4.150,1
2026-01-29 13:07:07,485542,7966.264,2121.640,-726.023,577.923,-405.610,-65.689,5.662,-3.112,1
2026-01-29 13:07:07,485582,6818.789,1454.850,307.726,307.802,-159.090,1162.281,5.567,6.128,1
2026-01-29 13:07:07,485622,7669.512,462.769,-994.536,-319.833,-831.325,-1427.388,5.488,0.707,1
2026-01-29 13:07:07,485662,6409.185,3855.366,86.678,-943.797,417.362,-932.575,5.583,-8.599,1
2026-01-29 13:07:07,485702,8223.319,452.976,286.439,-328.125,1094.246,122.722,5.561,9.325,1
2026-01-29 13:07:07,485742,6486.689,3743.862,56.660,1427.419,1167.573,-53.298,5.716,-3.191,1
2026-01-29 13:07:07,485782,7261.054,2939.329,-214.652,854.799,631.265,1382.366,5.924,-0.662,1
2026-01-29 13:07:07,485822,7869.939,2266.775,-2268.219,-37.966,-37.437,877.782,6.094,-0.977,1
2026-01-29 13:07:07,485862,7878.355,-3760.968,855.642,750.781,-153.656,-961.677,5.876,8.018,1
2026-01-29 13:07:07,485902,8268.104,3644.198,-169.528,-364.997,448.572,-344.611,5.985,-8.138,0
2026-01-29 13:07:07,485942,8242.823,-2724.869,-2220.280,154.581,-147.531,1689.323,5.780,5.992,1
2026-01-29 13:07:07,485982,8635.642,1064.530,-704.620,635.185,-435.862,102.195,5.738,2.037,1
2026-01-29 13:07:07,486022,10021.848,6083.580,-990.693,418.084,-43.803,-185.479,5.938,5.746,1
2026-01-29 13:07:07,486062,8767.764,26.783,-1249.239,-681.172,-958.735,-1187.191,5.701,-4.131,1
2026-01-29 13:07:07,486102,7487.717,-499.595,728.570,138.407,-552.153,-962.059,5.508,1.840,1
2026-01-29 13:07:07,486142,7769.282,3420.912,-582.899,1570.710,231.327,-1706.960,5.540,-1.820,1
2026-01-29 13:07:07,486182,7117.233,2646.755,-135.095,745.314,-265.779,-624.741,5.522,-1.006,1
2026-01-29 13:07:07,486222,6735.495,5655.097,-344.265,677.925,-898.868,-59.892,5.746,-5.206,1
2026-01-29 13:07:08,486262,8132.739,-641.711,-670.087,-619.904,984.822,-1239.375,5.512,-4.811,1
2026-01-29 13:07:08,486302,7327.928,-2618.633,701.521,-555.202,-419.028,77.329,5.288,1.074,0
2026-01-29 13:07:08,486342,7544.711,3961.832,-1433.442,-140.836,-241.351,478.774,5.426,-4.398,0
2026-01-29 13:07:08,486382,8001.861,3402.965,-167.404,1067.676,-1040.001,1123.504,5.475,2.703,1
2026-01-29 13:07:08,486422,8570.493,-33.267,-2912.113,401.967,-560.806,-298.199,5.380,-2.417,1
2026-01-29 13:07:08,486462,7927.728,4653.473,-816.971,279.860,-977.608,1080.516,5.578,2.261,0
2026-01-29 13:07:08,486502,7671.124,-166.425,-975.916,-60.654,132.369,286.254,5.518,1.691,1
2026-01-29 13:07:08,486542,8557.811,1567.435,-2218.638,288.758,-549.819,-117.407,5.577,0.332,1
2026-01-29 13:07:08,486582,7600.007,4030.314,-771.651,-1414.907,765.341,142.407,5.688,0.109,1
2026-01-29 13:07:08,486622,8950.030,4611.836,-1250.092,-619.187,1753.712,747.932,5.793,0.414,1
2026-01-29 13:07:08,486662,8710.900,1032.252,-165.244,257.468,-327.985,-747.342,5.727,0.096,1
2026-01-29 13:07:08,486702,7427.224,6455.495,-1124.172,611.635,755.800,-127.074,5.964,1.192,1
2026-01-29 13:07:08,486742,10877.159,4076.160,-836.753,574.504,-593.985,-469.901,5.913,0.045,1
2026-01-29 13:07:08,486782,8292.459,3193.243,-2481.520,-653.148,-83.225,-262.970,5.995,1.175,0
2026-01-29 13:07:08,486822,7900.149,-1924.215,-1379.162,304.339,-675.749,1402.038,5.761,-3.093,1
2026-01-29 13:07:08,486862,7645.928,2885.711,-386.282,-643.017,1315.330,-728.341,5.750,-1.033,1
2026-01-29 13:07:08,486902,7419.208,4690.629,-771.798,606.342,435.301,-354.740,5.835,-5.089,1
2026-01-29 13:07:08,486942,7546.690,-2912.644,-704.882,-318.335,-283.622,591.760,5.676,-3.627,1
2026-01-29 13:07:08,486982,7653.124,-2501.581,-857.472,-495.799,-932.872,517.808,5.482,4.073,1
2026-01-29 13:07:08,487022,8839.076,3058.499,314.473,175.941,200.265,271.800,5.553,1.394,1
2026-01-29 13:07:08,487062,7190.091,-1121.069,-939.743,-795.070,-397.101,305.422,5.521,6.751,1
2026-01-29 13:07:08,487102,7069.318,4687.669,-468.636,-343.137,-687.470,1531.981,5.715,6.650,1
2026-01-29 13:07:08,487142,7587.054,-2271.306,-1981.084,313.608,-441.811,213.194,5.547,-4.914,1
2026-01-29 13:07:08,487182,7577.179,551.917,-1149.424,-1292.350,362.933,-539.266,5.572,-2.730,1
2026-01-29 13:07:08,487222,8744.578,1905.916,-361.411,-449.842,-931.620,-1671.871,5.581,-4.299,1
2026-01-29 13:07:09,487262,10201.102,4346.856,-304.264,-577.489,-199.440,-362.587,5.717,-0.678,1
2026-01-29 13:07:09,487302,8939.336,1167.818,-2479.643,1153.996,992.289,-359.344,5.699,-5.121,1
2026-01-29 13:07:09,487342,9743.895,3901.553,-2005.465,-200.979,-803.515,427.929,5.837,-6.895,1
2026-01-29 13:07:09,487382,11077.496,-806.315,-771.038,-784.309,-245.164,655.498,5.679,-1.302,1
2026-01-29 13:07:09,487422,7527.004,2563.212,738.392,-628.423,-338.815,-301.141,5.616,1.411,1
2026-01-29 13:07:09,487462,8455.383,-316.460,-1951.526,349.394,-835.320,-931.184,5.397,0.265,1
2026-01-29 13:07:09,487502,8237.172,2198.139,-1823.022,-80.269,-780.222,-317.030,5.313,-7.069,1
2026-01-29 13:07:09,487542,7464.510,-376.349,-3442.069,-295.360,-202.472,-1484.684,5.163,-31.564,1
2026-01-29 13:07:09,487582,6442.389,5259.418,504.373,548.798,113.754,854.941,5.397,6.855,1
2026-01-29 13:07:09,487622,6590.016,-200.167,-959.896,-1522.770,-509.763,-99.412,5.367,-3.832,1
2026-01-29 13:07:09,487662,7941.437,820.345,-1671.901,-530.548,-274.663,-167.438,5.253,7.047,1
2026-01-29 13:07:09,487702,8050.950,-3286.500,404.641,-2080.244,1404.402,-447.726,5.061,3.158,1
2026-01-29 13:07:09,487742,8169.170,-4243.832,746.710,534.018,-1668.060,69.631,4.858,5.818,1
2026-01-29 13:07:09,487782,9551.585,-2159.177,-1575.888,583.183,176.953,1802.550,4.758,5.494,1
2026-01-29 13:07:09,487822,6540.439,3380.044,-1287.045,-357.229,-456.324,-19.729,4.804,0.474,1
2026-01-29 13:07:09,487862,9502.289,-2692.802,451.427,301.262,-364.186,-628.797,4.558,-3.738,1
2026-01-29 13:07:09,487902,7298.662,-2199.569,36.807,984.722,624.687,43.617,4.322,1.542,1
2026-01-29 13:07:09,487942,8805.468,6516.664,-597.077,-1288.449,-580.832,50.741,4.554,3.604,1
2026-01-29 13:07:09,487982,8824.747,4348.233,-1749.101,235.781,106.534,-1064.701,4.698,4.214,1
2026-01-29 13:07:09,488022,7456.206,5808.712,-1663.520,-20.451,611.173,-108.996,4.833,0.935,1
2026-01-29 13:07:09,488062,8255.409,5847.654,362.253,685.149,109.152,-975.008,4.983,0.491,0
2026-01-29 13:07:09,488102,8598.427,3619.238,536.349,-18.703,-539.046,414.052,4.987,2.346,1
2026-01-29 13:07:09,488142,7989.661,4908.771,-658.859,-508.852,-503.711,546.056,5.002,-1.480,1
2026-01-29 13:07:09,488182,6296.744,1280.588,-536.979,-481.802,-251.604,175.926,4.884,-0.321,1
2026-01-29 13:07:09,488222,7797.033,1601.856,-956.116,-498.881,29.105,44.476,4.758,-0.736,0
2026-01-29 13:07:10,488262,7659.990,1901.376,366.316,704.914,-769.977,39.388,4.748,0.000,1
2026-01-29 13:07:10,488302,8156.233,4131.480,-29.598,-1287.923,711.690,619.811,4.853,-0.683,1
2026-01-29 13:07:10,488342,7133.013,-429.412,-1916.465,-1777.914,-517.917,961.854,4.707,-0.034,1
2026-01-29 13:07:10,488382,8618.813,-1074.425,775.216,91.212,1142.745,-373.810,4.581,2.189,1
2026-01-29 13:07:10,488422,6218.160,2305.144,-1217.025,-361.090,959.211,1280.231,4.681,-2.129,1
2026-01-29 13:07:10,488462,6405.495,5715.939,134.420,-1009.946,-1220.665,300.465,4.919,-1.333,1
2026-01-29 13:07:10,488502,8116.719,1837.270,399.411,-2102.860,-1033.011,387.991,5.006,-3.148,1
2026-01-29 13:07:10,488542,7646.646,-1505.096,-1947.609,-713.995,42.960,602.378,4.871,1.120,1
2026-01-29 13:07:10,488582,8469.339,-2117.655,-1163.286,573.604,-314.902,-341.724,4.691,-11.480,1
2026-01-29 13:07:10,488622,9768.798,1084.499,745.929,-1283.457,-381.486,106.056,4.670,-3.024,1
2026-01-29 13:07:10,488662,10239.251,-474.234,-1345.410,-930.491,-57.341,-357.711,4.513,0.131,1
2026-01-29 13:07:10,488702,6797.082,1206.231,-1186.289,528.109,24.804,78.632,4.385,-5.491,1
2026-01-29 13:07:10,488742,8726.474,3243.055,-729.512,-114.410,743.508,455.589,4.412,3.321,1
2026-01-29 13:07:10,488782,7373.877,1727.072,652.560,769.491,1974.651,498.810,4.315,-1.825,1
2026-01-29 13:07:10,488822,9799.718,3337.270,257.956,-35.126,-42.040,-441.025,4.315,5.185,1
2026-01-29 13:07:10,488862,9215.755,909.690,-724.221,-844.988,-1050.565,1433.079,4.240,2.342,1
2026-01-29 13:07:10,488902,7578.600,1959.506,-975.924,-732.427,67.312,-1574.019,4.215,-1.908,1
2026-01-29 13:07:10,488942,9084.228,-2578.884,-1076.351,1218.765,-318.963,1080.126,3.970,7.704,1
2026-01-29 13:07:10,488982,6943.255,-2021.283,-1336.165,-88.724,-432.105,773.824,3.731,3.819,1
2026-01-29 13:07:10,489022,5863.281,4312.632,-218.914,1735.589,-438.208,568.300,3.850,-5.568,1
2026-01-29 13:07:10,489062,6754.269,2917.851,-462.524,395.459,1409.966,1231.206,3.891,-5.204,1
2026-01-29 13:07:10,489102,7735.668,-3337.272,-2248.818,-404.902,483.020,-567.940,3.731,2.082,1
2026-01-29 13:07:10,489142,7435.299,1788.259,-1427.227,386.670,458.254,-632.801,3.702,-3.458,1
2026-01-29 13:07:10,489182,7234.143,-3391.780,-2215.213,141.634,-398.840,-769.592,3.524,-2.780,0
2026-01-29 13:07:10,489222,7378.516,-4087.928,-1594.902,-594.405,-752.956,740.495,3.287,-6.420,1
2026-01-29 13:07:11,489262,6670.756,734.514,168.483,532.803,-475.194,-1214.080,3.242,-6.898,1
2026-01-29 13:07:11,489302,9179.949,-420.640,-175.491,-337.509,-682.146,-1256.588,3.137,-5.333,1
2026-01-29 13:07:11,489342,8439.068,4753.439,-950.481,-343.437,-586.349,-62.004,3.286,3.659,1
2026-01-29 13:07:11,489382,8291.019,6180.244,-1021.758,-727.084,-115.504,468.217,3.526,8.171,1
2026-01-29 13:07:11,489422,7516.886,8604.951,-104.284,-153.188,694.129,-440.063,3.764,5.340,1
2026-01-29 13:07:11,489462,10280.989,625.112,202.224,-920.267,-788.030,764.729,3.646,-4.281,1
2026-01-29 13:07:11,489502,9421.929,73.519,-1159.072,863.369,-450.180,1369.876,3.425,1.234,1
2026-01-29 13:07:11,489542,6834.799,6292.657,-750.136,-476.205,-622.510,-216.845,3.613,6.332,1
2026-01-29 13:07:11,489582,7034.284,4039.624,-377.820,165.528,-435.075,1173.643,3.743,0.921,1
2026-01-29 13:07:11,489622,8833.998,-597.945,-768.135,-681.418,19.513,-458.812,3.620,1.588,1
2026-01-29 13:07:11,489662,7111.460,361.516,-337.592,1191.511,-624.861,-1809.379,3.599,1.134,0
2026-01-29 13:07:11,489702,8693.677,2630.819,-335.168,546.966,-732.534,1177.902,3.610,-3.255,1
2026-01-29 13:07:11,489742,6866.536,1329.743,-521.769,158.555,-609.553,-637.373,3.565,-2.159,1
2026-01-29 13:07:11,489782,8686.478,4893.929,-182.719,-1726.427,137.273,1156.578,3.766,-0.028,1
2026-01-29 13:07:11,489822,6236.936,3787.917,-816.374,359.257,-1288.319,906.373,3.870,-0.220,1
2026-01-29 13:07:11,489862,7486.677,-620.865,116.107,-97.328,856.315,-472.607,3.892,-0.322,1
2026-01-29 13:07:11,489902,10016.017,756.914,-1890.160,-141.934,-679.924,-704.631,3.962,0.091,1
2026-01-29 13:07:11,489942,6840.458,1821.022,-728.836,-187.545,-207.502,340.562,4.031,0.134,1
2026-01-29 13:07:11,489982,9816.103,-1399.294,-2074.099,574.249,-207.796,-952.469,3.812,0.968,1
2026-01-29 13:07:11,490022,8717.231,6300.658,257.966,791.520,267.849,1248.191,4.026,1.674,1
2026-01-29 13:07:11,490062,9212.945,4792.420,-1360.878,956.112,195.539,1200.090,4.088,0.793,1
2026-01-29 13:07:11,490102,8885.301,4977.192,216.035,-89.090,-554.023,-980.178,4.078,0.186,1
2026-01-29 13:07:11,490142,8153.559,-929.507,-379.587,-30.777,-716.657,269.629,3.883,-3.033,1
2026-01-29 13:07:11,490182,8336.520,7883.609,-1037.846,552.936,-247.611,666.134,4.069,-3.889,1
2026-01-29 13:07:11,490222,7630.239,4109.813,747.022,911.891,-1068.303,130.903,4.189,-0.772,1
2026-01-29 13:07:12,490262,6373.319,-963.700,372.843,-162.121,-645.314,-133.275,4.037,0.144,1
2026-01-29 13:07:12,490302,7363.436,7853.668,-1501.095,-636.522,677.494,980.808,4.232,0.338,1
2026-01-29 13:07:12,490342,7811.682,3174.800,64.365,124.277,1421.846,139.081,4.354,2.272,1
2026-01-29 13:07:12,490382,6839.577,1825.169,641.432,-963.796,-69.156,-884.590,4.397,-3.524,1
2026-01-29 13:07:12,490422,9324.333,-2886.087,1035.462,766.068,-301.064,161.065,4.201,-1.475,1
2026-01-29 13:07:12,490462,6953.778,3365.411,991.738,1545.472,659.671,1341.649,4.293,5.389,1
2026-01-29 13:07:12,490502,7640.215,2491.252,-881.459,-139.643,-228.912,224.118,4.387,-3.219,1
2026-01-29 13:07:12,490542,7565.596,225.318,-945.607,-1075.461,-256.207,-2064.256,4.360,-7.045,0
2026-01-29 13:07:12,490582,7565.454,-1945.031,-476.818,-375.102,-1067.715,469.656,4.250,-3.941,0
2026-01-29 13:07:12,490622,7959.014,2155.797,-1239.572,462.927,922.943,-1152.419,4.364,-1.813,0
2026-01-29 13:07:12,490662,8239.611,-2404.311,-180.859,104.142,210.817,180.047,4.173,-5.406,1
2026-01-29 13:07:12,490702,8333.438,508.723,128.503,-595.033,409.222,-499.607,4.084,-0.469,1
2026-01-29 13:07:12,490742,6753.920,1661.661,-244.678,445.601,-443.926,445.933,4.016,9.569,0
2026-01-29 13:07:12,490782,9881.103,1409.178,781.553,264.593,-1347.610,-501.764,3.966,6.423,1
2026-01-29 13:07:12,490822,7675.129,3690.175,-885.520,-140.319,1468.941,-309.675,4.071,4.917,1
2026-01-29 13:07:12,490862,8389.100,573.452,-903.370,308.450,1171.201,-771.860,3.952,5.396,1
2026-01-29 13:07:12,490902,8470.259,5486.303,-211.898,357.163,992.493,222.237,4.061,-2.298,1
2026-01-29 13:07:12,490942,7592.502,-904.368,-690.425,-208.314,-1802.255,1093.175,3.859,-2.068,1
2026-01-29 13:07:12,490982,8130.903,-2099.652,-954.384,453.046,-793.851,256.245,3.659,4.230,1
2026-01-29 13:07:12,491022,7919.182,2201.374,-339.784,-239.357,-307.492,-630.239,3.801,-6.035,0
2026-01-29 13:07:12,491062,8040.871,-3045.844,-3290.049,-4.542,1036.968,-1584.721,3.583,-2.642,1
2026-01-29 13:07:12,491102,7123.626,206.041,-998.813,727.077,228.409,-580.114,3.567,-7.296,1
2026-01-29 13:07:12,491142,6384.874,3786.907,-1182.506,-194.147,154.949,17.455,3.778,-5.259,1
2026-01-29 13:07:12,491182,9263.768,418.753,-2583.917,-129.832,-496.986,328.368,3.710,0.368,0
2026-01-29 13:07:12,491222,7502.000,-1840.443,-2115.807,-841.130,-25.994,-188.258,3.631,-2.613,0
2026-01-29 13:07:13,491262,11214.101,1563.646,710.464,-33.857,648.384,-628.768,3.705,-4.546,1
2026-01-29 13:07:13,491302,9124.680,28.618,-178.011,-374.082,867.643,-480.529,3.590,-1.943,1
2026-01-29 13:07:13,491342,9035.403,868.280,-2247.960,-30.621,-940.357,-314.391,3.515,4.437,1
2026-01-29 13:07:13,491382,7609.148,3307.786,-252.173,1672.239,-537.246,549.077,3.547,-1.741,1
2026-01-29 13:07:13,491422,9436.701,378.303,-1504.707,465.120,948.616,-528.533,3.375,2.285,1
2026-01-29 13:07:13,491462,8329.777,5855.529,-1277.353,-596.039,402.538,372.070,3.495,0.788,1
2026-01-29 13:07:13,491502,6580.269,-860.216,-141.162,-658.639,-510.485,599.623,3.295,-0.941,0
2026-01-29 13:07:13,491542,8108.986,5748.589,-1728.962,573.736,-113.332,507.167,3.437,0.353,0
2026-01-29 13:07:13,491582,8529.474,6291.584,-1721.632,-94.384,-1047.077,685.265,3.665,0.182,1
2026-01-29 13:07:13,491622,7062.905,3214.305,220.369,532.887,3.059,919.159,3.765,-0.374,1
2026-01-29 13:07:13,491662,8082.506,6987.834,-871.899,60.876,698.777,-2300.018,4.008,-22.656,1
2026-01-29 13:07:13,491702,7860.656,-33.438,-1968.084,670.744,469.408,-463.482,3.907,1.995,1
2026-01-29 13:07:13,491742,6820.066,4458.951,-322.785,423.172,-435.633,-1090.566,4.109,-0.759,1
2026-01-29 13:07:13,491782,7770.609,-2310.240,606.043,694.192,604.676,-794.541,3.943,-0.827,1
2026-01-29 13:07:13,491822,8600.890,4110.437,-884.179,447.785,-99.684,1055.649,4.098,-0.181,1
2026-01-29 13:07:13,491862,8015.461,-4430.495,-899.271,-299.758,-691.468,1283.026,3.868,4.698,1
2026-01-29 13:07:13,491902,7443.340,1213.185,-187.510,-643.225,99.774,-486.405,3.852,-0.387,1
2026-01-29 13:07:13,491942,6788.800,-2355.789,-437.594,243.403,-795.345,-726.668,3.717,-3.212,1
2026-01-29 13:07:13,491982,9471.396,745.695,-246.920,-740.669,807.022,-747.659,3.709,-2.483,0
2026-01-29 13:07:13,492022,8276.930,3628.226,307.700,-361.478,-963.440,397.915,3.860,6.521,0
2026-01-29 13:07:13,492062,9167.810,-1852.416,-1419.679,-489.821,-194.779,387.847,3.697,1.594,1
2026-01-29 13:07:13,492102,7510.125,3204.068,-1604.296,18.181,803.530,1296.830,3.701,3.734,1
2026-01-29 13:07:13,492142,8810.853,5135.060,-2631.400,1398.430,-244.318,-1555.541,3.880,-5.843,1
2026-01-29 13:07:13,492182,9430.415,2423.848,-833.775,418.060,-100.045,-499.457,3.898,4.491,1
2026-01-29 13:07:13,492222,9212.317,665.555,-206.042,-552.701,-54.183,170.407,3.752,-4.154,1
2026-01-29 13:07:14,492262,7527.849,2894.329,-1552.322,-262.549,840.703,-256.152,3.831,-2.855,1
2026-01-29 13:07:14,492302,7176.573,707.267,-197.711,1497.174,108.596,861.721,3.709,4.594,1
2026-01-29 13:07:14,492342,6775.391,5953.071,-1565.776,906.020,-1041.049,342.941,3.924,-4.486,1
2026-01-29 13:07:14,492382,7584.795,-2633.674,-709.568,-1047.082,-701.140,218.143,3.684,-3.404,1
2026-01-29 13:07:14,492422,8202.702,1768.512,-2233.846,900.020,-1509.493,-446.479,3.728,-6.551,1
2026-01-29 13:07:14,492462,8226.950,5936.787,-742.442,-653.794,-490.255,357.925,3.931,-7.250,1
2026-01-29 13:07:14,492502,7051.501,-2670.380,-3011.716,113.652,-1218.375,-481.916,3.743,-3.727,1
2026-01-29 13:07:14,492542,7713.749,2042.651,-1282.840,723.052,576.317,-1657.037,3.852,3.251,0
2026-01-29 13:07:14,492582,7633.900,4541.989,-1378.029,198.434,430.669,1455.687,3.916,0.840,1
2026-01-29 13:07:14,492622,7246.404,5428.461,802.804,-824.118,994.140,12.029,4.041,3.898,1
2026-01-29 13:07:14,492662,8698.349,3479.297,-907.088,-85.369,587.289,111.392,4.111,-6.826,1
2026-01-29 13:07:14,492702,7347.952,-919.417,1285.626,-241.399,1082.071,-420.499,3.971,5.983,1
2026-01-29 13:07:14,492742,6303.541,6216.726,-256.811,-402.433,244.794,470.452,4.178,2.088,1
2026-01-29 13:07:14,492782,6855.890,-1224.215,131.505,-764.040,-31.653,748.860,3.933,6.204,1
2026-01-29 13:07:14,492822,7219.816,2466.865,-26.336,-954.924,-604.849,-1256.397,3.956,-6.204,1
2026-01-29 13:07:14,492862,8070.656,2115.866,-681.296,204.257,63.410,524.180,3.928,4.198,1
2026-01-29 13:07:14,492902,6617.853,3381.794,-720.945,-637.992,539.911,-668.333,4.004,-4.407,1
2026-01-29 13:07:14,492942,8044.470,6881.315,-915.415,1232.439,353.749,104.683,4.112,-0.113,1
2026-01-29 13:07:14,492982,5897.269,762.420,-347.688,-517.893,-1487.256,630.377,4.045,-1.070,1
2026-01-29 13:07:14,493022,7136.826,-1556.443,-1715.175,-1647.436,386.183,345.597,3.818,-0.714,1
2026-01-29 13:07:14,493062,7625.048,550.697,-98.133,75.547,159.649,-491.311,3.747,-0.697,1
2026-01-29 13:07:14,493102,7500.195,-339.963,100.455,-202.538,-1294.085,-1163.760,3.728,-1.351,1
2026-01-29 13:07:14,493142,8475.999,-489.292,1089.573,-1129.553,247.390,-611.458,3.671,-2.212,1
2026-01-29 13:07:14,493182,7305.927,2574.680,-2481.315,1714.607,-498.325,-594.833,3.835,-1.442,1
2026-01-29 13:07:14,493222,7452.032,-503.193,756.783,-1046.742,316.319,1092.620,3.693,0.568,1
2026-01-29 13:07:15,493262,9438.875,5563.097,-797.247,-316.548,393.433,-773.739,3.909,0.000,1
2026-01-29 13:07:15,493302,8789.464,1026.309,-1709.271,-1196.725,-411.227,-584.606,3.831,-0.153,1
2026-01-29 13:07:15,493342,8172.892,6012.069,-407.168,1825.699,-515.362,-402.898,4.074,-1.307,1
2026-01-29 13:07:15,493382,8763.373,1242.978,1028.697,-316.341,843.991,222.698,3.985,-1.433,1
2026-01-29 13:07:15,493422,9486.945,3932.631,-820.795,1374.531,-977.200,-624.604,4.097,-2.544,1
2026-01-29 13:07:15,493462,8949.233,-44.425,667.839,22.331,1517.093,-687.136,4.036,0.355,1
2026-01-29 13:07:15,493502,8155.456,192.130,1029.960,-471.562,-628.465,630.945,3.897,-1.167,1
2026-01-29 13:07:15,493542,7579.538,-1985.139,-502.414,132.547,-208.446,-356.817,3.651,-3.866,1
2026-01-29 13:07:15,493582,8995.825,-1306.193,542.241,9.945,-2328.170,-23.178,3.433,-5.420,1
2026-01-29 13:07:15,493622,8426.950,4577.984,-198.403,893.903,768.653,217.879,3.513,4.900,1
2026-01-29 13:07:15,493662,6582.176,-2565.206,-1351.882,-1712.038,-160.403,-132.288,3.333,3.969,1
2026-01-29 13:07:15,493702,9390.044,291.121,-1584.530,-1039.239,-120.702,344.897,3.183,-3.958,1
2026-01-29 13:07:15,493742,9460.091,1763.243,576.451,643.308,-102.693,842.176,3.228,5.177,1
2026-01-29 13:07:15,493782,7103.223,5053.755,-2048.697,-316.847,-626.927,1871.343,3.440,-2.790,1
2026-01-29 13:07:15,493822,6684.494,5350.733,-1134.654,1101.807,-1384.065,444.507,3.630,-1.298,1
2026-01-29 13:07:15,493862,6759.222,1896.891,-1491.469,1250.261,-441.284,-132.952,3.691,-0.576,1
2026-01-29 13:07:15,493902,8752.426,1467.295,-1571.934,280.981,-839.082,1557.393,3.752,1.892,1
