datetime_local,uptime_ms,acc_x,acc_y,acc_z,gyro_x,gyro_y,gyro_z,speed_mps,turn_rate_deg_s,gps_valid
2026-01-31 15:44:30,195174,-866.000,-1117.000,8543.000,-228.000,-232.000,60.000,0.000,0.000,0
2026-01-31 15:44:30,195223,-904.000,-894.000,8428.000,119.000,112.000,95.000,0.000,0.000,0
2026-01-31 15:44:30,195254,-971.000,-869.000,8371.000,183.000,185.000,114.000,0.000,0.000,0
2026-01-31 15:44:30,195294,-995.000,-798.000,8248.000,78.000,170.000,19.000,0.000,0.000,0
2026-01-31 15:44:30,195334,-906.000,-916.000,8222.000,-50.000,93.000,1.000,0.000,0.000,0
2026-01-31 15:44:30,195374,-764.000,-1002.000,8197.000,-70.000,45.000,-46.000,0.000,0.000,0
2026-01-31 15:44:30,195414,-870.000,-787.000,8162.000,-54.000,32.000,-74.000,0.000,0.000,0
2026-01-31 15:44:30,195454,-790.000,-1008.000,8190.000,-177.000,-60.000,-37.000,0.000,0.000,0
2026-01-31 15:44:30,195494,-814.000,-906.000,8244.000,-152.000,-120.000,-95.000,0.000,0.000,0
2026-01-31 15:44:30,195534,-792.000,-980.000,8297.000,-312.000,-192.000,-106.000,0.000,0.000,0
2026-01-31 15:44:30,195574,-876.000,-1087.000,8301.000,-317.000,-192.000,-19.000,0.000,0.000,0
2026-01-31 15:44:30,195614,-845.000,-1134.000,8292.000,-270.000,-172.000,40.000,0.000,0.000,0
2026-01-31 15:44:30,195654,-889.000,-971.000,8325.000,-68.000,-34.000,73.000,0.000,0.000,0
2026-01-31 15:44:30,195694,-869.000,-1122.000,8344.000,-116.000,-4.000,103.000,0.000,0.000,0
2026-01-31 15:44:31,195734,-788.000,-1026.000,8256.000,-15.000,34.000,49.000,0.000,0.000,0
2026-01-31 15:44:31,195774,-839.000,-1065.000,8270.000,-41.000,29.000,2.000,0.000,0.000,0
2026-01-31 15:44:31,195814,-776.000,-993.000,8298.000,-27.000,-13.000,21.000,0.000,0.000,0
2026-01-31 15:44:31,195854,-823.000,-1121.000,8236.000,-55.000,-35.000,25.000,0.000,0.000,0
2026-01-31 15:44:31,195894,-844.000,-1060.000,8307.000,-40.000,-17.000,-16.000,0.000,0.000,0
2026-01-31 15:44:31,195934,-792.000,-1106.000,8286.000,26.000,-48.000,32.000,0.000,0.000,0
2026-01-31 15:44:31,195974,-880.000,-1063.000,8306.000,20.000,9.000,10.000,0.000,0.000,0
2026-01-31 15:44:31,196014,-818.000,-1067.000,8327.000,57.000,22.000,-3.000,0.000,0.000,0
2026-01-31 15:44:31,196054,-838.000,-1070.000,8253.000,64.000,15.000,-5.000,0.000,0.000,0
2026-01-31 15:44:31,196094,-857.000,-1004.000,8266.000,1.000,44.000,-29.000,0.000,0.000,0
2026-01-31 15:44:31,196136,-762.000,-1107.000,8320.000,-90.000,8.000,-50.000,0.000,0.000,0
2026-01-31 15:44:31,196175,-751.000,-1011.000,8270.000,10.000,64.000,-50.000,0.000,0.000,0
2026-01-31 15:44:31,196214,-845.000,-988.000,8277.000,-5.000,72.000,-35.000,0.000,0.000,0
2026-01-31 15:44:31,196254,-942.000,-1075.000,8214.000,107.000,6.000,78.000,0.000,0.000,0
2026-01-31 15:44:31,196294,-921.000,-846.000,8193.000,11.000,50.000,7.000,0.000,0.000,0
2026-01-31 15:44:31,196334,-881.000,-1055.000,8251.000,-149.000,-5.000,-51.000,0.000,0.000,0
2026-01-31 15:44:31,196374,-782.000,-1140.000,8254.000,-126.000,-68.000,-32.000,0.000,0.000,0
2026-01-31 15:44:31,196414,-780.000,-1056.000,8336.000,-30.000,-14.000,90.000,0.000,0.000,0
2026-01-31 15:44:31,196454,-863.000,-1031.000,8221.000,-109.000,-47.000,6.000,0.000,0.000,0
2026-01-31 15:44:31,196494,-859.000,-944.000,8311.000,-58.000,-84.000,11.000,0.000,0.000,0
2026-01-31 15:44:31,196534,-1194.000,-1079.000,8346.000,-70.000,-96.000,114.000,0.000,0.000,0
2026-01-31 15:44:31,196574,-1392.000,-882.000,8181.000,-278.000,-172.000,-18.000,0.000,0.000,0
2026-01-31 15:44:31,196614,-1325.000,-970.000,7948.000,-796.000,-412.000,-91.000,0.000,0.000,0
2026-01-31 15:44:31,196654,-1201.000,-1026.000,7766.000,-1071.000,-482.000,-532.000,0.000,0.000,0
2026-01-31 15:44:31,196694,-898.000,-1320.000,8129.000,-1437.000,-410.000,-696.000,0.000,0.000,0
2026-01-31 15:44:32,196734,-372.000,-1427.000,8144.000,-1229.000,-371.000,-560.000,0.000,0.000,0
2026-01-31 15:44:32,196774,-629.000,-1443.000,8008.000,-1140.000,-513.000,-1013.000,0.000,0.000,0
2026-01-31 15:44:32,196814,-706.000,-1034.000,8313.000,1364.000,-24.000,-691.000,0.000,0.000,0
2026-01-31 15:44:32,196854,-816.000,-2095.000,7850.000,699.000,-234.000,221.000,0.000,0.000,0
2026-01-31 15:44:32,196894,-811.000,-1668.000,6946.000,2777.000,-39.000,864.000,0.000,0.000,0
2026-01-31 15:44:32,196937,-1897.000,-2742.000,6042.000,5908.000,-542.000,2897.000,0.000,0.000,0
2026-01-31 15:44:32,196979,-1470.000,-1483.000,5903.000,11491.000,-1070.000,4327.000,0.000,0.000,0
2026-01-31 15:44:32,197014,-214.000,1471.000,6394.000,13380.000,-439.000,5221.000,0.000,0.000,0
2026-01-31 15:44:32,197054,-796.000,3361.000,7029.000,9101.000,-106.000,5015.000,0.000,0.000,0
2026-01-31 15:44:32,197094,-2540.000,1704.000,5709.000,5110.000,-1673.000,5037.000,0.000,0.000,0
2026-01-31 15:44:32,197134,-2079.000,5429.000,8669.000,-42.000,-2578.000,3550.000,0.000,0.000,0
2026-01-31 15:44:32,197174,308.000,4054.000,7145.000,637.000,-3789.000,1899.000,0.000,0.000,0
2026-01-31 15:44:32,197214,1463.000,3586.000,8152.000,541.000,-4636.000,1226.000,0.000,0.000,0
2026-01-31 15:44:32,197254,1885.000,2859.000,8721.000,-824.000,-4271.000,791.000,0.000,0.000,0
2026-01-31 15:44:32,197294,2873.000,2014.000,6881.000,3176.000,-3472.000,107.000,0.000,0.000,0
2026-01-31 15:44:32,197334,3574.000,3459.000,8803.000,1508.000,-2563.000,490.000,0.000,0.000,0
2026-01-31 15:44:32,197374,3047.000,2401.000,7102.000,4407.000,-2640.000,270.000,0.000,0.000,0
2026-01-31 15:44:32,197414,4474.000,4060.000,9088.000,2939.000,-1671.000,127.000,0.000,0.000,0
2026-01-31 15:44:32,197454,3779.000,2849.000,8773.000,2101.000,-497.000,-179.000,0.000,0.000,0
2026-01-31 15:44:32,197494,2118.000,5233.000,7842.000,1956.000,392.000,-642.000,0.000,0.000,0
2026-01-31 15:44:32,197534,1336.000,5896.000,6788.000,757.000,23.000,-683.000,0.000,0.000,0
2026-01-31 15:44:32,197574,1381.000,5044.000,6834.000,380.000,-1323.000,-1425.000,0.000,0.000,0
2026-01-31 15:44:32,197614,24.000,9084.000,7916.000,-90.000,1669.000,-3842.000,0.000,0.000,0
2026-01-31 15:44:32,197654,1589.000,3908.000,6122.000,-2363.000,659.000,-2807.000,0.000,0.000,0
2026-01-31 15:44:32,197694,2382.000,3624.000,5264.000,-1278.000,346.000,-2632.000,0.000,0.000,0
2026-01-31 15:44:33,197734,1656.000,6272.000,6885.000,-1955.000,-82.000,-2085.000,0.000,0.000,0
2026-01-31 15:44:33,197774,2028.000,2597.000,6497.000,-2463.000,-336.000,-1209.000,0.000,0.000,0
2026-01-31 15:44:33,197814,466.000,6050.000,6263.000,-819.000,252.000,-1241.000,0.000,0.000,0
2026-01-31 15:44:33,197854,575.000,3144.000,6999.000,-3019.000,-727.000,-1161.000,0.000,0.000,0
2026-01-31 15:44:33,197894,-188.000,4454.000,6845.000,-1201.000,-30.000,-1124.000,0.000,0.000,0
2026-01-31 15:44:33,197934,55.000,4706.000,7502.000,-1379.000,-91.000,-1145.000,0.000,0.000,0
2026-01-31 15:44:33,197974,-614.000,4434.000,8280.000,-1440.000,-392.000,-1135.000,0.000,0.000,0
2026-01-31 15:44:33,198014,1138.000,3782.000,6415.000,-1872.000,-694.000,-922.000,0.000,0.000,0
2026-01-31 15:44:33,198054,1706.000,4489.000,7560.000,-2224.000,-884.000,-1257.000,0.000,0.000,0
2026-01-31 15:44:33,198094,1904.000,2199.000,8200.000,-2881.000,-1029.000,-941.000,0.000,0.000,0
2026-01-31 15:44:33,198134,2121.000,1987.000,6408.000,-2387.000,-682.000,-617.000,0.000,0.000,0
2026-01-31 15:44:33,198174,2962.000,3701.000,7596.000,-1499.000,-580.000,-666.000,0.000,0.000,0
2026-01-31 15:44:33,198214,2333.000,-43.000,7140.000,-2425.000,-651.000,-237.000,0.000,0.000,0
2026-01-31 15:44:33,198254,1816.000,2878.000,8071.000,-412.000,-465.000,245.000,0.000,0.000,0
2026-01-31 15:44:33,198294,2382.000,3099.000,8002.000,-1469.000,-785.000,162.000,0.000,0.000,0
2026-01-31 15:44:33,198334,1842.000,1029.000,7245.000,-2543.000,-1078.000,-348.000,0.000,0.000,0
2026-01-31 15:44:33,198374,2914.000,2909.000,7652.000,-2421.000,-1002.000,-927.000,0.000,0.000,0
2026-01-31 15:44:33,198414,1965.000,1920.000,6991.000,-1021.000,-416.000,-592.000,0.000,0.000,0
2026-01-31 15:44:33,198454,2224.000,3288.000,8346.000,-1014.000,-638.000,-449.000,0.000,0.000,0
2026-01-31 15:44:33,198494,1462.000,1297.000,7373.000,-1773.000,-672.000,-166.000,0.000,0.000,0
2026-01-31 15:44:33,198534,2596.000,2369.000,7833.000,-1399.000,-875.000,-774.000,0.000,0.000,0
2026-01-31 15:44:33,198574,999.000,-101.000,7843.000,247.000,-1158.000,-716.000,0.000,0.000,0
2026-01-31 15:44:33,198614,1948.000,2928.000,8306.000,2728.000,-994.000,-1585.000,0.000,0.000,0
2026-01-31 15:44:33,198654,1254.000,3734.000,7237.000,-827.000,-968.000,-1892.000,0.000,0.000,0
2026-01-31 15:44:33,198694,2306.000,3406.000,7225.000,-2343.000,-1322.000,-1484.000,0.000,0.000,0
2026-01-31 15:44:34,198734,1872.000,3143.000,7982.000,-2119.000,-618.000,-1402.000,0.000,0.000,0
2026-01-31 15:44:34,198774,2170.000,2291.000,7527.000,-836.000,419.000,-1971.000,0.000,0.000,0
2026-01-31 15:44:34,198814,3461.000,2332.000,7849.000,-954.000,332.000,-1930.000,0.000,0.000,0
2026-01-31 15:44:34,198854,2488.000,2526.000,7940.000,453.000,295.000,-1932.000,0.000,0.000,0
2026-01-31 15:44:34,198897,3109.000,2006.000,8119.000,-490.000,-516.000,-2219.000,0.000,0.000,0
2026-01-31 15:44:34,198936,2188.000,1207.000,8292.000,-498.000,-947.000,-2077.000,0.000,0.000,0
2026-01-31 15:44:34,198974,3357.000,3228.000,8906.000,-113.000,-1093.000,-2492.000,0.000,0.000,0
2026-01-31 15:44:34,199014,2805.000,727.000,7337.000,-900.000,-1626.000,-1966.000,0.000,0.000,0
2026-01-31 15:44:34,199054,3276.000,3514.000,7637.000,-437.000,-949.000,-3237.000,0.000,0.000,0
2026-01-31 15:44:34,199094,3730.000,2049.000,5531.000,-3609.000,-1015.000,-3231.000,0.000,0.000,0
2026-01-31 15:44:34,199134,3487.000,2621.000,8088.000,-2510.000,89.000,-4578.000,0.000,0.000,0
2026-01-31 15:44:34,199177,1149.000,3945.000,8549.000,-1229.000,111.000,-3581.000,0.000,0.000,0
2026-01-31 15:44:34,199214,619.000,642.000,8905.000,-3489.000,-666.000,-2360.000,0.000,0.000,0
2026-01-31 15:44:34,199254,3851.000,2086.000,7236.000,-967.000,-464.000,-1646.000,0.000,0.000,0
2026-01-31 15:44:34,199294,3431.000,4029.000,7420.000,517.000,670.000,-3059.000,0.000,0.000,0
2026-01-31 15:44:34,199334,1737.000,2648.000,7260.000,14.000,870.000,-3456.000,0.000,0.000,0
2026-01-31 15:44:34,199374,600.000,4858.000,7639.000,190.000,1212.000,-3729.000,0.000,0.000,0
2026-01-31 15:44:34,199414,2495.000,3817.000,7990.000,-1539.000,455.000,-3384.000,0.000,0.000,0
2026-01-31 15:44:34,199454,1220.000,3152.000,6481.000,1319.000,1142.000,-3678.000,0.000,0.000,0
2026-01-31 15:44:34,199494,1223.000,4148.000,6681.000,2115.000,310.000,-3593.000,0.000,0.000,0
2026-01-31 15:44:34,199534,1535.000,3612.000,7611.000,2114.000,75.000,-3570.000,0.000,0.000,0
2026-01-31 15:44:34,199574,790.000,3854.000,6697.000,2356.000,-268.000,-3310.000,0.000,0.000,0
2026-01-31 15:44:34,199614,1686.000,5482.000,6903.000,1585.000,-1189.000,-3235.000,0.000,0.000,0
2026-01-31 15:44:34,199654,1641.000,3989.000,7870.000,565.000,-1232.000,-3085.000,0.000,0.000,0
2026-01-31 15:44:34,199694,1065.000,4900.000,6185.000,788.000,-1544.000,-3075.000,0.000,0.000,0
2026-01-31 15:44:35,199734,1723.000,6244.000,7184.000,-562.000,-2058.000,-2705.000,0.000,0.000,0
2026-01-31 15:44:35,199774,2241.000,3615.000,7519.000,-2287.000,-1769.000,-2512.000,0.000,0.000,0
2026-01-31 15:44:35,199814,1815.000,3474.000,6267.000,-444.000,-1089.000,-2397.000,0.000,0.000,0
2026-01-31 15:44:35,199854,2989.000,4953.000,7082.000,-1151.000,-1251.000,-2472.000,0.000,0.000,0
2026-01-31 15:44:35,199894,1908.000,3960.000,7432.000,-1403.000,-1146.000,-2129.000,0.000,0.000,0
2026-01-31 15:44:35,199934,2058.000,3757.000,5534.000,-351.000,-921.000,-1788.000,0.000,0.000,0
2026-01-31 15:44:35,199974,1568.000,4097.000,8117.000,-763.000,-1140.000,-1629.000,0.000,0.000,0
2026-01-31 15:44:35,200014,1933.000,5147.000,6305.000,838.000,-864.000,-1441.000,0.000,0.000,0
2026-01-31 15:44:35,200054,2131.000,3446.000,7890.000,-899.000,-1083.000,-1447.000,0.000,0.000,0
2026-01-31 15:44:35,200094,1956.000,3166.000,6151.000,2648.000,-554.000,-1948.000,0.000,0.000,0
2026-01-31 15:44:35,200134,878.000,6130.000,8128.000,165.000,-229.000,-1440.000,0.000,0.000,0
2026-01-31 15:44:35,200174,2893.000,2445.000,6584.000,-18.000,-137.000,-904.000,0.000,0.000,0
2026-01-31 15:44:35,200214,864.000,5343.000,7687.000,2768.000,15.000,-966.000,0.000,0.000,0
2026-01-31 15:44:35,200254,2477.000,5192.000,7066.000,1269.000,-1273.000,-1002.000,0.000,0.000,0
2026-01-31 15:44:35,200294,2604.000,4632.000,6103.000,-1680.000,-2539.000,-1395.000,0.000,0.000,0
2026-01-31 15:44:35,200334,1433.000,5001.000,6530.000,-1960.000,-2734.000,-1379.000,0.000,0.000,0
2026-01-31 15:44:35,200374,3130.000,4546.000,6343.000,-2248.000,-2526.000,-1065.000,0.000,0.000,0
2026-01-31 15:44:35,200414,2741.000,4194.000,6089.000,190.000,-1713.000,-997.000,0.000,0.000,0
2026-01-31 15:44:35,200454,2641.000,5084.000,7061.000,-1385.000,-1342.000,-1006.000,0.000,0.000,0
2026-01-31 15:44:35,200494,3115.000,3083.000,5359.000,-252.000,-894.000,-243.000,0.000,0.000,0
2026-01-31 15:44:35,200534,1115.000,5234.000,6783.000,-443.000,-807.000,-368.000,0.000,0.000,0
2026-01-31 15:44:35,200574,3372.000,3141.000,6918.000,-2254.000,-1335.000,-661.000,0.000,0.000,0
2026-01-31 15:44:35,200614,3423.000,3503.000,6315.000,-26.000,-742.000,-853.000,0.000,0.000,0
2026-01-31 15:44:35,200654,2527.000,3248.000,6261.000,-79.000,-656.000,-1919.000,0.000,0.000,0
2026-01-31 15:44:35,200694,2675.000,5050.000,6930.000,-262.000,-838.000,-1779.000,0.000,0.000,0
2026-01-31 15:44:36,200734,1743.000,3094.000,6282.000,-207.000,-739.000,-1733.000,0.000,0.000,0
2026-01-31 15:44:36,200774,3038.000,5330.000,6906.000,-210.000,-923.000,-2516.000,0.000,0.000,0
2026-01-31 15:44:36,200814,1075.000,5305.000,6919.000,-1496.000,-680.000,-2321.000,0.000,0.000,0
2026-01-31 15:44:36,200854,2409.000,4573.000,7114.000,-2777.000,-1025.000,-2421.000,0.000,0.000,0
2026-01-31 15:44:36,200897,1941.000,5315.000,6555.000,-161.000,-440.000,-2093.000,0.000,0.000,0
2026-01-31 15:44:36,200934,2677.000,5405.000,6474.000,102.000,-403.000,-1973.000,0.000,0.000,0
2026-01-31 15:44:36,200974,3198.000,4361.000,6077.000,762.000,-8.000,-1720.000,0.000,0.000,0
2026-01-31 15:44:36,201014,1893.000,3902.000,5705.000,1845.000,409.000,-2051.000,0.000,0.000,0
2026-01-31 15:44:36,201054,3010.000,4297.000,6912.000,755.000,-140.000,-1943.000,0.000,0.000,0
2026-01-31 15:44:36,201094,854.000,6141.000,7856.000,1353.000,-465.000,-1781.000,0.000,0.000,0
2026-01-31 15:44:36,201134,1970.000,3950.000,6529.000,-1330.000,-1432.000,-2233.000,0.000,0.000,0
2026-01-31 15:44:36,201177,3560.000,3874.000,6134.000,-873.000,-1114.000,-2014.000,0.000,0.000,0
2026-01-31 15:44:36,201214,3004.000,3232.000,6432.000,323.000,-832.000,-1658.000,0.000,0.000,0
2026-01-31 15:44:36,201254,1622.000,5225.000,6352.000,2286.000,-796.000,-1608.000,0.000,0.000,0
2026-01-31 15:44:36,201294,2637.000,5871.000,6289.000,-420.000,-1914.000,-1661.000,0.000,0.000,0
2026-01-31 15:44:36,201334,2392.000,3773.000,5598.000,-926.000,-1680.000,-1455.000,0.000,0.000,0
2026-01-31 15:44:36,201374,2224.000,3610.000,5825.000,1615.000,-1007.000,-1132.000,0.000,0.000,0
2026-01-31 15:44:36,201414,4185.000,4919.000,5368.000,3025.000,-776.000,-906.000,0.000,0.000,0
2026-01-31 15:44:36,201454,798.000,5125.000,5631.000,2086.000,-826.000,-903.000,0.000,0.000,0
2026-01-31 15:44:36,201494,3768.000,5032.000,5380.000,258.000,-2048.000,-1113.000,0.000,0.000,0
2026-01-31 15:44:36,201534,3012.000,5780.000,5788.000,1037.000,-1134.000,-902.000,0.000,0.000,0
2026-01-31 15:44:36,201574,2820.000,2986.000,6169.000,-71.000,-1005.000,-398.000,0.000,0.000,0
2026-01-31 15:44:36,201614,3029.000,3738.000,6309.000,774.000,-177.000,-673.000,0.000,0.000,0
2026-01-31 15:44:36,201654,5852.000,3477.000,7568.000,1535.000,-20.000,-796.000,0.000,0.000,0
2026-01-31 15:44:36,201694,827.000,6217.000,6356.000,3199.000,562.000,-536.000,0.000,0.000,0
2026-01-31 15:44:37,201734,4245.000,6003.000,6731.000,-496.000,6.000,-567.000,0.000,0.000,0
2026-01-31 15:44:37,201774,2802.000,2984.000,6769.000,1877.000,879.000,-14.000,0.000,0.000,0
2026-01-31 15:44:37,201814,2479.000,5299.000,6770.000,2426.000,1842.000,600.000,0.000,0.000,0
2026-01-31 15:44:37,201854,2588.000,4631.000,6372.000,3990.000,2313.000,1147.000,0.000,0.000,0
2026-01-31 15:44:37,201894,-19.000,5190.000,7110.000,2016.000,2021.000,1837.000,0.000,0.000,0
2026-01-31 15:44:37,201934,2487.000,5716.000,7784.000,220.000,1777.000,1611.000,0.000,0.000,0
2026-01-31 15:44:37,201974,2437.000,6180.000,5903.000,740.000,1937.000,1702.000,0.000,0.000,0
2026-01-31 15:44:37,202014,2388.000,5609.000,5731.000,279.000,1805.000,1897.000,0.000,0.000,0
2026-01-31 15:44:37,202054,1332.000,6621.000,6354.000,1088.000,2158.000,2190.000,0.000,0.000,0
2026-01-31 15:44:37,202094,725.000,5885.000,7476.000,421.000,2554.000,2255.000,0.000,0.000,0
2026-01-31 15:44:37,202134,995.000,6167.000,5638.000,-548.000,2718.000,1873.000,0.000,0.000,0
2026-01-31 15:44:37,202174,799.000,7754.000,5143.000,-800.000,2099.000,1494.000,0.000,0.000,0
2026-01-31 15:44:37,202214,893.000,6964.000,5616.000,-2544.000,765.000,820.000,0.000,0.000,0
2026-01-31 15:44:37,202254,1059.000,5752.000,6265.000,-3457.000,327.000,860.000,0.000,0.000,0
2026-01-31 15:44:37,202294,1489.000,5631.000,5505.000,-2943.000,653.000,685.000,0.000,0.000,0
2026-01-31 15:44:37,202334,1711.000,6390.000,5154.000,-2254.000,608.000,165.000,0.000,0.000,0
2026-01-31 15:44:37,202374,1668.000,5981.000,5292.000,-2282.000,45.000,238.000,0.000,0.000,0
2026-01-31 15:44:37,202414,3187.000,5832.000,5440.000,-2671.000,-174.000,7.000,0.000,0.000,0
2026-01-31 15:44:37,202454,4072.000,4182.000,4963.000,-2062.000,-199.000,-517.000,0.000,0.000,0
2026-01-31 15:44:37,202494,971.000,4607.000,6846.000,-838.000,196.000,-1172.000,0.000,0.000,0
2026-01-31 15:44:37,202534,2168.000,6256.000,6372.000,-2599.000,201.000,-1387.000,0.000,0.000,0
2026-01-31 15:44:37,202574,-878.000,3608.000,3522.000,-2008.000,-4.000,-1386.000,0.000,0.000,0
2026-01-31 15:44:37,202614,-8487.000,-67.000,-239.000,-2745.000,-3976.000,2312.000,0.000,0.000,0
2026-01-31 15:44:37,202654,21170.000,32650.000,8898.000,-9829.000,2159.000,-4251.000,0.000,0.000,0
2026-01-31 15:44:37,202694,-4303.000,-11974.000,8618.000,-4025.000,6386.000,-3590.000,0.000,0.000,0
2026-01-31 15:44:38,202734,-2621.000,16880.000,11428.000,3824.000,3341.000,-1191.000,0.000,0.000,0
2026-01-31 15:44:38,202774,2098.000,-2554.000,4544.000,-2056.000,674.000,-2208.000,0.000,0.000,0
2026-01-31 15:44:38,202814,-4640.000,11099.000,5872.000,1432.000,800.000,-1328.000,0.000,0.000,0
2026-01-31 15:44:38,202854,5485.000,3248.000,7276.000,-7234.000,-3387.000,-1300.000,0.000,0.000,0
2026-01-31 15:44:38,202897,5418.000,3201.000,6159.000,186.000,196.000,-2368.000,0.000,0.000,0
2026-01-31 15:44:38,202936,3947.000,794.000,3580.000,-162.000,310.000,-1733.000,0.000,0.000,0
2026-01-31 15:44:38,202978,-16170.000,4202.000,15661.000,4883.000,2728.000,-945.000,0.000,0.000,0
2026-01-31 15:44:38,203014,-3492.000,19553.000,10399.000,6797.000,4378.000,-2184.000,0.000,0.000,0
2026-01-31 15:44:38,203054,5002.000,-12117.000,12196.000,-11776.000,-5418.000,2259.000,0.000,0.000,0
2026-01-31 15:44:38,203094,3787.000,7306.000,7134.000,7095.000,3375.000,-2019.000,0.000,0.000,0
2026-01-31 15:44:38,203134,-5088.000,6966.000,10399.000,1205.000,-1127.000,-971.000,0.000,0.000,0
2026-01-31 15:44:38,203177,-740.000,1216.000,6505.000,-2038.000,-1163.000,375.000,0.000,0.000,0
2026-01-31 15:44:38,203214,3584.000,4085.000,7514.000,1045.000,-1499.000,-1002.000,0.000,0.000,0
2026-01-31 15:44:38,203254,-6049.000,5099.000,9905.000,1146.000,400.000,-789.000,0.000,0.000,0
2026-01-31 15:44:38,203294,9978.000,4238.000,759.000,-1109.000,-2314.000,-726.000,0.000,0.000,0
2026-01-31 15:44:38,203334,134.000,6809.000,6424.000,3282.000,296.000,-1544.000,0.000,0.000,0
2026-01-31 15:44:38,203374,-1979.000,1541.000,7286.000,-70.000,-1289.000,814.000,0.000,0.000,0
2026-01-31 15:44:38,203414,2955.000,9455.000,9660.000,277.000,-1216.000,-685.000,0.000,0.000,0
2026-01-31 15:44:38,203454,3709.000,2151.000,8139.000,-3403.000,-2775.000,-1429.000,0.000,0.000,0
2026-01-31 15:44:38,203494,1918.000,3372.000,4237.000,-1181.000,-1450.000,-1929.000,0.000,0.000,0
2026-01-31 15:44:38,203534,-3497.000,8497.000,10033.000,452.000,-648.000,-394.000,0.000,0.000,0
2026-01-31 15:44:38,203574,1178.000,913.000,1884.000,-4752.000,-2170.000,749.000,0.000,0.000,0
2026-01-31 15:44:38,203614,4252.000,9040.000,11231.000,-890.000,-912.000,-250.000,0.000,0.000,0
2026-01-31 15:44:38,203654,3520.000,-998.000,5307.000,-3359.000,-1904.000,-672.000,0.000,0.000,0
2026-01-31 15:44:38,203694,-802.000,5681.000,6546.000,188.000,-196.000,-1520.000,0.000,0.000,0
2026-01-31 15:44:39,203734,6071.000,6305.000,7552.000,-3656.000,-2648.000,-1279.000,0.000,0.000,0
2026-01-31 15:44:39,203774,1730.000,3887.000,6603.000,-168.000,-499.000,-1496.000,0.000,0.000,0
2026-01-31 15:44:39,203814,2348.000,1866.000,5558.000,-2045.000,-1840.000,-1513.000,0.000,0.000,0
2026-01-31 15:44:39,203854,1681.000,5020.000,8033.000,1028.000,-791.000,-1717.000,0.000,0.000,0
2026-01-31 15:44:39,203894,3328.000,2411.000,6201.000,-237.000,-1526.000,-1568.000,0.000,0.000,0
2026-01-31 15:44:39,203934,761.000,4868.000,8319.000,954.000,-246.000,-1816.000,0.000,0.000,0
2026-01-31 15:44:39,203974,2712.000,3040.000,7062.000,11.000,-871.000,-1677.000,0.000,0.000,0
2026-01-31 15:44:39,204014,4443.000,3630.000,6521.000,637.000,-640.000,-2039.000,0.000,0.000,0
2026-01-31 15:44:39,204054,1428.000,4726.000,7163.000,875.000,-197.000,-2347.000,0.000,0.000,0
2026-01-31 15:44:39,204094,2074.000,4853.000,6922.000,-121.000,-283.000,-2669.000,0.000,0.000,0
2026-01-31 15:44:39,204134,3494.000,1391.000,5781.000,35.000,-453.000,-2238.000,0.000,0.000,0
2026-01-31 15:44:39,204174,6694.000,2718.000,2571.000,3371.000,642.000,-3053.000,0.000,0.000,0
2026-01-31 15:44:39,204214,-864.000,5232.000,10260.000,4530.000,1741.000,-1770.000,0.000,0.000,0
2026-01-31 15:44:39,204254,2950.000,4599.000,4954.000,2116.000,687.000,-1389.000,0.000,0.000,0
2026-01-31 15:44:39,204294,3609.000,3819.000,7552.000,1999.000,5.000,-934.000,0.000,0.000,0
2026-01-31 15:44:39,204334,2527.000,4938.000,6395.000,1650.000,152.000,-1370.000,0.000,0.000,0
2026-01-31 15:44:39,204374,572.000,4008.000,7339.000,1197.000,233.000,-1235.000,0.000,0.000,0
2026-01-31 15:44:39,204414,1571.000,5162.000,6238.000,1032.000,91.000,-842.000,0.000,0.000,0
2026-01-31 15:44:39,204454,917.000,5117.000,6399.000,1414.000,341.000,-705.000,0.000,0.000,0
2026-01-31 15:44:39,204494,4270.000,6267.000,5471.000,1474.000,-210.000,-546.000,0.000,0.000,0
2026-01-31 15:44:39,204534,480.000,5636.000,7329.000,2386.000,428.000,87.000,0.000,0.000,0
2026-01-31 15:44:39,204574,870.000,7278.000,5440.000,789.000,-489.000,312.000,0.000,0.000,0
2026-01-31 15:44:39,204614,854.000,4482.000,6733.000,-624.000,-704.000,140.000,0.000,0.000,0
2026-01-31 15:44:39,204654,1403.000,6025.000,6289.000,576.000,-604.000,-70.000,0.000,0.000,0
2026-01-31 15:44:39,204694,867.000,5480.000,6261.000,-380.000,-427.000,220.000,0.000,0.000,0
2026-01-31 15:44:40,204734,1425.000,4610.000,6282.000,-842.000,-378.000,698.000,0.000,0.000,0
2026-01-31 15:44:40,204774,1244.000,5228.000,6478.000,-162.000,-96.000,1112.000,0.000,0.000,0
2026-01-31 15:44:40,204814,2176.000,5216.000,6515.000,-1110.000,-438.000,1268.000,0.000,0.000,0
2026-01-31 15:44:40,204854,2899.000,4634.000,5450.000,-1131.000,-463.000,882.000,0.000,0.000,0
2026-01-31 15:44:40,204894,2318.000,5022.000,6184.000,-579.000,-612.000,1009.000,0.000,0.000,0
2026-01-31 15:44:40,204934,3717.000,4201.000,6267.000,-781.000,-213.000,1093.000,0.000,0.000,0
2026-01-31 15:44:40,204974,1246.000,4740.000,6411.000,263.000,332.000,978.000,0.000,0.000,0
2026-01-31 15:44:40,205014,2666.000,4605.000,6528.000,-703.000,-153.000,1064.000,0.000,0.000,0
2026-01-31 15:44:40,205054,2027.000,3919.000,6392.000,-356.000,-50.000,1236.000,0.000,0.000,0
2026-01-31 15:44:40,205094,3510.000,5104.000,7158.000,-726.000,-483.000,632.000,0.000,0.000,0
2026-01-31 15:44:40,205134,3069.000,3775.000,6049.000,-465.000,17.000,422.000,0.000,0.000,0
2026-01-31 15:44:40,205177,2932.000,4982.000,6502.000,7.000,-332.000,496.000,0.000,0.000,0
2026-01-31 15:44:40,205214,2793.000,4708.000,6423.000,62.000,-119.000,505.000,0.000,0.000,0
2026-01-31 15:44:40,205254,2813.000,5548.000,6847.000,278.000,33.000,284.000,0.000,0.000,0
2026-01-31 15:44:40,205294,2348.000,3875.000,5896.000,150.000,194.000,52.000,0.000,0.000,0
2026-01-31 15:44:40,205334,1552.000,5827.000,6886.000,418.000,60.000,20.000,0.000,0.000,0
2026-01-31 15:44:40,205374,2306.000,5569.000,6424.000,-29.000,13.000,-269.000,0.000,0.000,0
2026-01-31 15:44:40,205414,2598.000,5157.000,6728.000,-302.000,-78.000,-457.000,0.000,0.000,0
2026-01-31 15:44:40,205454,2271.000,4446.000,5887.000,-109.000,-7.000,-587.000,0.000,0.000,0
2026-01-31 15:44:40,205494,1359.000,6877.000,6632.000,97.000,-513.000,-967.000,0.000,0.000,0
2026-01-31 15:44:40,205534,2378.000,3267.000,5643.000,-2164.000,-984.000,-707.000,0.000,0.000,0
2026-01-31 15:44:40,205574,2857.000,6466.000,6625.000,-489.000,-959.000,-1163.000,0.000,0.000,0
2026-01-31 15:44:40,205614,1813.000,3571.000,6247.000,-965.000,-737.000,-1109.000,0.000,0.000,0
2026-01-31 15:44:40,205654,2797.000,5173.000,6251.000,-755.000,-577.000,-228.000,0.000,0.000,0
2026-01-31 15:44:40,205694,2680.000,4627.000,6676.000,194.000,-196.000,-23.000,0.000,0.000,0
2026-01-31 15:44:41,205734,3598.000,3203.000,5418.000,-1178.000,-719.000,-374.000,0.000,0.000,0
2026-01-31 15:44:41,205774,2685.000,5248.000,7076.000,534.000,-600.000,-1244.000,0.000,0.000,0
2026-01-31 15:44:41,205814,1447.000,4928.000,6166.000,153.000,-399.000,-1305.000,0.000,0.000,0
2026-01-31 15:44:41,205854,2022.000,5394.000,5247.000,-17.000,-423.000,-1175.000,0.000,0.000,0
2026-01-31 15:44:41,205894,2881.000,4527.000,5379.000,807.000,-2.000,-968.000,0.000,0.000,0
2026-01-31 15:44:41,205934,3372.000,5412.000,6739.000,1562.000,58.000,-16.000,0.000,0.000,0
2026-01-31 15:44:41,205974,2791.000,3547.000,6773.000,424.000,-573.000,-404.000,0.000,0.000,0
2026-01-31 15:44:41,206014,2049.000,4437.000,6258.000,195.000,-883.000,-78.000,0.000,0.000,0
2026-01-31 15:44:41,206054,2583.000,4865.000,6656.000,423.000,-363.000,9.000,0.000,0.000,0
2026-01-31 15:44:41,206094,2869.000,4253.000,5407.000,844.000,251.000,-332.000,0.000,0.000,0
2026-01-31 15:44:41,206134,1941.000,6082.000,6902.000,1066.000,-337.000,-198.000,0.000,0.000,0
2026-01-31 15:44:41,206174,3401.000,4322.000,5564.000,-153.000,-160.000,-375.000,0.000,0.000,0
2026-01-31 15:44:41,206214,1891.000,5316.000,6640.000,802.000,-101.000,9.000,0.000,0.000,0
2026-01-31 15:44:41,206254,4349.000,3415.000,5844.000,-329.000,-91.000,395.000,0.000,0.000,0
2026-01-31 15:44:41,206294,2590.000,4759.000,7258.000,707.000,150.000,472.000,0.000,0.000,0
2026-01-31 15:44:41,206334,2158.000,3711.000,6323.000,613.000,340.000,849.000,0.000,0.000,0
2026-01-31 15:44:41,206374,2778.000,4736.000,7238.000,-519.000,423.000,1098.000,0.000,0.000,0
2026-01-31 15:44:41,206414,3289.000,4233.000,5130.000,-727.000,513.000,846.000,0.000,0.000,0
2026-01-31 15:44:41,206454,3815.000,5317.000,5455.000,-203.000,153.000,1080.000,0.000,0.000,0
2026-01-31 15:44:41,206494,2178.000,4797.000,6474.000,-125.000,511.000,1308.000,0.000,0.000,0
2026-01-31 15:44:41,206534,3699.000,4934.000,6763.000,-849.000,679.000,896.000,0.000,0.000,0
2026-01-31 15:44:41,206574,1145.000,6272.000,5778.000,160.000,706.000,19.000,0.000,0.000,0
2026-01-31 15:44:41,206614,1979.000,6017.000,6515.000,-1367.000,250.000,-113.000,0.000,0.000,0
2026-01-31 15:44:41,206654,1772.000,4463.000,5355.000,-1657.000,987.000,-354.000,0.000,0.000,0
2026-01-31 15:44:41,206694,2384.000,5717.000,6581.000,-1151.000,181.000,290.000,0.000,0.000,0
2026-01-31 15:44:42,206734,2955.000,2840.000,4563.000,-1647.000,360.000,-151.000,0.000,0.000,0
2026-01-31 15:44:42,206774,4361.000,5302.000,5937.000,-755.000,-21.000,-579.000,0.000,0.000,0
2026-01-31 15:44:42,206814,139.000,3331.000,5789.000,109.000,448.000,-419.000,0.000,0.000,0
2026-01-31 15:44:42,206854,3657.000,4999.000,6828.000,-574.000,-433.000,-386.000,0.000,0.000,0
2026-01-31 15:44:42,206894,3246.000,5405.000,7394.000,443.000,136.000,-637.000,0.000,0.000,0
2026-01-31 15:44:42,206937,1869.000,6069.000,6079.000,-974.000,-62.000,-1752.000,0.000,0.000,0
2026-01-31 15:44:42,206977,-600.000,5748.000,5823.000,-1738.000,-433.000,-1029.000,0.000,0.000,0
2026-01-31 15:44:42,207014,897.000,6497.000,5176.000,-2214.000,-919.000,-820.000,0.000,0.000,0
2026-01-31 15:44:42,207054,3679.000,4257.000,5006.000,-2420.000,-955.000,-839.000,0.000,0.000,0
2026-01-31 15:44:42,207094,2803.000,4355.000,6657.000,408.000,304.000,-1377.000,0.000,0.000,0
2026-01-31 15:44:42,207134,482.000,3787.000,7179.000,-70.000,23.000,-1514.000,0.000,0.000,0
2026-01-31 15:44:42,207174,4918.000,4083.000,6336.000,-1189.000,-353.000,-1830.000,0.000,0.000,0
2026-01-31 15:44:42,207214,3129.000,3853.000,7138.000,1094.000,-36.000,-1733.000,0.000,0.000,0
2026-01-31 15:44:42,207254,3364.000,3583.000,6476.000,-271.000,-500.000,-1236.000,0.000,0.000,0
2026-01-31 15:44:42,207294,2176.000,3577.000,7711.000,2500.000,-774.000,-284.000,0.000,0.000,0
2026-01-31 15:44:42,207334,2799.000,3265.000,6572.000,2489.000,2.000,-491.000,0.000,0.000,0
2026-01-31 15:44:42,207374,1233.000,3953.000,5495.000,2021.000,865.000,-751.000,0.000,0.000,0
2026-01-31 15:44:42,207414,2164.000,3834.000,5814.000,1547.000,1244.000,-1129.000,0.000,0.000,0
2026-01-31 15:44:42,207454,602.000,6211.000,7610.000,1279.000,1492.000,-1298.000,0.000,0.000,0
2026-01-31 15:44:42,207494,1697.000,5624.000,5799.000,2390.000,1303.000,-1180.000,0.000,0.000,0
2026-01-31 15:44:42,207534,1939.000,6887.000,7622.000,2524.000,45.000,-413.000,0.000,0.000,0
2026-01-31 15:44:42,207574,506.000,5321.000,4857.000,2488.000,195.000,-433.000,0.000,0.000,0
2026-01-31 15:44:42,207614,886.000,5739.000,6814.000,68.000,-909.000,16.000,0.000,0.000,0
2026-01-31 15:44:42,207654,1376.000,4945.000,5809.000,450.000,-1001.000,149.000,0.000,0.000,0
2026-01-31 15:44:42,207694,2309.000,6673.000,6186.000,-908.000,-653.000,323.000,0.000,0.000,0
2026-01-31 15:44:43,207734,1997.000,3169.000,5930.000,429.000,-203.000,617.000,0.000,0.000,0
2026-01-31 15:44:43,207774,2408.000,7716.000,6191.000,1875.000,-79.000,681.000,0.000,0.000,0
2026-01-31 15:44:43,207814,651.000,3849.000,6114.000,1502.000,144.000,1658.000,0.000,0.000,0
2026-01-31 15:44:43,207854,2881.000,6024.000,6256.000,746.000,22.000,1249.000,0.000,0.000,0
2026-01-31 15:44:43,207894,1646.000,5152.000,5002.000,1691.000,297.000,594.000,0.000,0.000,0
2026-01-31 15:44:43,207934,2325.000,5486.000,5392.000,159.000,-293.000,460.000,0.000,0.000,0
2026-01-31 15:44:43,207974,2736.000,4806.000,5496.000,455.000,169.000,543.000,0.000,0.000,0
2026-01-31 15:44:43,208014,2634.000,5220.000,5760.000,1388.000,601.000,464.000,0.000,0.000,0
2026-01-31 15:44:43,208054,2380.000,6122.000,5751.000,1077.000,3.000,959.000,0.000,0.000,0
2026-01-31 15:44:43,208094,3203.000,5093.000,5927.000,684.000,-358.000,808.000,0.000,0.000,0
2026-01-31 15:44:43,208134,1271.000,5714.000,6335.000,1269.000,128.000,600.000,0.000,0.000,0
2026-01-31 15:44:43,208174,2019.000,5322.000,5279.000,106.000,131.000,924.000,0.000,0.000,0
2026-01-31 15:44:43,208214,2995.000,6236.000,5517.000,1028.000,50.000,690.000,0.000,0.000,0
2026-01-31 15:44:43,208254,2635.000,3794.000,4370.000,-87.000,476.000,588.000,0.000,0.000,0
2026-01-31 15:44:43,208294,2961.000,5050.000,5748.000,1948.000,323.000,930.000,0.000,0.000,0
2026-01-31 15:44:43,208334,3451.000,6348.000,6151.000,1273.000,459.000,462.000,0.000,0.000,0
2026-01-31 15:44:43,208374,2128.000,5752.000,6087.000,824.000,971.000,299.000,0.000,0.000,0
2026-01-31 15:44:43,208414,1527.000,4868.000,5318.000,-440.000,1323.000,261.000,0.000,0.000,0
2026-01-31 15:44:43,208454,2913.000,7380.000,5408.000,1490.000,1661.000,-219.000,0.000,0.000,0
2026-01-31 15:44:43,208494,1593.000,7037.000,5719.000,601.000,1462.000,-488.000,0.000,0.000,0
2026-01-31 15:44:43,208534,1861.000,5506.000,5162.000,-83.000,1433.000,-724.000,0.000,0.000,0
2026-01-31 15:44:43,208574,2267.000,7431.000,6404.000,326.000,1512.000,-589.000,0.000,0.000,0
2026-01-31 15:44:43,208614,2595.000,4601.000,5718.000,-918.000,1435.000,-284.000,0.000,0.000,0
2026-01-31 15:44:43,208654,1435.000,5761.000,5530.000,205.000,1551.000,-207.000,0.000,0.000,0
2026-01-31 15:44:43,208694,3471.000,5612.000,5165.000,-868.000,870.000,-362.000,0.000,0.000,0
2026-01-31 15:44:44,208734,268.000,5186.000,5116.000,1201.000,1729.000,-408.000,0.000,0.000,0
2026-01-31 15:44:44,208774,2568.000,7605.000,6329.000,-382.000,1245.000,132.000,0.000,0.000,0
2026-01-31 15:44:44,208814,1682.000,3068.000,5408.000,-127.000,1994.000,230.000,0.000,0.000,0
2026-01-31 15:44:44,208854,1924.000,7700.000,6130.000,1421.000,1996.000,-443.000,0.000,0.000,0
2026-01-31 15:44:44,208894,-507.000,5496.000,5613.000,989.000,1521.000,416.000,0.000,0.000,0
2026-01-31 15:44:44,208937,-323.000,6558.000,6663.000,-611.000,385.000,612.000,0.000,0.000,0
2026-01-31 15:44:44,208976,592.000,6636.000,5707.000,-886.000,-55.000,1228.000,0.000,0.000,0
2026-01-31 15:44:44,209017,571.000,5072.000,5078.000,-2134.000,-117.000,735.000,0.000,0.000,0
2026-01-31 15:44:44,209054,346.000,6643.000,5839.000,-2010.000,-226.000,709.000,0.000,0.000,0
2026-01-31 15:44:44,209094,1525.000,6128.000,5420.000,-1153.000,-651.000,1427.000,0.000,0.000,0
2026-01-31 15:44:44,209134,1046.000,5496.000,5874.000,-1456.000,-719.000,1867.000,0.000,0.000,0
2026-01-31 15:44:44,209177,3128.000,6300.000,5901.000,-1983.000,-1038.000,1951.000,0.000,0.000,0
2026-01-31 15:44:44,209216,2069.000,2965.000,4755.000,-2348.000,-521.000,1874.000,0.000,0.000,0
2026-01-31 15:44:44,209254,881.000,4975.000,5669.000,-834.000,-501.000,1727.000,0.000,0.000,0
2026-01-31 15:44:44,209294,4535.000,5063.000,5566.000,-1960.000,-707.000,1921.000,0.000,0.000,0
2026-01-31 15:44:44,209334,2315.000,5803.000,5611.000,51.000,-157.000,1875.000,0.000,0.000,0
2026-01-31 15:44:44,209374,2472.000,3778.000,5539.000,-1954.000,-77.000,1764.000,0.000,0.000,0
2026-01-31 15:44:44,209414,2147.000,5800.000,5816.000,-404.000,41.000,1322.000,0.000,0.000,0
2026-01-31 15:44:44,209454,5295.000,5828.000,5454.000,-728.000,379.000,-238.000,0.000,0.000,0
2026-01-31 15:44:44,209494,1537.000,4211.000,5815.000,754.000,1161.000,-496.000,0.000,0.000,0
2026-01-31 15:44:44,209534,1895.000,6221.000,6405.000,332.000,523.000,88.000,0.000,0.000,0
2026-01-31 15:44:44,209574,2948.000,5244.000,5641.000,-224.000,366.000,101.000,0.000,0.000,0
2026-01-31 15:44:44,209614,928.000,6317.000,6701.000,210.000,-44.000,-229.000,0.000,0.000,0
2026-01-31 15:44:44,209654,2567.000,3862.000,5111.000,-1733.000,-518.000,-230.000,0.000,0.000,0
2026-01-31 15:44:44,209694,2675.000,6801.000,6561.000,238.000,-252.000,-1084.000,0.000,0.000,0
2026-01-31 15:44:45,209734,1173.000,4581.000,5235.000,-460.000,-195.000,-577.000,0.000,0.000,0
2026-01-31 15:44:45,209774,2835.000,6027.000,6296.000,-1148.000,-874.000,-595.000,0.000,0.000,0
2026-01-31 15:44:45,209814,2296.000,5980.000,5660.000,-1076.000,-741.000,-1399.000,0.000,0.000,0
2026-01-31 15:44:45,209854,764.000,4387.000,4995.000,-1553.000,-936.000,-1319.000,0.000,0.000,0
2026-01-31 15:44:45,209894,3239.000,5504.000,5243.000,-1438.000,-1284.000,-1480.000,0.000,0.000,0
2026-01-31 15:44:45,209934,2619.000,5007.000,6397.000,-276.000,-693.000,-1047.000,0.000,0.000,0
2026-01-31 15:44:45,209974,3931.000,3152.000,5642.000,239.000,-100.000,-1058.000,0.000,0.000,0
2026-01-31 15:44:45,210014,2551.000,4818.000,5995.000,2934.000,628.000,-1035.000,0.000,0.000,0
2026-01-31 15:44:45,210054,2821.000,5866.000,6453.000,1937.000,130.000,-554.000,0.000,0.000,0
2026-01-31 15:44:45,210094,3309.000,3794.000,5776.000,752.000,7.000,-124.000,0.000,0.000,0
2026-01-31 15:44:45,210134,1748.000,5894.000,6070.000,2560.000,433.000,-391.000,0.000,0.000,0
2026-01-31 15:44:45,210174,2183.000,5147.000,5314.000,1724.000,341.000,180.000,0.000,0.000,0
2026-01-31 15:44:45,210214,1655.000,5162.000,5989.000,212.000,79.000,-376.000,0.000,0.000,0
2026-01-31 15:44:45,210254,1429.000,5704.000,5589.000,767.000,149.000,-313.000,0.000,0.000,0
2026-01-31 15:44:45,210294,1890.000,7687.000,6582.000,615.000,-295.000,-244.000,0.000,0.000,0
2026-01-31 15:44:45,210334,1432.000,5336.000,6338.000,-900.000,-501.000,444.000,0.000,0.000,0
2026-01-31 15:44:45,210374,1190.000,4976.000,4677.000,-1559.000,-555.000,684.000,0.000,0.000,0
2026-01-31 15:44:45,210414,3039.000,6873.000,7517.000,-729.000,-701.000,656.000,0.000,0.000,0
2026-01-31 15:44:45,210454,2654.000,938.000,4677.000,-1981.000,82.000,711.000,0.000,0.000,0
2026-01-31 15:44:45,210494,1706.000,8949.000,6855.000,1866.000,194.000,-28.000,0.000,0.000,0
2026-01-31 15:44:45,210534,3107.000,2946.000,5338.000,-1846.000,75.000,767.000,0.000,0.000,0
2026-01-31 15:44:45,210574,2659.000,5431.000,5973.000,985.000,405.000,93.000,0.000,0.000,0
2026-01-31 15:44:45,210614,1994.000,4958.000,4693.000,648.000,1277.000,-142.000,0.000,0.000,0
2026-01-31 15:44:45,210654,1287.000,6623.000,5796.000,410.000,965.000,-143.000,0.000,0.000,0
2026-01-31 15:44:45,210694,4623.000,4615.000,5534.000,207.000,1070.000,97.000,0.000,0.000,0
2026-01-31 15:44:46,210734,800.000,5715.000,6009.000,1778.000,1306.000,-338.000,0.000,0.000,0
2026-01-31 15:44:46,210774,3119.000,5971.000,6791.000,-33.000,42.000,115.000,0.000,0.000,0
2026-01-31 15:44:46,210814,4774.000,7172.000,8584.000,487.000,101.000,-980.000,0.000,0.000,0
2026-01-31 15:44:46,210854,-976.000,670.000,2096.000,-630.000,716.000,-1172.000,0.000,0.000,0
2026-01-31 15:44:46,210894,41.000,11712.000,7648.000,1935.000,-1393.000,184.000,0.000,0.000,0
2026-01-31 15:44:46,210934,199.000,-795.000,4006.000,-6063.000,-768.000,1446.000,0.000,0.000,0
2026-01-31 15:44:46,210974,-748.000,-1494.000,4800.000,-2897.000,1241.000,660.000,0.000,0.000,0
2026-01-31 15:44:46,211014,4004.000,9952.000,8132.000,3846.000,608.000,-386.000,0.000,0.000,0
2026-01-31 15:44:46,211054,-2265.000,3913.000,6217.000,-219.000,-12.000,687.000,0.000,0.000,0
2026-01-31 15:44:46,211094,6035.000,7795.000,5059.000,-885.000,-1024.000,153.000,0.000,0.000,0
2026-01-31 15:44:46,211134,-3734.000,4146.000,4510.000,-294.000,-1106.000,699.000,0.000,0.000,0
2026-01-31 15:44:46,211174,440.000,4948.000,6144.000,-4372.000,-2745.000,740.000,0.000,0.000,0
2026-01-31 15:44:46,211214,6175.000,6917.000,5166.000,-403.000,-1607.000,-998.000,0.000,0.000,0
2026-01-31 15:44:46,211254,2197.000,3537.000,5062.000,159.000,270.000,-1028.000,0.000,0.000,0
2026-01-31 15:44:46,211294,3443.000,6913.000,7368.000,2414.000,712.000,-281.000,0.000,0.000,0
2026-01-31 15:44:46,211334,-38.000,6754.000,5894.000,1236.000,791.000,348.000,0.000,0.000,0
2026-01-31 15:44:46,211374,4488.000,4297.000,5313.000,-1227.000,-1217.000,525.000,0.000,0.000,0
2026-01-31 15:44:46,211414,1312.000,4806.000,5118.000,75.000,-55.000,-432.000,0.000,0.000,0
2026-01-31 15:44:46,211454,2986.000,4336.000,5215.000,959.000,592.000,-598.000,0.000,0.000,0
2026-01-31 15:44:46,211494,3778.000,5195.000,6516.000,2691.000,1217.000,317.000,0.000,0.000,0
2026-01-31 15:44:46,211534,1749.000,5749.000,7055.000,3280.000,1459.000,298.000,0.000,0.000,0
2026-01-31 15:44:46,211574,912.000,8178.000,7073.000,1465.000,663.000,771.000,0.000,0.000,0
2026-01-31 15:44:46,211614,-197.000,5860.000,5589.000,-1179.000,-283.000,932.000,0.000,0.000,0
2026-01-31 15:44:46,211654,1579.000,4357.000,4537.000,-2574.000,-738.000,374.000,0.000,0.000,0
2026-01-31 15:44:46,211694,1434.000,6092.000,5905.000,-884.000,-758.000,821.000,0.000,0.000,0
2026-01-31 15:44:47,211734,2038.000,2693.000,5729.000,-696.000,869.000,703.000,0.000,0.000,0
2026-01-31 15:44:47,211774,2289.000,6619.000,5866.000,840.000,671.000,447.000,0.000,0.000,0
2026-01-31 15:44:47,211814,1881.000,6956.000,6678.000,169.000,201.000,729.000,0.000,0.000,0
2026-01-31 15:44:47,211854,3102.000,4744.000,5451.000,-1446.000,-400.000,1189.000,0.000,0.000,0
2026-01-31 15:44:47,211894,2001.000,5433.000,5364.000,-838.000,-355.000,1483.000,0.000,0.000,0
2026-01-31 15:44:47,211934,2624.000,4439.000,6086.000,-1578.000,6.000,885.000,0.000,0.000,0
2026-01-31 15:44:47,211974,2192.000,5033.000,5308.000,-825.000,390.000,772.000,0.000,0.000,0
2026-01-31 15:44:47,212014,3715.000,4013.000,4567.000,-531.000,146.000,925.000,0.000,0.000,0
2026-01-31 15:44:47,212054,3959.000,6152.000,6976.000,42.000,278.000,666.000,0.000,0.000,0
2026-01-31 15:44:47,212094,2693.000,4065.000,6174.000,-232.000,640.000,737.000,0.000,0.000,0
2026-01-31 15:44:47,212134,3556.000,4804.000,5660.000,-550.000,-89.000,511.000,0.000,0.000,0
2026-01-31 15:44:47,212174,240.000,6139.000,6614.000,261.000,-382.000,864.000,0.000,0.000,0
2026-01-31 15:44:47,212214,6217.000,3509.000,4948.000,-2126.000,-129.000,-160.000,0.000,0.000,0
2026-01-31 15:44:47,212254,1005.000,7444.000,6907.000,2337.000,609.000,-493.000,0.000,0.000,0
2026-01-31 15:44:47,212294,1515.000,3808.000,4735.000,-1608.000,111.000,-53.000,0.000,0.000,0
2026-01-31 15:44:47,212334,2292.000,8477.000,7636.000,214.000,-57.000,-459.000,0.000,0.000,0
2026-01-31 15:44:47,212374,3669.000,2020.000,4788.000,-1749.000,467.000,-793.000,0.000,0.000,0
2026-01-31 15:44:47,212414,1787.000,6743.000,6346.000,837.000,254.000,-844.000,0.000,0.000,0
2026-01-31 15:44:47,212454,1647.000,5294.000,5417.000,-1079.000,-474.000,-445.000,0.000,0.000,0
2026-01-31 15:44:47,212494,1692.000,4214.000,5544.000,-1143.000,-444.000,-576.000,0.000,0.000,0
2026-01-31 15:44:47,212534,4172.000,5284.000,5815.000,-1159.000,-621.000,-988.000,0.000,0.000,0
2026-01-31 15:44:47,212574,2799.000,6116.000,6150.000,84.000,325.000,-1036.000,0.000,0.000,0
2026-01-31 15:44:47,212614,3915.000,3457.000,5502.000,-295.000,910.000,-692.000,0.000,0.000,0
2026-01-31 15:44:47,212654,1887.000,4949.000,6836.000,2989.000,1519.000,-585.000,0.000,0.000,0
2026-01-31 15:44:47,212694,1891.000,5738.000,6164.000,1190.000,1188.000,-793.000,0.000,0.000,0
2026-01-31 15:44:48,212734,2152.000,3129.000,4265.000,-522.000,1089.000,-1713.000,0.000,0.000,0
2026-01-31 15:44:48,212774,749.000,6465.000,6355.000,1474.000,1226.000,-2611.000,0.000,0.000,0
2026-01-31 15:44:48,212814,1747.000,4707.000,4805.000,-560.000,1433.000,-2746.000,0.000,0.000,0
2026-01-31 15:44:48,212854,1503.000,5284.000,5942.000,1901.000,1537.000,-2449.000,0.000,0.000,0
2026-01-31 15:44:48,212894,952.000,8971.000,6845.000,2182.000,475.000,-1547.000,0.000,0.000,0
2026-01-31 15:44:48,212937,361.000,7072.000,5668.000,-748.000,-925.000,-444.000,0.000,0.000,0
2026-01-31 15:44:48,212976,1512.000,5801.000,5916.000,-1635.000,-810.000,-81.000,0.000,0.000,0
2026-01-31 15:44:48,213014,872.000,4665.000,5611.000,-1493.000,-262.000,-55.000,0.000,0.000,0
2026-01-31 15:44:48,213054,-504.000,5913.000,5581.000,-1032.000,-4.000,300.000,0.000,0.000,0
2026-01-31 15:44:48,213094,1909.000,4891.000,5156.000,-2310.000,-504.000,1626.000,0.000,0.000,0
2026-01-31 15:44:48,213134,1612.000,6991.000,7516.000,-226.000,-231.000,858.000,0.000,0.000,0
2026-01-31 15:44:48,213177,63.000,3754.000,6813.000,-753.000,-611.000,699.000,0.000,0.000,0
2026-01-31 15:44:48,213214,3641.000,8603.000,6879.000,917.000,-1886.000,536.000,0.000,0.000,0
2026-01-31 15:44:48,213254,693.000,6122.000,5775.000,-627.000,-1223.000,-207.000,0.000,0.000,0
2026-01-31 15:44:48,213294,2645.000,4225.000,5452.000,-2554.000,-1104.000,287.000,0.000,0.000,0
2026-01-31 15:44:48,213334,448.000,5693.000,6175.000,752.000,372.000,-625.000,0.000,0.000,0
2026-01-31 15:44:48,213374,392.000,5272.000,6107.000,-400.000,584.000,-814.000,0.000,0.000,0
2026-01-31 15:44:48,213414,1759.000,5492.000,6063.000,-629.000,232.000,-282.000,0.000,0.000,0
2026-01-31 15:44:48,213454,672.000,4992.000,5868.000,351.000,418.000,-1199.000,0.000,0.000,0
2026-01-31 15:44:48,213494,2089.000,7409.000,6845.000,455.000,-7.000,-1703.000,0.000,0.000,0
2026-01-31 15:44:48,213534,-216.000,3722.000,5417.000,-724.000,296.000,-1724.000,0.000,0.000,0
2026-01-31 15:44:48,213574,860.000,4557.000,5709.000,884.000,-232.000,-1604.000,0.000,0.000,0
2026-01-31 15:44:48,213614,1645.000,5475.000,6436.000,1052.000,-663.000,-1059.000,0.000,0.000,0
2026-01-31 15:44:48,213654,1293.000,6238.000,6734.000,801.000,-931.000,-291.000,0.000,0.000,0
2026-01-31 15:44:48,213694,572.000,4502.000,6361.000,285.000,-676.000,-570.000,0.000,0.000,0
2026-01-31 15:44:49,213734,592.000,5822.000,6640.000,634.000,-855.000,-373.000,0.000,0.000,0
2026-01-31 15:44:49,213774,1993.000,3703.000,5325.000,-315.000,-644.000,-19.000,0.000,0.000,0
2026-01-31 15:44:49,213814,-120.000,6661.000,6770.000,1806.000,45.000,-361.000,0.000,0.000,0
2026-01-31 15:44:49,213854,1295.000,5146.000,6483.000,1022.000,-293.000,218.000,0.000,0.000,0
2026-01-31 15:44:49,213894,2199.000,6404.000,6636.000,1489.000,-53.000,372.000,0.000,0.000,0
2026-01-31 15:44:49,213934,-277.000,5842.000,6105.000,1223.000,361.000,616.000,0.000,0.000,0
2026-01-31 15:44:49,213974,1640.000,7365.000,6847.000,-359.000,-275.000,938.000,0.000,0.000,0
2026-01-31 15:44:49,214014,2591.000,6865.000,7829.000,-3053.000,-98.000,191.000,0.000,0.000,0
2026-01-31 15:44:49,214054,975.000,3365.000,6270.000,-5127.000,-447.000,-580.000,0.000,0.000,0
2026-01-31 15:44:49,214094,-108.000,4710.000,7147.000,-1870.000,1000.000,-405.000,0.000,0.000,0
2026-01-31 15:44:49,214134,357.000,4404.000,5837.000,-1161.000,2131.000,-599.000,0.000,0.000,0
2026-01-31 15:44:49,214174,-591.000,1390.000,3565.000,-1699.000,2213.000,-854.000,0.000,0.000,0
2026-01-31 15:44:49,214214,-523.000,-357.000,84.000,1325.000,-259.000,297.000,0.000,0.000,0
2026-01-31 15:44:49,214254,6604.000,12310.000,19171.000,-698.000,-840.000,1145.000,0.000,0.000,0
2026-01-31 15:44:49,214294,-2232.000,6899.000,6216.000,1526.000,2031.000,1423.000,0.000,0.000,0
2026-01-31 15:44:49,214334,-94.000,5099.000,9345.000,-3441.000,-257.000,1819.000,0.000,0.000,0
2026-01-31 15:44:49,214374,168.000,3041.000,4991.000,-2636.000,498.000,1902.000,0.000,0.000,0
2026-01-31 15:44:49,214414,551.000,3664.000,6100.000,-185.000,494.000,453.000,0.000,0.000,0
2026-01-31 15:44:49,214454,3259.000,6468.000,8833.000,70.000,205.000,436.000,0.000,0.000,0
2026-01-31 15:44:49,214494,-1678.000,1511.000,5839.000,-269.000,1509.000,113.000,0.000,0.000,0
2026-01-31 15:44:49,214534,2130.000,6435.000,7620.000,424.000,-926.000,421.000,0.000,0.000,0
2026-01-31 15:44:49,214574,1544.000,3111.000,7156.000,-127.000,13.000,130.000,0.000,0.000,0
2026-01-31 15:44:49,214614,854.000,4483.000,7919.000,1437.000,40.000,-203.000,0.000,0.000,0
2026-01-31 15:44:49,214654,-1565.000,1652.000,3888.000,85.000,446.000,-304.000,0.000,0.000,0
2026-01-31 15:44:49,214694,889.000,7336.000,9915.000,1293.000,-1635.000,186.000,0.000,0.000,0
2026-01-31 15:44:50,214734,1273.000,2573.000,5322.000,-799.000,-597.000,188.000,0.000,0.000,0
2026-01-31 15:44:50,214774,-2380.000,1318.000,3736.000,2901.000,-546.000,-329.000,0.000,0.000,0
2026-01-31 15:44:50,214814,2838.000,7567.000,7779.000,2835.000,-271.000,-925.000,0.000,0.000,0
2026-01-31 15:44:50,214854,741.000,5359.000,6136.000,1377.000,-506.000,-9.000,0.000,0.000,0
2026-01-31 15:44:50,214894,-270.000,5830.000,6609.000,3106.000,-160.000,-939.000,0.000,0.000,0
2026-01-31 15:44:50,214937,1023.000,5601.000,5000.000,-3021.000,-1471.000,-1258.000,0.000,0.000,0
2026-01-31 15:44:50,214977,-2351.000,1575.000,3569.000,-464.000,-789.000,-665.000,0.000,0.000,0
2026-01-31 15:44:50,215014,-2304.000,2543.000,5133.000,-296.000,-1062.000,64.000,0.000,0.000,0
2026-01-31 15:44:50,215054,1822.000,8353.000,8893.000,1535.000,350.000,-1216.000,0.000,0.000,0
2026-01-31 15:44:50,215094,1068.000,4276.000,5161.000,-475.000,594.000,956.000,0.000,0.000,0
2026-01-31 15:44:50,215134,2225.000,3393.000,8501.000,56.000,322.000,1233.000,0.000,0.000,0
2026-01-31 15:44:50,215177,1240.000,6252.000,8595.000,1811.000,694.000,1000.000,0.000,0.000,0
2026-01-31 15:44:50,215214,3692.000,8086.000,8259.000,1682.000,1026.000,220.000,0.000,0.000,0
2026-01-31 15:44:50,215254,-544.000,3130.000,5487.000,869.000,1530.000,-185.000,0.000,0.000,0
2026-01-31 15:44:50,215294,-257.000,6716.000,5884.000,1064.000,1373.000,534.000,0.000,0.000,0
2026-01-31 15:44:50,215334,1068.000,6340.000,5888.000,-33.000,914.000,93.000,0.000,0.000,0
2026-01-31 15:44:50,215374,-516.000,6184.000,5419.000,883.000,1667.000,-96.000,0.000,0.000,0
2026-01-31 15:44:50,215414,-3756.000,2984.000,2330.000,24.000,262.000,383.000,0.000,0.000,0
2026-01-31 15:44:50,215454,1389.000,11685.000,11726.000,-740.000,-823.000,1301.000,0.000,0.000,0
2026-01-31 15:44:50,215494,1962.000,2301.000,2005.000,-2199.000,-986.000,910.000,0.000,0.000,0
2026-01-31 15:44:50,215534,-387.000,8072.000,7006.000,-985.000,-712.000,97.000,0.000,0.000,0
2026-01-31 15:44:50,215574,-1152.000,5301.000,5342.000,-1247.000,-1212.000,1167.000,0.000,0.000,0
2026-01-31 15:44:50,215614,1978.000,6282.000,6701.000,-2105.000,-1895.000,1625.000,0.000,0.000,0
2026-01-31 15:44:50,215654,353.000,2678.000,5744.000,-2707.000,-860.000,1228.000,0.000,0.000,0
2026-01-31 15:44:50,215694,1671.000,8302.000,5990.000,-617.000,-1219.000,593.000,0.000,0.000,0
2026-01-31 15:44:51,215734,2549.000,2856.000,5139.000,-2997.000,-1286.000,1670.000,0.000,0.000,0
2026-01-31 15:44:51,215774,3534.000,6745.000,6759.000,-590.000,-781.000,469.000,0.000,0.000,0
2026-01-31 15:44:51,215814,3288.000,4488.000,6194.000,-827.000,-51.000,42.000,0.000,0.000,0
2026-01-31 15:44:51,215854,-1242.000,4275.000,6032.000,539.000,275.000,-453.000,0.000,0.000,0
2026-01-31 15:44:51,215894,1703.000,6672.000,6448.000,-97.000,-330.000,-848.000,0.000,0.000,0
2026-01-31 15:44:51,215934,3810.000,5442.000,5123.000,860.000,90.000,-1332.000,0.000,0.000,0
2026-01-31 15:44:51,215974,530.000,4252.000,6079.000,437.000,151.000,-1380.000,0.000,0.000,0
2026-01-31 15:44:51,216014,766.000,7693.000,8245.000,1452.000,-101.000,-1405.000,0.000,0.000,0
2026-01-31 15:44:51,216054,2786.000,1880.000,4490.000,-1181.000,367.000,-755.000,0.000,0.000,0
2026-01-31 15:44:51,216094,-499.000,6722.000,6862.000,3364.000,-276.000,-1180.000,0.000,0.000,0
2026-01-31 15:44:51,216134,1911.000,5975.000,6284.000,-1629.000,-1207.000,-407.000,0.000,0.000,0
2026-01-31 15:44:51,216174,907.000,4558.000,6580.000,124.000,-727.000,-1205.000,0.000,0.000,0
2026-01-31 15:44:51,216214,2252.000,6214.000,5623.000,-167.000,-878.000,-1400.000,0.000,0.000,0
2026-01-31 15:44:51,216254,-1178.000,4756.000,6327.000,902.000,-417.000,-1339.000,0.000,0.000,0
2026-01-31 15:44:51,216294,2984.000,5466.000,5521.000,-860.000,-1046.000,-893.000,0.000,0.000,0
2026-01-31 15:44:51,216334,1266.000,4957.000,7329.000,24.000,-274.000,-752.000,0.000,0.000,0
2026-01-31 15:44:51,216374,3221.000,5043.000,6267.000,-314.000,-431.000,-419.000,0.000,0.000,0
2026-01-31 15:44:51,216414,-151.000,3472.000,6061.000,446.000,271.000,-826.000,0.000,0.000,0
2026-01-31 15:44:51,216454,3334.000,6656.000,6599.000,850.000,-51.000,-721.000,0.000,0.000,0
2026-01-31 15:44:51,216494,1155.000,3128.000,6333.000,1525.000,1125.000,-673.000,0.000,0.000,0
2026-01-31 15:44:51,216534,-452.000,6712.000,6270.000,3028.000,1556.000,-960.000,0.000,0.000,0
2026-01-31 15:44:51,216574,217.000,5704.000,6199.000,1325.000,530.000,-154.000,0.000,0.000,0
2026-01-31 15:44:51,216614,354.000,7299.000,6347.000,1540.000,334.000,-783.000,0.000,0.000,0
2026-01-31 15:44:51,216654,77.000,5264.000,6244.000,-285.000,70.000,-21.000,0.000,0.000,0
2026-01-31 15:44:51,216694,922.000,6088.000,5644.000,200.000,17.000,-131.000,0.000,0.000,0
2026-01-31 15:44:52,216734,-570.000,4781.000,6038.000,-29.000,-285.000,330.000,0.000,0.000,0
2026-01-31 15:44:52,216774,1555.000,4842.000,6234.000,-1512.000,-977.000,990.000,0.000,0.000,0
2026-01-31 15:44:52,216814,2061.000,6210.000,8448.000,-124.000,-529.000,1236.000,0.000,0.000,0
2026-01-31 15:44:52,216854,-1782.000,-368.000,2932.000,-968.000,545.000,495.000,0.000,0.000,0
2026-01-31 15:44:52,216894,103.000,12294.000,11370.000,2218.000,-2529.000,1660.000,0.000,0.000,0
2026-01-31 15:44:52,216934,2087.000,-4117.000,4409.000,-5564.000,330.000,1736.000,0.000,0.000,0
2026-01-31 15:44:52,216974,381.000,10666.000,6053.000,5650.000,-485.000,93.000,0.000,0.000,0
2026-01-31 15:44:52,217014,1372.000,1678.000,4472.000,-3662.000,-1346.000,1993.000,0.000,0.000,0
2026-01-31 15:44:52,217054,1952.000,6698.000,7328.000,1016.000,-543.000,1306.000,0.000,0.000,0
2026-01-31 15:44:52,217094,4171.000,3439.000,6356.000,838.000,914.000,1099.000,0.000,0.000,0
2026-01-31 15:44:52,217134,1754.000,7555.000,8510.000,1928.000,930.000,-202.000,0.000,0.000,0
2026-01-31 15:44:52,217177,1219.000,4512.000,6194.000,1300.000,32.000,662.000,0.000,0.000,0
2026-01-31 15:44:52,217214,2929.000,5460.000,5932.000,1089.000,-404.000,682.000,0.000,0.000,0
2026-01-31 15:44:52,217254,2177.000,5503.000,6790.000,442.000,-21.000,594.000,0.000,0.000,0
2026-01-31 15:44:52,217294,42.000,4134.000,6591.000,403.000,411.000,1196.000,0.000,0.000,0
2026-01-31 15:44:52,217334,1608.000,4505.000,6746.000,656.000,668.000,1234.000,0.000,0.000,0
2026-01-31 15:44:52,217374,3472.000,5821.000,7222.000,1014.000,456.000,1508.000,0.000,0.000,0
2026-01-31 15:44:52,217414,3023.000,6220.000,6749.000,567.000,-123.000,1469.000,0.000,0.000,0
2026-01-31 15:44:52,217454,1616.000,4933.000,6123.000,-468.000,94.000,653.000,0.000,0.000,0
2026-01-31 15:44:52,217494,2515.000,6858.000,7275.000,-519.000,713.000,-233.000,0.000,0.000,0
2026-01-31 15:44:52,217534,-731.000,3350.000,5699.000,-450.000,1820.000,47.000,0.000,0.000,0
2026-01-31 15:44:52,217574,2152.000,6299.000,5128.000,-777.000,1812.000,-22.000,0.000,0.000,0
2026-01-31 15:44:52,217614,2819.000,7455.000,7408.000,92.000,1869.000,130.000,0.000,0.000,0
2026-01-31 15:44:52,217654,492.000,2925.000,5693.000,-600.000,2088.000,264.000,0.000,0.000,0
2026-01-31 15:44:52,217694,3537.000,7227.000,5992.000,274.000,1872.000,-176.000,0.000,0.000,0
2026-01-31 15:44:53,217734,-1114.000,4677.000,4643.000,882.000,1545.000,-153.000,0.000,0.000,0
2026-01-31 15:44:53,217774,1528.000,9388.000,6673.000,-1287.000,194.000,-663.000,0.000,0.000,0
2026-01-31 15:44:53,217814,-1855.000,5140.000,5590.000,-1307.000,144.000,-777.000,0.000,0.000,0
2026-01-31 15:44:53,217854,736.000,5537.000,4784.000,-3924.000,-1456.000,-1067.000,0.000,0.000,0
2026-01-31 15:44:53,217894,1446.000,5357.000,4475.000,-1531.000,-441.000,-2011.000,0.000,0.000,0
2026-01-31 15:44:53,217934,2080.000,5693.000,5129.000,-1670.000,-572.000,-982.000,0.000,0.000,0
2026-01-31 15:44:53,217974,2649.000,7707.000,7887.000,-546.000,-884.000,289.000,0.000,0.000,0
2026-01-31 15:44:53,218014,616.000,-543.000,5752.000,-2399.000,476.000,-465.000,0.000,0.000,0
2026-01-31 15:44:53,218054,1847.000,7260.000,7099.000,2625.000,-548.000,-637.000,0.000,0.000,0
2026-01-31 15:44:53,218094,448.000,2554.000,5848.000,-620.000,-854.000,-269.000,0.000,0.000,0
2026-01-31 15:44:53,218134,4032.000,5234.000,6510.000,72.000,-1676.000,-694.000,0.000,0.000,0
2026-01-31 15:44:53,218174,-1163.000,2018.000,3579.000,1470.000,158.000,-1312.000,0.000,0.000,0
2026-01-31 15:44:53,218214,4214.000,4717.000,6797.000,353.000,-1763.000,156.000,0.000,0.000,0
2026-01-31 15:44:53,218254,173.000,5032.000,5448.000,2782.000,1207.000,-1229.000,0.000,0.000,0
2026-01-31 15:44:53,218294,2792.000,8155.000,7319.000,1603.000,-597.000,-273.000,0.000,0.000,0
2026-01-31 15:44:53,218334,-161.000,4443.000,5520.000,1320.000,-29.000,-1223.000,0.000,0.000,0
2026-01-31 15:44:53,218374,5159.000,8287.000,6208.000,837.000,-1523.000,-1169.000,0.000,0.000,0
2026-01-31 15:44:53,218414,-4250.000,-4358.000,2236.000,-2135.000,-1250.000,953.000,0.000,0.000,0
2026-01-31 15:44:53,218454,5155.000,17989.000,10917.000,4826.000,574.000,-2959.000,0.000,0.000,0
2026-01-31 15:44:53,218494,-1727.000,-3899.000,8740.000,-4693.000,-393.000,2517.000,0.000,0.000,0
2026-01-31 15:44:53,218534,1542.000,4486.000,969.000,1277.000,1314.000,-530.000,0.000,0.000,0
2026-01-31 15:44:53,218574,523.000,9498.000,7554.000,5297.000,-1404.000,379.000,0.000,0.000,0
2026-01-31 15:44:53,218614,5154.000,-1613.000,2047.000,-4315.000,-1844.000,675.000,0.000,0.000,0
2026-01-31 15:44:53,218654,-4416.000,10544.000,9451.000,4423.000,-841.000,-1727.000,0.000,0.000,0
2026-01-31 15:44:53,218694,3535.000,-36.000,3104.000,-5762.000,-1958.000,607.000,0.000,0.000,0
2026-01-31 15:44:54,218734,5674.000,8751.000,7091.000,3425.000,1123.000,-1040.000,0.000,0.000,0
2026-01-31 15:44:54,218774,872.000,3448.000,6028.000,1977.000,1879.000,-213.000,0.000,0.000,0
2026-01-31 15:44:54,218814,-2353.000,7191.000,6497.000,2693.000,1356.000,195.000,0.000,0.000,0
2026-01-31 15:44:54,218854,4203.000,5281.000,4957.000,-1808.000,-198.000,414.000,0.000,0.000,0
2026-01-31 15:44:54,218897,2248.000,9260.000,7296.000,2887.000,647.000,-646.000,0.000,0.000,0
2026-01-31 15:44:54,218937,2763.000,4883.000,6284.000,-247.000,772.000,83.000,0.000,0.000,0
2026-01-31 15:44:54,218974,-803.000,3621.000,6668.000,603.000,986.000,-297.000,0.000,0.000,0
2026-01-31 15:44:54,219014,-964.000,6242.000,5566.000,589.000,258.000,-112.000,0.000,0.000,0
2026-01-31 15:44:54,219054,0.000,4140.000,6117.000,-1124.000,-134.000,491.000,0.000,0.000,0
2026-01-31 15:44:54,219094,2390.000,6459.000,5686.000,-872.000,-6.000,477.000,0.000,0.000,0
2026-01-31 15:44:54,219134,-1352.000,2794.000,6295.000,-147.000,-437.000,1139.000,0.000,0.000,0
2026-01-31 15:44:54,219180,3254.000,171.000,5357.000,-4978.000,-1018.000,1493.000,0.000,0.000,0
2026-01-31 15:44:54,219214,1086.000,1154.000,5942.000,-1707.000,-679.000,1093.000,0.000,0.000,0
2026-01-31 15:44:54,219254,2346.000,8376.000,7980.000,-952.000,-1582.000,1322.000,0.000,0.000,0
2026-01-31 15:44:54,219294,-446.000,422.000,4343.000,-3085.000,-631.000,2011.000,0.000,0.000,0
2026-01-31 15:44:54,219334,4123.000,9177.000,6914.000,240.000,-1072.000,1395.000,0.000,0.000,0
2026-01-31 15:44:54,219374,524.000,7798.000,7012.000,2684.000,940.000,975.000,0.000,0.000,0
2026-01-31 15:44:54,219414,3571.000,2852.000,3713.000,-2047.000,493.000,727.000,0.000,0.000,0
2026-01-31 15:44:54,219454,-2599.000,5402.000,6678.000,1462.000,-800.000,1952.000,0.000,0.000,0
2026-01-31 15:44:54,219494,10385.000,7176.000,5906.000,-2856.000,-766.000,-82.000,0.000,0.000,0
2026-01-31 15:44:54,219534,963.000,4299.000,6379.000,2491.000,1457.000,-1203.000,0.000,0.000,0
2026-01-31 15:44:54,219574,-1942.000,3355.000,5809.000,-852.000,480.000,-848.000,0.000,0.000,0
2026-01-31 15:44:54,219614,4517.000,9969.000,7589.000,2480.000,641.000,-1513.000,0.000,0.000,0
2026-01-31 15:44:54,219654,-2451.000,723.000,4527.000,-1469.000,557.000,422.000,0.000,0.000,0
2026-01-31 15:44:54,219694,1212.000,6807.000,7893.000,109.000,150.000,-565.000,0.000,0.000,0
2026-01-31 15:44:55,219734,1894.000,3042.000,3911.000,-717.000,487.000,-986.000,0.000,0.000,0
2026-01-31 15:44:55,219774,6613.000,6270.000,7279.000,783.000,-137.000,-1093.000,0.000,0.000,0
2026-01-31 15:44:55,219814,-380.000,4349.000,6682.000,1784.000,377.000,-816.000,0.000,0.000,0
2026-01-31 15:44:55,219854,1915.000,4900.000,7007.000,-955.000,-1264.000,-361.000,0.000,0.000,0
2026-01-31 15:44:55,219894,1683.000,4941.000,5654.000,251.000,-636.000,-729.000,0.000,0.000,0
2026-01-31 15:44:55,219934,-16.000,6744.000,6789.000,342.000,-219.000,-534.000,0.000,0.000,0
2026-01-31 15:44:55,219974,5220.000,903.000,4550.000,567.000,-77.000,-159.000,0.000,0.000,0
2026-01-31 15:44:55,220014,-70.000,8295.000,7571.000,5621.000,2005.000,-1217.000,0.000,0.000,0
2026-01-31 15:44:55,220054,1357.000,6252.000,7194.000,-197.000,653.000,505.000,0.000,0.000,0
2026-01-31 15:44:55,220094,1045.000,2689.000,5282.000,-569.000,776.000,190.000,0.000,0.000,0
2026-01-31 15:44:55,220134,2948.000,6715.000,5233.000,-426.000,-227.000,-193.000,0.000,0.000,0
2026-01-31 15:44:55,220174,1242.000,5132.000,6831.000,527.000,-572.000,341.000,0.000,0.000,0
2026-01-31 15:44:55,220214,2561.000,3805.000,6116.000,-773.000,54.000,560.000,0.000,0.000,0
2026-01-31 15:44:55,220254,-1693.000,5370.000,7140.000,1875.000,819.000,722.000,0.000,0.000,0
2026-01-31 15:44:55,220294,1767.000,6820.000,6721.000,-1333.000,-145.000,706.000,0.000,0.000,0
2026-01-31 15:44:55,220334,1696.000,3508.000,6697.000,-695.000,45.000,677.000,0.000,0.000,0
2026-01-31 15:44:55,220374,361.000,5844.000,6405.000,300.000,-181.000,928.000,0.000,0.000,0
2026-01-31 15:44:55,220414,4392.000,5095.000,5667.000,-645.000,-443.000,1262.000,0.000,0.000,0
2026-01-31 15:44:55,220454,1269.000,5459.000,5489.000,544.000,316.000,665.000,0.000,0.000,0
2026-01-31 15:44:55,220494,1533.000,4203.000,6166.000,-721.000,358.000,808.000,0.000,0.000,0
2026-01-31 15:44:55,220534,4268.000,5480.000,6549.000,709.000,1348.000,-68.000,0.000,0.000,0
2026-01-31 15:44:55,220574,171.000,4559.000,5807.000,2180.000,2015.000,-250.000,0.000,0.000,0
2026-01-31 15:44:55,220614,-287.000,7395.000,6348.000,1165.000,262.000,60.000,0.000,0.000,0
2026-01-31 15:44:55,220654,2469.000,5396.000,6084.000,-1452.000,-762.000,-35.000,0.000,0.000,0
2026-01-31 15:44:55,220694,141.000,5325.000,5199.000,-384.000,-1103.000,-420.000,0.000,0.000,0
2026-01-31 15:44:56,220734,1548.000,7385.000,6703.000,-1171.000,-1723.000,-549.000,0.000,0.000,0
2026-01-31 15:44:56,220774,2482.000,3001.000,5269.000,-1778.000,-304.000,-611.000,0.000,0.000,0
2026-01-31 15:44:56,220814,1881.000,7247.000,6166.000,1970.000,149.000,-308.000,0.000,0.000,0
2026-01-31 15:44:56,220854,37.000,4373.000,6514.000,136.000,144.000,500.000,0.000,0.000,0
2026-01-31 15:44:56,220894,796.000,3762.000,5643.000,-1355.000,-661.000,240.000,0.000,0.000,0
2026-01-31 15:44:56,220934,1496.000,5768.000,6711.000,-109.000,-969.000,-211.000,0.000,0.000,0
2026-01-31 15:44:56,220975,4108.000,5415.000,5694.000,-928.000,-751.000,-906.000,0.000,0.000,0
2026-01-31 15:44:56,221014,1637.000,4549.000,6841.000,1303.000,26.000,-398.000,0.000,0.000,0
2026-01-31 15:44:56,221054,1161.000,4366.000,6661.000,359.000,381.000,266.000,0.000,0.000,0
2026-01-31 15:44:56,221094,2555.000,5751.000,6855.000,762.000,222.000,703.000,0.000,0.000,0
2026-01-31 15:44:56,221134,1152.000,4109.000,5501.000,-343.000,567.000,133.000,0.000,0.000,0
2026-01-31 15:44:56,221177,2670.000,5313.000,5586.000,-905.000,154.000,-376.000,0.000,0.000,0
2026-01-31 15:44:56,221214,2498.000,4164.000,4771.000,-225.000,293.000,-234.000,0.000,0.000,0
2026-01-31 15:44:56,221254,1826.000,7841.000,6744.000,1799.000,631.000,-395.000,0.000,0.000,0
2026-01-31 15:44:56,221294,-424.000,6761.000,6548.000,558.000,296.000,352.000,0.000,0.000,0
2026-01-31 15:44:56,221334,1097.000,4589.000,5470.000,-905.000,-471.000,50.000,0.000,0.000,0
2026-01-31 15:44:56,221374,1470.000,7241.000,6718.000,-403.000,-728.000,-103.000,0.000,0.000,0
2026-01-31 15:44:56,221414,695.000,2670.000,5086.000,-2329.000,-559.000,321.000,0.000,0.000,0
2026-01-31 15:44:56,221454,1416.000,6813.000,6722.000,-702.000,-688.000,423.000,0.000,0.000,0
2026-01-31 15:44:56,221494,2246.000,3070.000,5896.000,-1579.000,-160.000,1068.000,0.000,0.000,0
2026-01-31 15:44:56,221534,1982.000,4897.000,6251.000,-294.000,511.000,664.000,0.000,0.000,0
2026-01-31 15:44:56,221574,2323.000,5876.000,6170.000,197.000,-76.000,1127.000,0.000,0.000,0
2026-01-31 15:44:56,221614,3595.000,3449.000,5977.000,-1324.000,-165.000,1207.000,0.000,0.000,0
2026-01-31 15:44:56,221654,2533.000,4187.000,5769.000,555.000,-21.000,642.000,0.000,0.000,0
2026-01-31 15:44:56,221694,2572.000,6148.000,7177.000,1615.000,43.000,493.000,0.000,0.000,0
2026-01-31 15:44:57,221734,1579.000,4042.000,5787.000,-53.000,430.000,410.000,0.000,0.000,0
2026-01-31 15:44:57,221774,2379.000,5624.000,5890.000,812.000,642.000,74.000,0.000,0.000,0
2026-01-31 15:44:57,221814,2858.000,5578.000,6124.000,1229.000,953.000,-277.000,0.000,0.000,0
2026-01-31 15:44:57,221854,177.000,5786.000,6369.000,910.000,526.000,479.000,0.000,0.000,0
2026-01-31 15:44:57,221894,2402.000,4408.000,6127.000,-1221.000,541.000,106.000,0.000,0.000,0
2026-01-31 15:44:57,221934,2121.000,7442.000,6916.000,1087.000,284.000,-514.000,0.000,0.000,0
2026-01-31 15:44:57,221974,-1224.000,4984.000,6799.000,-1972.000,94.000,201.000,0.000,0.000,0
2026-01-31 15:44:57,222014,2550.000,4673.000,5227.000,-3462.000,-98.000,-154.000,0.000,0.000,0
2026-01-31 15:44:57,222054,2323.000,5828.000,5380.000,-650.000,-82.000,-817.000,0.000,0.000,0
2026-01-31 15:44:57,222094,2313.000,5315.000,6567.000,-187.000,-280.000,-705.000,0.000,0.000,0
2026-01-31 15:44:57,222134,1859.000,4733.000,5584.000,578.000,203.000,-878.000,0.000,0.000,0
2026-01-31 15:44:57,222174,988.000,5189.000,6679.000,812.000,327.000,-574.000,0.000,0.000,0
2026-01-31 15:44:57,222214,3577.000,5495.000,6949.000,-1132.000,569.000,-402.000,0.000,0.000,0
2026-01-31 15:44:57,222254,-149.000,2864.000,4829.000,168.000,1893.000,-937.000,0.000,0.000,0
2026-01-31 15:44:57,222294,3613.000,8066.000,6669.000,690.000,1657.000,-1494.000,0.000,0.000,0
2026-01-31 15:44:57,222334,1447.000,5266.000,7224.000,1735.000,2351.000,-1751.000,0.000,0.000,0
2026-01-31 15:44:57,222374,-1035.000,4863.000,6435.000,-103.000,2395.000,-3348.000,0.000,0.000,0
2026-01-31 15:44:57,222414,21.000,5202.000,4100.000,1586.000,1080.000,-1960.000,0.000,0.000,0
2026-01-31 15:44:57,222454,-866.000,3498.000,4692.000,558.000,327.000,-636.000,0.000,0.000,0
2026-01-31 15:44:57,222494,-2212.000,8723.000,7893.000,1612.000,856.000,881.000,0.000,0.000,0
2026-01-31 15:44:57,222534,1488.000,6062.000,6287.000,-2637.000,-230.000,1429.000,0.000,0.000,0
2026-01-31 15:44:57,222574,-429.000,4143.000,7159.000,-1119.000,337.000,389.000,0.000,0.000,0
2026-01-31 15:44:57,222614,-835.000,5079.000,6773.000,-446.000,-44.000,129.000,0.000,0.000,0
2026-01-31 15:44:57,222654,1263.000,4267.000,5391.000,-1241.000,-720.000,31.000,0.000,0.000,0
2026-01-31 15:44:57,222694,-502.000,7215.000,6057.000,1066.000,-254.000,-317.000,0.000,0.000,0
2026-01-31 15:44:58,222734,485.000,4879.000,5420.000,-763.000,-484.000,-72.000,0.000,0.000,0
2026-01-31 15:44:58,222774,1394.000,5021.000,5500.000,-433.000,223.000,-174.000,0.000,0.000,0
2026-01-31 15:44:58,222814,145.000,4324.000,5070.000,-273.000,990.000,-163.000,0.000,0.000,0
2026-01-31 15:44:58,222854,-432.000,5218.000,6277.000,-1317.000,888.000,-416.000,0.000,0.000,0
2026-01-31 15:44:58,222894,-801.000,5571.000,5785.000,-440.000,477.000,-454.000,0.000,0.000,0
2026-01-31 15:44:58,222937,416.000,5587.000,6204.000,-191.000,748.000,-1975.000,0.000,0.000,0
2026-01-31 15:44:58,222976,-1393.000,4025.000,5517.000,310.000,1016.000,-2523.000,0.000,0.000,0
2026-01-31 15:44:58,223017,-101.000,6511.000,5488.000,388.000,688.000,-1752.000,0.000,0.000,0
2026-01-31 15:44:58,223054,327.000,6329.000,6870.000,-512.000,880.000,-1534.000,0.000,0.000,0
2026-01-31 15:44:58,223094,-1969.000,2604.000,5586.000,1050.000,1101.000,-1153.000,0.000,0.000,0
2026-01-31 15:44:58,223134,-2326.000,6798.000,7247.000,2456.000,27.000,-968.000,0.000,0.000,0
2026-01-31 15:44:58,223177,-4834.000,-1900.000,3301.000,695.000,686.000,-1477.000,0.000,0.000,0
2026-01-31 15:44:58,223216,-746.000,9997.000,4593.000,2120.000,-1218.000,-364.000,0.000,0.000,0
2026-01-31 15:44:58,223254,-3932.000,1712.000,5824.000,-1420.000,-952.000,501.000,0.000,0.000,0
2026-01-31 15:44:58,223294,927.000,5551.000,5956.000,653.000,-1206.000,-125.000,0.000,0.000,0
2026-01-31 15:44:58,223334,-1480.000,5057.000,6147.000,1439.000,-705.000,567.000,0.000,0.000,0
2026-01-31 15:44:58,223374,-1771.000,5668.000,6724.000,738.000,-314.000,138.000,0.000,0.000,0
2026-01-31 15:44:58,223414,2910.000,4803.000,4878.000,90.000,-1094.000,1183.000,0.000,0.000,0
2026-01-31 15:44:58,223454,-1448.000,8291.000,5254.000,4165.000,148.000,-378.000,0.000,0.000,0
2026-01-31 15:44:58,223494,-2179.000,6877.000,5390.000,2475.000,-323.000,-765.000,0.000,0.000,0
2026-01-31 15:44:58,223534,-443.000,4026.000,5565.000,3266.000,-1853.000,120.000,0.000,0.000,0
2026-01-31 15:44:58,223574,-312.000,5615.000,5635.000,449.000,-860.000,-500.000,0.000,0.000,0
2026-01-31 15:44:58,223614,-993.000,5877.000,5824.000,2098.000,-824.000,728.000,0.000,0.000,0
2026-01-31 15:44:58,223654,204.000,6980.000,5017.000,193.000,-1037.000,759.000,0.000,0.000,0
2026-01-31 15:44:58,223694,273.000,6949.000,5530.000,370.000,-596.000,911.000,0.000,0.000,0
2026-01-31 15:44:59,223734,-605.000,3468.000,4883.000,-1316.000,-366.000,1271.000,0.000,0.000,0
2026-01-31 15:44:59,223774,885.000,8888.000,6069.000,669.000,-695.000,1833.000,0.000,0.000,0
2026-01-31 15:44:59,223814,2669.000,3611.000,5039.000,-3335.000,-125.000,1406.000,0.000,0.000,0
2026-01-31 15:44:59,223854,-1522.000,5099.000,4892.000,2171.000,1469.000,275.000,0.000,0.000,0
2026-01-31 15:44:59,223894,2254.000,9179.000,6173.000,69.000,391.000,329.000,0.000,0.000,0
2026-01-31 15:44:59,223934,2867.000,9823.000,6400.000,893.000,1676.000,914.000,0.000,0.000,0
2026-01-31 15:44:59,223974,266.000,4539.000,5141.000,857.000,1806.000,79.000,0.000,0.000,0
2026-01-31 15:44:59,224014,49.000,7778.000,5573.000,2241.000,1195.000,-359.000,0.000,0.000,0
2026-01-31 15:44:59,224054,2012.000,5872.000,6499.000,665.000,575.000,239.000,0.000,0.000,0
2026-01-31 15:44:59,224094,-757.000,5824.000,5846.000,2084.000,2515.000,-699.000,0.000,0.000,0
2026-01-31 15:44:59,224134,-108.000,7714.000,3860.000,2260.000,1890.000,-138.000,0.000,0.000,0
2026-01-31 15:44:59,224174,-416.000,6820.000,6557.000,439.000,1146.000,848.000,0.000,0.000,0
2026-01-31 15:44:59,224214,1947.000,6233.000,5843.000,-898.000,1640.000,952.000,0.000,0.000,0
2026-01-31 15:44:59,224254,288.000,5861.000,4277.000,1321.000,3283.000,854.000,0.000,0.000,0
2026-01-31 15:44:59,224294,2425.000,12505.000,7775.000,1453.000,2365.000,581.000,0.000,0.000,0
2026-01-31 15:44:59,224334,-2549.000,4870.000,4785.000,2862.000,3670.000,-96.000,0.000,0.000,0
2026-01-31 15:44:59,224374,-2575.000,6514.000,4826.000,494.000,1691.000,407.000,0.000,0.000,0
2026-01-31 15:44:59,224414,-202.000,9455.000,7433.000,-1190.000,781.000,457.000,0.000,0.000,0
2026-01-31 15:44:59,224454,363.000,5457.000,4875.000,-3503.000,791.000,1417.000,0.000,0.000,0
2026-01-31 15:44:59,224494,537.000,6497.000,5791.000,-3075.000,1153.000,387.000,0.000,0.000,0
2026-01-31 15:44:59,224534,1212.000,9659.000,5045.000,-260.000,1024.000,354.000,0.000,0.000,0
2026-01-31 15:44:59,224574,-936.000,4071.000,3999.000,-1769.000,1019.000,275.000,0.000,0.000,0
2026-01-31 15:44:59,224614,-4441.000,7794.000,5828.000,-594.000,833.000,744.000,0.000,0.000,0
2026-01-31 15:44:59,224654,-2717.000,6354.000,3810.000,-4514.000,-529.000,1861.000,0.000,0.000,0
2026-01-31 15:44:59,224694,2009.000,8412.000,4963.000,-4295.000,-1178.000,1406.000,0.000,0.000,0
2026-01-31 15:45:00,224734,-2119.000,4160.000,3596.000,-530.000,289.000,430.000,0.000,0.000,0
2026-01-31 15:45:00,224774,957.000,9198.000,5588.000,-2576.000,-1580.000,494.000,0.000,0.000,0
2026-01-31 15:45:00,224814,-268.000,4176.000,5382.000,-2895.000,-1574.000,2333.000,0.000,0.000,0
2026-01-31 15:45:00,224854,-692.000,5685.000,5508.000,-1510.000,-1431.000,990.000,0.000,0.000,0
2026-01-31 15:45:00,224894,-488.000,4716.000,4875.000,-1055.000,-1581.000,1346.000,0.000,0.000,0
2026-01-31 15:45:00,224934,-661.000,6682.000,5845.000,-766.000,-2373.000,1306.000,0.000,0.000,0
2026-01-31 15:45:00,224974,3970.000,7348.000,5342.000,-2576.000,-2690.000,1247.000,0.000,0.000,0
2026-01-31 15:45:00,225014,-952.000,3441.000,6481.000,51.000,-1571.000,955.000,0.000,0.000,0
2026-01-31 15:45:00,225054,-934.000,6044.000,5627.000,-1900.000,-2644.000,2135.000,0.000,0.000,0
2026-01-31 15:45:00,225094,2860.000,-9288.000,-1454.000,-6611.000,-1707.000,2974.000,0.000,0.000,0
2026-01-31 15:45:00,225134,2630.000,15500.000,12533.000,6135.000,-1733.000,-986.000,0.000,0.000,0
2026-01-31 15:45:00,225174,1050.000,-2402.000,1071.000,-7747.000,-3091.000,3698.000,0.000,0.000,0
2026-01-31 15:45:00,225214,3631.000,9602.000,11274.000,4362.000,-878.000,1517.000,0.000,0.000,0
2026-01-31 15:45:00,225254,3506.000,611.000,3474.000,-2995.000,-2076.000,2230.000,0.000,0.000,0
2026-01-31 15:45:00,225294,-2820.000,8082.000,10262.000,1695.000,-1794.000,2191.000,0.000,0.000,0
2026-01-31 15:45:00,225334,6789.000,6138.000,2885.000,-4641.000,-3248.000,1715.000,0.000,0.000,0
2026-01-31 15:45:00,225374,1579.000,3775.000,6349.000,215.000,-1335.000,1414.000,0.000,0.000,0
2026-01-31 15:45:00,225414,3055.000,6179.000,5050.000,-3982.000,-2801.000,1056.000,0.000,0.000,0
2026-01-31 15:45:00,225454,3865.000,4135.000,5278.000,-3639.000,-1561.000,1140.000,0.000,0.000,0
2026-01-31 15:45:00,225494,3639.000,2951.000,6832.000,134.000,1055.000,-800.000,0.000,0.000,0
2026-01-31 15:45:00,225534,3178.000,4329.000,6855.000,40.000,871.000,-654.000,0.000,0.000,0
2026-01-31 15:45:00,225574,3102.000,5708.000,7199.000,292.000,500.000,-925.000,0.000,0.000,0
2026-01-31 15:45:00,225614,3763.000,3951.000,6242.000,12.000,296.000,-856.000,0.000,0.000,0
2026-01-31 15:45:00,225654,1502.000,4630.000,5906.000,-393.000,-19.000,-350.000,0.000,0.000,0
2026-01-31 15:45:00,225694,3876.000,4114.000,5780.000,-1173.000,-474.000,-532.000,0.000,0.000,0
2026-01-31 15:45:01,225734,4180.000,3830.000,6342.000,-343.000,202.000,-1128.000,0.000,0.000,0
2026-01-31 15:45:01,225774,2533.000,5468.000,6461.000,694.000,3.000,-1264.000,0.000,0.000,0
2026-01-31 15:45:01,225814,1360.000,6023.000,7305.000,-625.000,-627.000,-1299.000,0.000,0.000,0
2026-01-31 15:45:01,225854,4199.000,4199.000,5314.000,-2530.000,-707.000,-2248.000,0.000,0.000,0
2026-01-31 15:45:01,225894,1828.000,6045.000,6527.000,-1070.000,-956.000,-2582.000,0.000,0.000,0
2026-01-31 15:45:01,225934,2244.000,3936.000,5053.000,-2342.000,-504.000,-2863.000,0.000,0.000,0
2026-01-31 15:45:01,225974,2945.000,6171.000,6833.000,-230.000,205.000,-2566.000,0.000,0.000,0
2026-01-31 15:45:01,226014,4681.000,3896.000,6174.000,-1334.000,359.000,-2092.000,0.000,0.000,0
2026-01-31 15:45:01,226054,3173.000,4211.000,6620.000,857.000,1039.000,-2309.000,0.000,0.000,0
2026-01-31 15:45:01,226094,4200.000,4208.000,7163.000,377.000,420.000,-2586.000,0.000,0.000,0
2026-01-31 15:45:01,226134,2243.000,3773.000,7234.000,-696.000,757.000,-2958.000,0.000,0.000,0
2026-01-31 15:45:01,226174,-32.000,4295.000,5299.000,1038.000,455.000,-2524.000,0.000,0.000,0
2026-01-31 15:45:01,226214,1790.000,5958.000,5774.000,-310.000,-160.000,-2023.000,0.000,0.000,0
2026-01-31 15:45:01,226254,1279.000,5361.000,5197.000,2185.000,-295.000,-1140.000,0.000,0.000,0
2026-01-31 15:45:01,226294,1669.000,6065.000,6773.000,3216.000,-520.000,-1113.000,0.000,0.000,0
2026-01-31 15:45:01,226334,767.000,5383.000,7181.000,2356.000,240.000,-75.000,0.000,0.000,0
2026-01-31 15:45:01,226374,706.000,4765.000,6398.000,-617.000,-497.000,-59.000,0.000,0.000,0
2026-01-31 15:45:01,226414,1546.000,4255.000,6053.000,1329.000,-1114.000,14.000,0.000,0.000,0
2026-01-31 15:45:01,226454,2156.000,6778.000,7169.000,774.000,-1147.000,121.000,0.000,0.000,0
2026-01-31 15:45:01,226494,941.000,4121.000,6354.000,-2108.000,-1653.000,1061.000,0.000,0.000,0
2026-01-31 15:45:01,226534,4534.000,4968.000,4980.000,-2211.000,-1756.000,255.000,0.000,0.000,0
2026-01-31 15:45:01,226574,1737.000,4286.000,6388.000,132.000,-1166.000,-293.000,0.000,0.000,0
2026-01-31 15:45:01,226614,1074.000,3267.000,5067.000,-252.000,32.000,-451.000,0.000,0.000,0
2026-01-31 15:45:01,226654,3316.000,5985.000,5974.000,1893.000,453.000,-1268.000,0.000,0.000,0
2026-01-31 15:45:01,226694,2750.000,4658.000,6001.000,2176.000,1113.000,-1515.000,0.000,0.000,0
2026-01-31 15:45:02,226734,1271.000,3879.000,5641.000,2510.000,1136.000,-1022.000,0.000,0.000,0
2026-01-31 15:45:02,226774,2385.000,6492.000,6861.000,2999.000,384.000,-1149.000,0.000,0.000,0
2026-01-31 15:45:02,226814,1976.000,4511.000,6706.000,799.000,-132.000,-1202.000,0.000,0.000,0
2026-01-31 15:45:02,226854,1640.000,4187.000,5103.000,1487.000,-415.000,-1015.000,0.000,0.000,0
2026-01-31 15:45:02,226897,2114.000,5620.000,6267.000,1353.000,-282.000,-932.000,0.000,0.000,0
2026-01-31 15:45:02,226937,1895.000,6579.000,6762.000,1760.000,-209.000,-390.000,0.000,0.000,0
2026-01-31 15:45:02,226974,3252.000,6385.000,5909.000,1549.000,-278.000,-343.000,0.000,0.000,0
2026-01-31 15:45:02,227014,1056.000,7929.000,6639.000,1493.000,-524.000,104.000,0.000,0.000,0
2026-01-31 15:45:02,227054,1442.000,5732.000,5029.000,-1530.000,-635.000,552.000,0.000,0.000,0
2026-01-31 15:45:02,227094,1964.000,6340.000,7094.000,455.000,-320.000,-90.000,0.000,0.000,0
2026-01-31 15:45:02,227134,-20.000,5225.000,5370.000,-186.000,-397.000,426.000,0.000,0.000,0
2026-01-31 15:45:02,227174,3213.000,6506.000,6496.000,-937.000,-1179.000,1146.000,0.000,0.000,0
2026-01-31 15:45:02,227214,3872.000,4503.000,5951.000,-439.000,-488.000,961.000,0.000,0.000,0
2026-01-31 15:45:02,227254,1864.000,4514.000,5678.000,885.000,280.000,598.000,0.000,0.000,0
2026-01-31 15:45:02,227294,2305.000,5974.000,5400.000,1410.000,356.000,406.000,0.000,0.000,0
2026-01-31 15:45:02,227334,3252.000,5389.000,6602.000,1346.000,483.000,392.000,0.000,0.000,0
2026-01-31 15:45:02,227374,277.000,4646.000,5956.000,2212.000,938.000,394.000,0.000,0.000,0
2026-01-31 15:45:02,227414,1141.000,8927.000,6364.000,1274.000,757.000,-40.000,0.000,0.000,0
2026-01-31 15:45:02,227454,1271.000,5739.000,6171.000,-904.000,181.000,472.000,0.000,0.000,0
2026-01-31 15:45:02,227494,2034.000,5099.000,4912.000,-439.000,518.000,16.000,0.000,0.000,0
2026-01-31 15:45:02,227534,1807.000,5279.000,6923.000,46.000,765.000,323.000,0.000,0.000,0
2026-01-31 15:45:02,227574,2362.000,6531.000,4655.000,334.000,1065.000,121.000,0.000,0.000,0
2026-01-31 15:45:02,227614,232.000,4540.000,6097.000,-1205.000,294.000,880.000,0.000,0.000,0
2026-01-31 15:45:02,227654,1626.000,7177.000,5381.000,-521.000,368.000,552.000,0.000,0.000,0
2026-01-31 15:45:02,227694,759.000,4207.000,5692.000,-2254.000,-24.000,1498.000,0.000,0.000,0
2026-01-31 15:45:03,227734,4263.000,6095.000,5601.000,-1242.000,-88.000,1255.000,0.000,0.000,0
2026-01-31 15:45:03,227774,3095.000,5832.000,5167.000,194.000,184.000,621.000,0.000,0.000,0
2026-01-31 15:45:03,227814,2370.000,4881.000,6114.000,196.000,-190.000,767.000,0.000,0.000,0
2026-01-31 15:45:03,227854,1601.000,5061.000,5854.000,-706.000,-547.000,1169.000,0.000,0.000,0
2026-01-31 15:45:03,227894,3580.000,4400.000,5531.000,-879.000,-464.000,812.000,0.000,0.000,0
2026-01-31 15:45:03,227934,2329.000,4866.000,6033.000,322.000,336.000,281.000,0.000,0.000,0
2026-01-31 15:45:03,227974,3538.000,5637.000,6668.000,719.000,424.000,495.000,0.000,0.000,0
2026-01-31 15:45:03,228014,3268.000,4796.000,6333.000,1022.000,723.000,410.000,0.000,0.000,0
2026-01-31 15:45:03,228054,1413.000,4278.000,5545.000,313.000,-107.000,996.000,0.000,0.000,0
2026-01-31 15:45:03,228094,3127.000,6886.000,6723.000,421.000,-493.000,1165.000,0.000,0.000,0
2026-01-31 15:45:03,228134,1707.000,6112.000,6183.000,-943.000,21.000,904.000,0.000,0.000,0
2026-01-31 15:45:03,228174,2778.000,5093.000,6516.000,-697.000,235.000,398.000,0.000,0.000,0
2026-01-31 15:45:03,228214,3622.000,4848.000,5636.000,-135.000,268.000,-64.000,0.000,0.000,0
2026-01-31 15:45:03,228254,3544.000,5321.000,5782.000,970.000,137.000,-151.000,0.000,0.000,0
2026-01-31 15:45:03,228294,2044.000,5011.000,6029.000,-222.000,-291.000,353.000,0.000,0.000,0
2026-01-31 15:45:03,228334,2674.000,5158.000,5687.000,-237.000,-326.000,253.000,0.000,0.000,0
2026-01-31 15:45:03,228374,2417.000,4902.000,5601.000,226.000,77.000,-34.000,0.000,0.000,0
2026-01-31 15:45:03,228414,3000.000,5409.000,6076.000,402.000,554.000,-162.000,0.000,0.000,0
2026-01-31 15:45:03,228454,3453.000,5936.000,6016.000,715.000,693.000,-19.000,0.000,0.000,0
2026-01-31 15:45:03,228494,6073.000,6291.000,5986.000,216.000,506.000,-548.000,0.000,0.000,0
2026-01-31 15:45:03,228534,1090.000,12557.000,9312.000,1333.000,-1711.000,1095.000,0.000,0.000,0
2026-01-31 15:45:03,228574,4160.000,-2345.000,2276.000,-7017.000,-276.000,269.000,0.000,0.000,0
2026-01-31 15:45:03,228614,3938.000,11233.000,7576.000,5714.000,16.000,-1039.000,0.000,0.000,0
2026-01-31 15:45:03,228654,1757.000,-101.000,4029.000,-2823.000,676.000,71.000,0.000,0.000,0
2026-01-31 15:45:03,228694,713.000,8351.000,7504.000,3788.000,542.000,346.000,0.000,0.000,0
2026-01-31 15:45:04,228734,6889.000,1494.000,3852.000,-4073.000,-683.000,175.000,0.000,0.000,0
2026-01-31 15:45:04,228774,227.000,7357.000,7838.000,4110.000,450.000,-242.000,0.000,0.000,0
2026-01-31 15:45:04,228814,4587.000,3846.000,5236.000,-3558.000,-816.000,384.000,0.000,0.000,0
2026-01-31 15:45:04,228854,3269.000,3944.000,5999.000,1905.000,484.000,-348.000,0.000,0.000,0
2026-01-31 15:45:04,228894,3485.000,3461.000,5463.000,632.000,383.000,-68.000,0.000,0.000,0
2026-01-31 15:45:04,228937,3964.000,7149.000,5403.000,-500.000,-473.000,-54.000,0.000,0.000,0
2026-01-31 15:45:04,228976,2578.000,4127.000,5214.000,99.000,278.000,-373.000,0.000,0.000,0
2026-01-31 15:45:04,229014,2878.000,5487.000,5076.000,1690.000,609.000,-628.000,0.000,0.000,0
2026-01-31 15:45:04,229054,3132.000,6055.000,5839.000,2449.000,940.000,-642.000,0.000,0.000,0
2026-01-31 15:45:04,229094,2789.000,5552.000,5681.000,959.000,1299.000,-327.000,0.000,0.000,0
2026-01-31 15:45:04,229134,868.000,7784.000,6209.000,1377.000,83.000,551.000,0.000,0.000,0
2026-01-31 15:45:04,229177,2236.000,3299.000,5068.000,-2240.000,-805.000,320.000,0.000,0.000,0
2026-01-31 15:45:04,229214,2332.000,5995.000,5651.000,-28.000,-478.000,-176.000,0.000,0.000,0
2026-01-31 15:45:04,229254,3154.000,3704.000,4665.000,-886.000,15.000,-250.000,0.000,0.000,0
2026-01-31 15:45:04,229294,2128.000,6706.000,6182.000,1337.000,935.000,37.000,0.000,0.000,0
2026-01-31 15:45:04,229334,4097.000,5057.000,6137.000,-159.000,470.000,301.000,0.000,0.000,0
2026-01-31 15:45:04,229374,915.000,5315.000,6116.000,326.000,240.000,12.000,0.000,0.000,0
2026-01-31 15:45:04,229414,3707.000,6208.000,6019.000,-1900.000,-765.000,338.000,0.000,0.000,0
2026-01-31 15:45:04,229454,5608.000,7362.000,6624.000,-1416.000,-59.000,310.000,0.000,0.000,0
2026-01-31 15:45:04,229494,-1240.000,-955.000,4237.000,-614.000,705.000,709.000,0.000,0.000,0
2026-01-31 15:45:04,229534,4352.000,8031.000,2924.000,2748.000,-530.000,-768.000,0.000,0.000,0
2026-01-31 15:45:04,229574,5483.000,9725.000,7355.000,2239.000,570.000,-1609.000,0.000,0.000,0
2026-01-31 15:45:04,229614,4247.000,-3486.000,5661.000,-4796.000,385.000,1963.000,0.000,0.000,0
2026-01-31 15:45:04,229654,1463.000,7475.000,4065.000,7038.000,832.000,-1988.000,0.000,0.000,0
2026-01-31 15:45:04,229694,8123.000,11729.000,4594.000,1397.000,-308.000,-2331.000,0.000,0.000,0
2026-01-31 15:45:05,229734,3680.000,-2025.000,4980.000,-3042.000,757.000,-274.000,0.000,0.000,0
2026-01-31 15:45:05,229774,1077.000,6768.000,8636.000,4666.000,-1017.000,1883.000,0.000,0.000,0
2026-01-31 15:45:05,229814,-1250.000,3300.000,8288.000,-3388.000,-894.000,2576.000,0.000,0.000,0
2026-01-31 15:45:05,229854,4785.000,6706.000,6656.000,-189.000,658.000,358.000,0.000,0.000,0
2026-01-31 15:45:05,229894,2039.000,-541.000,3140.000,-2235.000,247.000,1504.000,0.000,0.000,0
2026-01-31 15:45:05,229934,-164.000,6992.000,4825.000,898.000,15.000,1267.000,0.000,0.000,0
2026-01-31 15:45:05,229974,8112.000,10151.000,5509.000,-1201.000,-99.000,1085.000,0.000,0.000,0
2026-01-31 15:45:05,230014,6080.000,-2466.000,6802.000,-1481.000,1895.000,1500.000,0.000,0.000,0
2026-01-31 15:45:05,230054,-890.000,9060.000,5156.000,-1350.000,-800.000,1278.000,0.000,0.000,0
2026-01-31 15:45:05,230094,9318.000,3959.000,4658.000,-5104.000,-867.000,1425.000,0.000,0.000,0
2026-01-31 15:45:05,230134,1478.000,5054.000,12299.000,609.000,1697.000,2098.000,0.000,0.000,0
2026-01-31 15:45:05,230174,-1047.000,-435.000,3875.000,-1790.000,2252.000,2361.000,0.000,0.000,0
2026-01-31 15:45:05,230214,3761.000,13642.000,10570.000,4429.000,387.000,255.000,0.000,0.000,0
2026-01-31 15:45:05,230254,7666.000,-775.000,3362.000,-4891.000,919.000,755.000,0.000,0.000,0
2026-01-31 15:45:05,230294,3427.000,7731.000,6505.000,4563.000,1160.000,-925.000,0.000,0.000,0
2026-01-31 15:45:05,230334,-12549.000,-1292.000,763.000,-4437.000,-1597.000,2903.000,0.000,0.000,0
2026-01-31 15:45:05,230374,9238.000,7737.000,1671.000,2255.000,1261.000,-4762.000,0.000,0.000,0
2026-01-31 15:45:05,230414,2857.000,4759.000,3422.000,-1381.000,126.000,-1693.000,0.000,0.000,0
2026-01-31 15:45:05,230454,2254.000,2596.000,8752.000,-414.000,849.000,-1699.000,0.000,0.000,0
2026-01-31 15:45:05,230494,265.000,6907.000,5738.000,-859.000,242.000,-960.000,0.000,0.000,0
2026-01-31 15:45:05,230534,6637.000,6219.000,4133.000,-860.000,-1488.000,-1503.000,0.000,0.000,0
2026-01-31 15:45:05,230574,-6489.000,3912.000,6157.000,-693.000,-636.000,-1361.000,0.000,0.000,0
2026-01-31 15:45:05,230614,5384.000,7447.000,5680.000,-3626.000,-2255.000,-1798.000,0.000,0.000,0
2026-01-31 15:45:05,230654,3349.000,1097.000,4819.000,126.000,494.000,-1782.000,0.000,0.000,0
2026-01-31 15:45:05,230694,2359.000,7470.000,7383.000,4516.000,1802.000,-1603.000,0.000,0.000,0
2026-01-31 15:45:06,230734,4477.000,4309.000,5945.000,1028.000,1501.000,-798.000,0.000,0.000,0
2026-01-31 15:45:06,230774,1402.000,5500.000,6073.000,2301.000,481.000,-874.000,0.000,0.000,0
2026-01-31 15:45:06,230814,1957.000,7334.000,6124.000,431.000,-674.000,-326.000,0.000,0.000,0
2026-01-31 15:45:06,230854,1523.000,5294.000,5599.000,-1684.000,-924.000,177.000,0.000,0.000,0
2026-01-31 15:45:06,230894,2141.000,4562.000,5017.000,-243.000,-53.000,-331.000,0.000,0.000,0
2026-01-31 15:45:06,230934,2081.000,5757.000,6688.000,2073.000,818.000,-928.000,0.000,0.000,0
2026-01-31 15:45:06,230974,1591.000,4080.000,5894.000,704.000,1365.000,-824.000,0.000,0.000,0
2026-01-31 15:45:06,231014,1529.000,6251.000,5009.000,2745.000,1797.000,-1435.000,0.000,0.000,0
2026-01-31 15:45:06,231054,-1205.000,6089.000,7562.000,791.000,989.000,-762.000,0.000,0.000,0
2026-01-31 15:45:06,231094,863.000,7203.000,5797.000,-994.000,-5.000,-534.000,0.000,0.000,0
2026-01-31 15:45:06,231134,1598.000,4185.000,5734.000,-3313.000,-1058.000,179.000,0.000,0.000,0
2026-01-31 15:45:06,231177,1308.000,4285.000,6063.000,-1100.000,-1552.000,320.000,0.000,0.000,0
2026-01-31 15:45:06,231214,444.000,6549.000,7878.000,-326.000,-1851.000,592.000,0.000,0.000,0
2026-01-31 15:45:06,231254,2832.000,4047.000,7885.000,-3315.000,-2150.000,1437.000,0.000,0.000,0
2026-01-31 15:45:06,231294,1327.000,5472.000,6733.000,-1523.000,-1750.000,1387.000,0.000,0.000,0
2026-01-31 15:45:06,231334,2773.000,6278.000,4440.000,-3357.000,-2377.000,1929.000,0.000,0.000,0
2026-01-31 15:45:06,231374,3791.000,4307.000,4492.000,-3032.000,-1521.000,988.000,0.000,0.000,0
2026-01-31 15:45:06,231414,2219.000,3322.000,4950.000,-367.000,104.000,142.000,0.000,0.000,0
2026-01-31 15:45:06,231454,1761.000,5609.000,6148.000,2081.000,546.000,616.000,0.000,0.000,0
2026-01-31 15:45:06,231494,2729.000,4882.000,6153.000,959.000,1153.000,-104.000,0.000,0.000,0
2026-01-31 15:45:06,231534,2587.000,5286.000,6513.000,1724.000,844.000,-1063.000,0.000,0.000,0
2026-01-31 15:45:06,231574,569.000,5493.000,6723.000,1017.000,-530.000,-982.000,0.000,0.000,0
2026-01-31 15:45:06,231614,3807.000,5639.000,5926.000,-881.000,-1496.000,-1028.000,0.000,0.000,0
2026-01-31 15:45:06,231654,2815.000,3673.000,5780.000,604.000,-731.000,-1286.000,0.000,0.000,0
2026-01-31 15:45:06,231694,735.000,6685.000,6765.000,1816.000,-958.000,-1163.000,0.000,0.000,0
2026-01-31 15:45:07,231734,1970.000,3859.000,4930.000,-402.000,-946.000,-1246.000,0.000,0.000,0
2026-01-31 15:45:07,231774,1580.000,6226.000,6454.000,1156.000,-772.000,-1257.000,0.000,0.000,0
2026-01-31 15:45:07,231814,2704.000,3806.000,5011.000,-185.000,-348.000,-1132.000,0.000,0.000,0
2026-01-31 15:45:07,231854,2798.000,7112.000,6327.000,2439.000,-430.000,-1231.000,0.000,0.000,0
2026-01-31 15:45:07,231894,3644.000,3461.000,5368.000,200.000,-636.000,-564.000,0.000,0.000,0
2026-01-31 15:45:07,231934,3402.000,3716.000,6706.000,1842.000,-300.000,-217.000,0.000,0.000,0
2026-01-31 15:45:07,231974,3515.000,4754.000,6198.000,2081.000,2.000,-233.000,0.000,0.000,0
2026-01-31 15:45:07,232014,1539.000,3815.000,5565.000,2162.000,71.000,67.000,0.000,0.000,0
2026-01-31 15:45:07,232054,3568.000,6718.000,5964.000,2873.000,137.000,259.000,0.000,0.000,0
2026-01-31 15:45:07,232094,3471.000,4476.000,6790.000,1043.000,673.000,485.000,0.000,0.000,0
2026-01-31 15:45:07,232134,1378.000,6644.000,6218.000,2845.000,1006.000,484.000,0.000,0.000,0
2026-01-31 15:45:07,232174,2584.000,7928.000,6376.000,988.000,343.000,615.000,0.000,0.000,0
2026-01-31 15:45:07,232214,657.000,4637.000,5955.000,-475.000,424.000,653.000,0.000,0.000,0
2026-01-31 15:45:07,232254,1579.000,6145.000,5180.000,-358.000,368.000,1036.000,0.000,0.000,0
2026-01-31 15:45:07,232294,2514.000,6580.000,6265.000,-586.000,365.000,1125.000,0.000,0.000,0
2026-01-31 15:45:07,232334,764.000,4785.000,4808.000,-1885.000,559.000,848.000,0.000,0.000,0
2026-01-31 15:45:07,232374,3820.000,5497.000,5494.000,-938.000,269.000,692.000,0.000,0.000,0
2026-01-31 15:45:07,232414,2259.000,6215.000,6270.000,814.000,641.000,1259.000,0.000,0.000,0
2026-01-31 15:45:07,232454,3868.000,4262.000,5270.000,-824.000,561.000,1106.000,0.000,0.000,0
2026-01-31 15:45:07,232494,3953.000,5576.000,5602.000,1244.000,414.000,809.000,0.000,0.000,0
2026-01-31 15:45:07,232534,3933.000,3502.000,6319.000,-251.000,428.000,1132.000,0.000,0.000,0
2026-01-31 15:45:07,232574,3465.000,4134.000,6671.000,1128.000,1160.000,1642.000,0.000,0.000,0
2026-01-31 15:45:07,232614,3475.000,6399.000,6436.000,1080.000,921.000,1458.000,0.000,0.000,0
2026-01-31 15:45:07,232654,2809.000,5014.000,6133.000,-607.000,1035.000,1350.000,0.000,0.000,0
2026-01-31 15:45:07,232694,2453.000,6130.000,5839.000,-396.000,1193.000,1493.000,0.000,0.000,0
2026-01-31 15:45:08,232734,4093.000,5659.000,6005.000,16.000,1965.000,1087.000,0.000,0.000,0
2026-01-31 15:45:08,232774,254.000,7043.000,5700.000,67.000,1368.000,1277.000,0.000,0.000,0
2026-01-31 15:45:08,232814,2773.000,6183.000,5483.000,-2903.000,226.000,1394.000,0.000,0.000,0
2026-01-31 15:45:08,232854,2714.000,5574.000,5572.000,-2273.000,318.000,1154.000,0.000,0.000,0
2026-01-31 15:45:08,232897,1858.000,5042.000,4936.000,-1998.000,347.000,650.000,0.000,0.000,0
2026-01-31 15:45:08,232937,1384.000,7195.000,5571.000,-1607.000,-85.000,698.000,0.000,0.000,0
2026-01-31 15:45:08,232974,3976.000,6918.000,5539.000,-2834.000,-468.000,480.000,0.000,0.000,0
2026-01-31 15:45:08,233014,4181.000,4182.000,4936.000,-2693.000,41.000,-181.000,0.000,0.000,0
2026-01-31 15:45:08,233054,190.000,4542.000,5454.000,-1494.000,-5.000,-800.000,0.000,0.000,0
2026-01-31 15:45:08,233094,4087.000,3497.000,5128.000,-2641.000,-553.000,-1019.000,0.000,0.000,0
2026-01-31 15:45:08,233134,2401.000,6116.000,6009.000,15.000,382.000,-1411.000,0.000,0.000,0
2026-01-31 15:45:08,233177,3508.000,5867.000,5956.000,-622.000,-164.000,-1218.000,0.000,0.000,0
2026-01-31 15:45:08,233214,2568.000,3771.000,5543.000,-1644.000,-365.000,-708.000,0.000,0.000,0
2026-01-31 15:45:08,233254,4316.000,5405.000,6020.000,-852.000,-793.000,-904.000,0.000,0.000,0
2026-01-31 15:45:08,233294,3946.000,3915.000,6213.000,-660.000,-258.000,-1151.000,0.000,0.000,0
2026-01-31 15:45:08,233334,992.000,5106.000,6841.000,-13.000,-435.000,-897.000,0.000,0.000,0
2026-01-31 15:45:08,233374,3097.000,3060.000,5502.000,-1823.000,-867.000,-468.000,0.000,0.000,0
2026-01-31 15:45:08,233414,3430.000,6536.000,6639.000,473.000,-632.000,-872.000,0.000,0.000,0
2026-01-31 15:45:08,233454,3799.000,3373.000,5935.000,-990.000,-538.000,-439.000,0.000,0.000,0
2026-01-31 15:45:08,233494,1926.000,5349.000,6554.000,-313.000,-1040.000,-433.000,0.000,0.000,0
2026-01-31 15:45:08,233534,5269.000,3611.000,5900.000,-851.000,-941.000,-741.000,0.000,0.000,0
2026-01-31 15:45:08,233574,2563.000,4475.000,6096.000,1303.000,-146.000,-1661.000,0.000,0.000,0
2026-01-31 15:45:08,233614,1765.000,6367.000,6344.000,5.000,-648.000,-1193.000,0.000,0.000,0
2026-01-31 15:45:08,233654,5056.000,4191.000,6014.000,-1845.000,-615.000,-594.000,0.000,0.000,0
2026-01-31 15:45:08,233694,1977.000,5647.000,6260.000,708.000,59.000,-875.000,0.000,0.000,0
2026-01-31 15:45:09,233734,1919.000,4380.000,5838.000,-1119.000,-245.000,-523.000,0.000,0.000,0
2026-01-31 15:45:09,233774,3484.000,4987.000,6338.000,-539.000,183.000,-574.000,0.000,0.000,0
2026-01-31 15:45:09,233814,2855.000,3880.000,5579.000,552.000,1014.000,-299.000,0.000,0.000,0
2026-01-31 15:45:09,233854,2012.000,6089.000,6438.000,1354.000,814.000,-269.000,0.000,0.000,0
2026-01-31 15:45:09,233894,3643.000,5097.000,7234.000,-889.000,-129.000,55.000,0.000,0.000,0
2026-01-31 15:45:09,233934,2021.000,4354.000,5521.000,-647.000,-757.000,126.000,0.000,0.000,0
2026-01-31 15:45:09,233974,1175.000,8809.000,6401.000,766.000,-1292.000,-1137.000,0.000,0.000,0
2026-01-31 15:45:09,234014,2925.000,3854.000,4908.000,-3594.000,-817.000,-496.000,0.000,0.000,0
2026-01-31 15:45:09,234054,2287.000,4737.000,6156.000,-930.000,-79.000,-559.000,0.000,0.000,0
2026-01-31 15:45:09,234094,3851.000,4995.000,6673.000,-195.000,148.000,-885.000,0.000,0.000,0
2026-01-31 15:45:09,234134,2388.000,4651.000,5391.000,-443.000,-263.000,-917.000,0.000,0.000,0
2026-01-31 15:45:09,234174,2213.000,6507.000,6474.000,-657.000,-1107.000,-1098.000,0.000,0.000,0
2026-01-31 15:45:09,234214,2062.000,4968.000,6459.000,-2357.000,-1049.000,-1066.000,0.000,0.000,0
2026-01-31 15:45:09,234254,3315.000,4869.000,6002.000,-1509.000,-994.000,-1403.000,0.000,0.000,0
2026-01-31 15:45:09,234294,1683.000,5547.000,6407.000,-376.000,-942.000,-1894.000,0.000,0.000,0
2026-01-31 15:45:09,234334,2882.000,4960.000,6591.000,-1435.000,-1329.000,-2119.000,0.000,0.000,0
2026-01-31 15:45:09,234374,2219.000,3836.000,5614.000,-1046.000,-1191.000,-1945.000,0.000,0.000,0
2026-01-31 15:45:09,234414,3730.000,6354.000,6555.000,-781.000,-1219.000,-1941.000,0.000,0.000,0
2026-01-31 15:45:09,234454,3885.000,3744.000,5936.000,-876.000,-745.000,-1711.000,0.000,0.000,0
2026-01-31 15:45:09,234494,2558.000,4280.000,5513.000,1054.000,-170.000,-2286.000,0.000,0.000,0
2026-01-31 15:45:09,234534,3651.000,6311.000,6785.000,802.000,-300.000,-2199.000,0.000,0.000,0
2026-01-31 15:45:09,234574,1626.000,3205.000,5211.000,198.000,-291.000,-1506.000,0.000,0.000,0
2026-01-31 15:45:09,234614,2309.000,4972.000,5591.000,1296.000,-698.000,-1865.000,0.000,0.000,0
2026-01-31 15:45:09,234654,2047.000,5639.000,6491.000,1961.000,-494.000,-1583.000,0.000,0.000,0
2026-01-31 15:45:09,234694,2260.000,4196.000,5408.000,373.000,-993.000,-1275.000,0.000,0.000,0
2026-01-31 15:45:10,234734,2650.000,6385.000,7285.000,1723.000,-885.000,-1122.000,0.000,0.000,0
2026-01-31 15:45:10,234774,2975.000,5010.000,6374.000,-1142.000,-1127.000,-646.000,0.000,0.000,0
2026-01-31 15:45:10,234814,1240.000,4669.000,5812.000,-22.000,-1261.000,-670.000,0.000,0.000,0
2026-01-31 15:45:10,234854,1753.000,7193.000,6402.000,-388.000,-1501.000,-647.000,0.000,0.000,0
2026-01-31 15:45:10,234897,2984.000,5345.000,5789.000,-239.000,-570.000,-294.000,0.000,0.000,0
2026-01-31 15:45:10,234934,3201.000,4735.000,5471.000,-399.000,-257.000,-133.000,0.000,0.000,0
2026-01-31 15:45:10,234974,3489.000,5372.000,5963.000,755.000,34.000,-87.000,0.000,0.000,0
2026-01-31 15:45:10,235014,4056.000,4788.000,6247.000,-322.000,-351.000,27.000,0.000,0.000,0
2026-01-31 15:45:10,235054,2107.000,3738.000,5916.000,240.000,-406.000,-613.000,0.000,0.000,0
2026-01-31 15:45:10,235094,2424.000,6388.000,5573.000,1601.000,-841.000,-471.000,0.000,0.000,0
2026-01-31 15:45:10,235134,3539.000,4288.000,5647.000,-1021.000,-319.000,-10.000,0.000,0.000,0
2026-01-31 15:45:10,235177,2997.000,4886.000,6829.000,697.000,-345.000,-213.000,0.000,0.000,0
2026-01-31 15:45:10,235214,3226.000,5156.000,6948.000,759.000,-260.000,-312.000,0.000,0.000,0
2026-01-31 15:45:10,235254,2290.000,4063.000,5490.000,-2.000,-228.000,-104.000,0.000,0.000,0
2026-01-31 15:45:10,235294,3656.000,5494.000,5559.000,771.000,-289.000,-429.000,0.000,0.000,0
2026-01-31 15:45:10,235334,1369.000,4518.000,5524.000,864.000,-523.000,85.000,0.000,0.000,0
2026-01-31 15:45:10,235374,2696.000,5513.000,6104.000,952.000,-655.000,-166.000,0.000,0.000,0
2026-01-31 15:45:10,235414,2360.000,3811.000,5333.000,-63.000,-687.000,-166.000,0.000,0.000,0
2026-01-31 15:45:10,235454,2963.000,6742.000,6855.000,1041.000,-579.000,-562.000,0.000,0.000,0
2026-01-31 15:45:10,235494,2764.000,3253.000,5424.000,-1034.000,-324.000,-313.000,0.000,0.000,0
2026-01-31 15:45:10,235534,5150.000,5738.000,5962.000,933.000,-537.000,-426.000,0.000,0.000,0
2026-01-31 15:45:10,235574,1209.000,3781.000,5912.000,73.000,-514.000,221.000,0.000,0.000,0
2026-01-31 15:45:10,235614,5443.000,7372.000,6820.000,296.000,-256.000,-432.000,0.000,0.000,0
2026-01-31 15:45:10,235654,2274.000,2125.000,6292.000,131.000,613.000,-160.000,0.000,0.000,0
2026-01-31 15:45:10,235694,1333.000,7946.000,6396.000,1367.000,-25.000,-27.000,0.000,0.000,0
2026-01-31 15:45:11,235734,4779.000,3555.000,4770.000,-2252.000,-226.000,488.000,0.000,0.000,0
2026-01-31 15:45:11,235774,4336.000,5218.000,5920.000,-423.000,227.000,-33.000,0.000,0.000,0
2026-01-31 15:45:11,235814,2201.000,5873.000,6748.000,847.000,468.000,-163.000,0.000,0.000,0
2026-01-31 15:45:11,235854,3142.000,4041.000,5104.000,-1781.000,-194.000,137.000,0.000,0.000,0
2026-01-31 15:45:11,235894,4567.000,6729.000,6631.000,-80.000,-273.000,-92.000,0.000,0.000,0
2026-01-31 15:45:11,235934,2439.000,3148.000,5151.000,-1456.000,-76.000,-117.000,0.000,0.000,0
2026-01-31 15:45:11,235974,2001.000,6721.000,6370.000,393.000,-462.000,-126.000,0.000,0.000,0
2026-01-31 15:45:11,236014,2354.000,3177.000,4872.000,-2110.000,-510.000,-271.000,0.000,0.000,0
2026-01-31 15:45:11,236054,4466.000,6780.000,5538.000,-499.000,-203.000,-743.000,0.000,0.000,0
2026-01-31 15:45:11,236094,2850.000,3067.000,5684.000,-310.000,367.000,-571.000,0.000,0.000,0
2026-01-31 15:45:11,236134,1475.000,6471.000,6234.000,94.000,408.000,-750.000,0.000,0.000,0
2026-01-31 15:45:11,236174,2238.000,2609.000,5539.000,-1119.000,363.000,-739.000,0.000,0.000,0
2026-01-31 15:45:11,236214,2687.000,8498.000,6147.000,271.000,47.000,-1372.000,0.000,0.000,0
2026-01-31 15:45:11,236254,3502.000,5345.000,6762.000,-1886.000,-93.000,-1177.000,0.000,0.000,0
2026-01-31 15:45:11,236294,1070.000,2017.000,4647.000,-1307.000,398.000,-1183.000,0.000,0.000,0
2026-01-31 15:45:11,236334,2512.000,11149.000,7634.000,2251.000,-360.000,-1779.000,0.000,0.000,0
2026-01-31 15:45:11,236374,2061.000,245.000,4363.000,-3759.000,-98.000,-787.000,0.000,0.000,0
2026-01-31 15:45:11,236414,3101.000,7597.000,6283.000,1877.000,102.000,-1752.000,0.000,0.000,0
2026-01-31 15:45:11,236454,2581.000,5878.000,5888.000,542.000,-382.000,-1566.000,0.000,0.000,0
2026-01-31 15:45:11,236494,3729.000,5314.000,6121.000,-1237.000,-657.000,-1253.000,0.000,0.000,0
2026-01-31 15:45:11,236534,809.000,5961.000,5901.000,1307.000,-668.000,-1598.000,0.000,0.000,0
2026-01-31 15:45:11,236574,3555.000,7034.000,5985.000,-711.000,-1354.000,-1451.000,0.000,0.000,0
2026-01-31 15:45:11,236614,1816.000,1893.000,4679.000,-618.000,-797.000,-1198.000,0.000,0.000,0
2026-01-31 15:45:11,236654,2724.000,7740.000,5643.000,1759.000,-766.000,-1495.000,0.000,0.000,0
2026-01-31 15:45:11,236694,4206.000,5184.000,6588.000,617.000,-664.000,-946.000,0.000,0.000,0
2026-01-31 15:45:12,236734,1853.000,2218.000,5794.000,409.000,-115.000,-1033.000,0.000,0.000,0
2026-01-31 15:45:12,236774,2598.000,7927.000,6636.000,2550.000,-864.000,-1102.000,0.000,0.000,0
2026-01-31 15:45:12,236814,2169.000,3773.000,5694.000,196.000,-1089.000,-569.000,0.000,0.000,0
2026-01-31 15:45:12,236854,4280.000,3820.000,5499.000,262.000,-826.000,-635.000,0.000,0.000,0
2026-01-31 15:45:12,236897,4391.000,7118.000,5701.000,3403.000,-74.000,-190.000,0.000,0.000,0
2026-01-31 15:45:12,236937,3022.000,2677.000,6796.000,1601.000,571.000,198.000,0.000,0.000,0
2026-01-31 15:45:12,236974,2907.000,6454.000,6775.000,4169.000,651.000,-343.000,0.000,0.000,0
2026-01-31 15:45:12,237014,1165.000,4613.000,5970.000,1543.000,-149.000,331.000,0.000,0.000,0
2026-01-31 15:45:12,237054,2685.000,6844.000,5969.000,1039.000,-874.000,596.000,0.000,0.000,0
2026-01-31 15:45:12,237094,3363.000,2997.000,4606.000,-553.000,-581.000,688.000,0.000,0.000,0
2026-01-31 15:45:12,237134,2552.000,8023.000,6053.000,2598.000,-80.000,406.000,0.000,0.000,0
2026-01-31 15:45:12,237178,1129.000,3763.000,5503.000,1779.000,601.000,482.000,0.000,0.000,0
2026-01-31 15:45:12,237216,4554.000,6676.000,6263.000,1077.000,570.000,199.000,0.000,0.000,0
2026-01-31 15:45:12,237254,3562.000,3549.000,5840.000,-199.000,817.000,563.000,0.000,0.000,0
2026-01-31 15:45:12,237294,1928.000,6481.000,5630.000,2343.000,447.000,311.000,0.000,0.000,0
2026-01-31 15:45:12,237334,2372.000,5815.000,5444.000,261.000,188.000,754.000,0.000,0.000,0
2026-01-31 15:45:12,237374,3988.000,5597.000,5116.000,-460.000,205.000,532.000,0.000,0.000,0
2026-01-31 15:45:12,237414,2201.000,5921.000,5668.000,1176.000,920.000,139.000,0.000,0.000,0
2026-01-31 15:45:12,237454,1766.000,6059.000,5603.000,542.000,775.000,117.000,0.000,0.000,0
2026-01-31 15:45:12,237494,3336.000,5318.000,5378.000,-59.000,669.000,273.000,0.000,0.000,0
2026-01-31 15:45:12,237534,2663.000,5788.000,5229.000,582.000,668.000,294.000,0.000,0.000,0
2026-01-31 15:45:12,237574,2283.000,5142.000,5210.000,550.000,515.000,618.000,0.000,0.000,0
2026-01-31 15:45:12,237614,6826.000,6481.000,5590.000,349.000,910.000,-346.000,0.000,0.000,0
2026-01-31 15:45:12,237654,-3125.000,2169.000,2231.000,2187.000,600.000,978.000,0.000,0.000,0
2026-01-31 15:45:12,237694,8600.000,1238.000,4345.000,-4528.000,641.000,1006.000,0.000,0.000,0
2026-01-31 15:45:13,237734,2412.000,8412.000,5722.000,7026.000,1333.000,-555.000,0.000,0.000,0
2026-01-31 15:45:13,237774,1799.000,3535.000,5657.000,-1313.000,496.000,1129.000,0.000,0.000,0
2026-01-31 15:45:13,237814,3089.000,6359.000,6130.000,1763.000,842.000,1021.000,0.000,0.000,0
2026-01-31 15:45:13,237854,5551.000,5257.000,5282.000,32.000,552.000,1212.000,0.000,0.000,0
2026-01-31 15:45:13,237894,2208.000,4355.000,6185.000,1323.000,868.000,973.000,0.000,0.000,0
2026-01-31 15:45:13,237934,1476.000,10306.000,5495.000,1646.000,875.000,342.000,0.000,0.000,0
2026-01-31 15:45:13,237974,3297.000,535.000,4906.000,-2383.000,1006.000,1284.000,0.000,0.000,0
2026-01-31 15:45:13,238014,1432.000,8568.000,6112.000,1827.000,1401.000,-20.000,0.000,0.000,0
2026-01-31 15:45:13,238054,5795.000,6792.000,5461.000,-864.000,539.000,605.000,0.000,0.000,0
2026-01-31 15:45:13,238094,-2018.000,3093.000,4583.000,151.000,151.000,1487.000,0.000,0.000,0
2026-01-31 15:45:13,238134,8408.000,9647.000,5122.000,-2437.000,-418.000,695.000,0.000,0.000,0
2026-01-31 15:45:13,238174,1158.000,3928.000,6326.000,1467.000,1190.000,1156.000,0.000,0.000,0
2026-01-31 15:45:13,238214,3580.000,5896.000,5005.000,-975.000,1801.000,1079.000,0.000,0.000,0
2026-01-31 15:45:13,238254,1344.000,7534.000,6219.000,4122.000,2423.000,-223.000,0.000,0.000,0
2026-01-31 15:45:13,238294,1433.000,5849.000,4691.000,-1067.000,1040.000,342.000,0.000,0.000,0
2026-01-31 15:45:13,238334,4746.000,6438.000,4775.000,-92.000,923.000,-37.000,0.000,0.000,0
2026-01-31 15:45:13,238374,360.000,5735.000,6413.000,-72.000,701.000,277.000,0.000,0.000,0
2026-01-31 15:45:13,238414,2458.000,5929.000,4840.000,-1531.000,446.000,754.000,0.000,0.000,0
2026-01-31 15:45:13,238454,5923.000,8812.000,7834.000,179.000,1281.000,271.000,0.000,0.000,0
2026-01-31 15:45:13,238494,-10.000,-165.000,5524.000,-1131.000,911.000,797.000,0.000,0.000,0
2026-01-31 15:45:13,238534,4324.000,6981.000,4603.000,2169.000,1330.000,252.000,0.000,0.000,0
2026-01-31 15:45:13,238574,-516.000,3645.000,6075.000,1646.000,-153.000,1958.000,0.000,0.000,0
2026-01-31 15:45:13,238614,3238.000,8335.000,8573.000,-1483.000,-624.000,2696.000,0.000,0.000,0
2026-01-31 15:45:13,238654,3163.000,-3703.000,5500.000,-5475.000,9.000,2800.000,0.000,0.000,0
2026-01-31 15:45:13,238694,4096.000,11572.000,6492.000,-1053.000,441.000,832.000,0.000,0.000,0
2026-01-31 15:45:14,238734,7384.000,1285.000,4375.000,-3545.000,1514.000,1347.000,0.000,0.000,0
2026-01-31 15:45:14,238774,2866.000,6350.000,7667.000,3878.000,2666.000,2222.000,0.000,0.000,0
2026-01-31 15:45:14,238814,4843.000,5560.000,7280.000,516.000,945.000,2473.000,0.000,0.000,0
2026-01-31 15:45:14,238854,-3345.000,-15.000,3771.000,-1280.000,-502.000,1709.000,0.000,0.000,0
2026-01-31 15:45:14,238894,6982.000,8388.000,10439.000,-305.000,136.000,834.000,0.000,0.000,0
2026-01-31 15:45:14,238937,2062.000,7721.000,7640.000,3443.000,979.000,277.000,0.000,0.000,0
2026-01-31 15:45:14,238976,7710.000,-55.000,4539.000,-733.000,1490.000,96.000,0.000,0.000,0
2026-01-31 15:45:14,239014,3079.000,3137.000,5851.000,2298.000,1422.000,179.000,0.000,0.000,0
2026-01-31 15:45:14,239054,5614.000,6952.000,7618.000,1903.000,1599.000,848.000,0.000,0.000,0
2026-01-31 15:45:14,239094,1734.000,3784.000,4667.000,1947.000,1027.000,1201.000,0.000,0.000,0
2026-01-31 15:45:14,239134,746.000,8066.000,8875.000,-41.000,456.000,1403.000,0.000,0.000,0
2026-01-31 15:45:14,239178,-3015.000,-4652.000,2365.000,1394.000,4145.000,-2235.000,0.000,0.000,0
2026-01-31 15:45:14,239214,-8330.000,8852.000,6014.000,4849.000,2267.000,-1351.000,0.000,0.000,0
2026-01-31 15:45:14,239254,2933.000,2188.000,4512.000,-4343.000,808.000,304.000,0.000,0.000,0
2026-01-31 15:45:14,239294,8759.000,7245.000,4805.000,-810.000,-99.000,1389.000,0.000,0.000,0
2026-01-31 15:45:14,239334,9391.000,-1748.000,2573.000,-380.000,1678.000,-505.000,0.000,0.000,0
2026-01-31 15:45:14,239374,-4729.000,5304.000,6032.000,3664.000,-76.000,2076.000,0.000,0.000,0
2026-01-31 15:45:14,239414,9021.000,7186.000,4764.000,1628.000,2630.000,-334.000,0.000,0.000,0
2026-01-31 15:45:14,239454,5998.000,5984.000,11169.000,3021.000,1350.000,1427.000,0.000,0.000,0
2026-01-31 15:45:14,239494,2504.000,596.000,6693.000,-2208.000,526.000,1318.000,0.000,0.000,0
2026-01-31 15:45:14,239534,909.000,9245.000,9243.000,-731.000,-89.000,477.000,0.000,0.000,0
2026-01-31 15:45:14,239574,7917.000,2875.000,3063.000,-4109.000,459.000,253.000,0.000,0.000,0
2026-01-31 15:45:14,239614,-1569.000,7713.000,6084.000,2478.000,2531.000,-825.000,0.000,0.000,0
2026-01-31 15:45:14,239654,5080.000,4347.000,4335.000,-2259.000,423.000,167.000,0.000,0.000,0
2026-01-31 15:45:14,239694,3466.000,4452.000,4709.000,1738.000,770.000,-35.000,0.000,0.000,0
2026-01-31 15:45:15,239734,6429.000,369.000,6246.000,-1162.000,545.000,1118.000,0.000,0.000,0
2026-01-31 15:45:15,239774,2503.000,3456.000,6879.000,3791.000,1614.000,1203.000,0.000,0.000,0
2026-01-31 15:45:15,239814,2813.000,2801.000,6259.000,854.000,-164.000,2675.000,0.000,0.000,0
2026-01-31 15:45:15,239854,3245.000,5385.000,6886.000,160.000,164.000,1971.000,0.000,0.000,0
2026-01-31 15:45:15,239894,5184.000,4648.000,5326.000,-1126.000,496.000,1570.000,0.000,0.000,0
2026-01-31 15:45:15,239934,1295.000,7176.000,5887.000,645.000,1599.000,308.000,0.000,0.000,0
2026-01-31 15:45:15,239974,5103.000,6365.000,5238.000,-1561.000,1215.000,779.000,0.000,0.000,0
2026-01-31 15:45:15,240014,3328.000,5592.000,4889.000,-183.000,1193.000,274.000,0.000,0.000,0
2026-01-31 15:45:15,240054,1979.000,6265.000,6461.000,-1511.000,369.000,417.000,0.000,0.000,0
2026-01-31 15:45:15,240094,5035.000,3143.000,5195.000,-2717.000,-24.000,891.000,0.000,0.000,0
2026-01-31 15:45:15,240134,1545.000,4241.000,5077.000,-548.000,595.000,195.000,0.000,0.000,0
2026-01-31 15:45:15,240174,6723.000,4102.000,4420.000,-1814.000,308.000,-109.000,0.000,0.000,0
2026-01-31 15:45:15,240214,411.000,3943.000,4699.000,1986.000,1441.000,-646.000,0.000,0.000,0
2026-01-31 15:45:15,240254,3446.000,5494.000,4181.000,-1640.000,-476.000,374.000,0.000,0.000,0
2026-01-31 15:45:15,240294,4290.000,4513.000,4473.000,-512.000,-149.000,205.000,0.000,0.000,0
2026-01-31 15:45:15,240334,4106.000,4197.000,5330.000,955.000,177.000,146.000,0.000,0.000,0
2026-01-31 15:45:15,240374,3141.000,5614.000,6429.000,927.000,18.000,-546.000,0.000,0.000,0
2026-01-31 15:45:15,240414,3976.000,6492.000,6749.000,-604.000,-651.000,-531.000,0.000,0.000,0
2026-01-31 15:45:15,240454,2440.000,5747.000,6504.000,-1622.000,-663.000,-849.000,0.000,0.000,0
2026-01-31 15:45:15,240494,2861.000,6635.000,5328.000,-2098.000,-1021.000,-721.000,0.000,0.000,0
2026-01-31 15:45:15,240534,1495.000,2320.000,5833.000,-2422.000,-1018.000,-34.000,0.000,0.000,0
2026-01-31 15:45:15,240574,7760.000,4234.000,6260.000,-2692.000,-1138.000,-431.000,0.000,0.000,0
2026-01-31 15:45:15,240614,51.000,5818.000,7357.000,2285.000,1230.000,-1766.000,0.000,0.000,0
2026-01-31 15:45:15,240654,379.000,3871.000,5449.000,-1412.000,-19.000,-655.000,0.000,0.000,0
2026-01-31 15:45:15,240694,3904.000,4669.000,5313.000,-173.000,172.000,-700.000,0.000,0.000,0
2026-01-31 15:45:16,240734,3135.000,3603.000,4746.000,1942.000,401.000,-67.000,0.000,0.000,0
2026-01-31 15:45:16,240774,6319.000,7412.000,9208.000,1388.000,-211.000,-365.000,0.000,0.000,0
2026-01-31 15:45:16,240814,9887.000,-409.000,5932.000,-2092.000,1216.000,-1224.000,0.000,0.000,0
2026-01-31 15:45:16,240854,-3279.000,7154.000,6252.000,3142.000,1581.000,-3650.000,0.000,0.000,0
2026-01-31 15:45:16,240897,13423.000,6216.000,7158.000,1049.000,3937.000,-3717.000,0.000,0.000,0
2026-01-31 15:45:16,240937,-3220.000,3379.000,2840.000,6388.000,5059.000,-7451.000,0.000,0.000,0
2026-01-31 15:45:16,240974,-7039.000,1382.000,3841.000,5112.000,2816.000,-4525.000,0.000,0.000,0
2026-01-31 15:45:16,241014,-3529.000,10689.000,5472.000,1695.000,-595.000,-870.000,0.000,0.000,0
2026-01-31 15:45:16,241054,-246.000,-454.000,4043.000,-5366.000,-1862.000,1843.000,0.000,0.000,0
2026-01-31 15:45:16,241094,-2657.000,49.000,1422.000,1164.000,-1750.000,2238.000,0.000,0.000,0
2026-01-31 15:45:16,241134,1725.000,6930.000,7903.000,-593.000,-4303.000,6961.000,0.000,0.000,0
2026-01-31 15:45:16,241177,14054.000,9784.000,12296.000,767.000,-1386.000,5293.000,0.000,0.000,0
2026-01-31 15:45:16,241214,20399.000,5052.000,4714.000,2616.000,819.000,3250.000,0.000,0.000,0
2026-01-31 15:45:16,241254,-2165.000,6321.000,9979.000,5843.000,595.000,-1344.000,0.000,0.000,0
2026-01-31 15:45:16,241294,5454.000,7709.000,6908.000,-457.000,-1339.000,733.000,0.000,0.000,0
2026-01-31 15:45:16,241334,6133.000,3761.000,4741.000,1005.000,-1142.000,2101.000,0.000,0.000,0
2026-01-31 15:45:16,241374,5863.000,5217.000,6444.000,2816.000,-753.000,1875.000,0.000,0.000,0
2026-01-31 15:45:16,241414,3209.000,5545.000,6095.000,1694.000,-1254.000,1593.000,0.000,0.000,0
2026-01-31 15:45:16,241454,4480.000,2633.000,4751.000,43.000,-461.000,1501.000,0.000,0.000,0
2026-01-31 15:45:16,241494,-29.000,7824.000,6395.000,4681.000,2623.000,526.000,0.000,0.000,0
2026-01-31 15:45:16,241534,10746.000,-918.000,1828.000,-107.000,1940.000,2419.000,0.000,0.000,0
2026-01-31 15:45:16,241574,605.000,8320.000,6282.000,6129.000,3628.000,-1887.000,0.000,0.000,0
2026-01-31 15:45:16,241614,-1919.000,7138.000,7474.000,1613.000,2844.000,-348.000,0.000,0.000,0
2026-01-31 15:45:16,241654,-5718.000,4930.000,8923.000,1357.000,3655.000,113.000,0.000,0.000,0
2026-01-31 15:45:16,241694,10151.000,5830.000,2783.000,-462.000,3262.000,259.000,0.000,0.000,0
2026-01-31 15:45:17,241734,7375.000,8693.000,5238.000,3825.000,2537.000,-490.000,0.000,0.000,0
2026-01-31 15:45:17,241774,1832.000,9689.000,4666.000,1396.000,-1072.000,1246.000,0.000,0.000,0
2026-01-31 15:45:17,241814,3235.000,5108.000,4423.000,-1836.000,-1611.000,2063.000,0.000,0.000,0
2026-01-31 15:45:17,241854,-925.000,1201.000,6823.000,600.000,978.000,2725.000,0.000,0.000,0
2026-01-31 15:45:17,241894,2831.000,3277.000,4774.000,1340.000,2855.000,1805.000,0.000,0.000,0
2026-01-31 15:45:17,241934,2504.000,7290.000,4439.000,2062.000,2353.000,164.000,0.000,0.000,0
2026-01-31 15:45:17,241974,3634.000,4872.000,6364.000,386.000,1508.000,1126.000,0.000,0.000,0
2026-01-31 15:45:17,242014,3462.000,5480.000,6422.000,721.000,1039.000,2127.000,0.000,0.000,0
2026-01-31 15:45:17,242054,4915.000,3888.000,4558.000,186.000,865.000,1826.000,0.000,0.000,0
2026-01-31 15:45:17,242094,3761.000,5914.000,4749.000,2135.000,-72.000,937.000,0.000,0.000,0
2026-01-31 15:45:17,242134,2283.000,5726.000,5576.000,1986.000,482.000,1588.000,0.000,0.000,0
2026-01-31 15:45:17,242174,2466.000,3935.000,5660.000,1441.000,1475.000,2246.000,0.000,0.000,0
2026-01-31 15:45:17,242214,3489.000,5547.000,5692.000,1730.000,2270.000,1801.000,0.000,0.000,0
2026-01-31 15:45:17,242254,3207.000,5676.000,5373.000,1865.000,2815.000,1220.000,0.000,0.000,0
2026-01-31 15:45:17,242294,3497.000,7834.000,5362.000,1960.000,2850.000,1033.000,0.000,0.000,0
2026-01-31 15:45:17,242334,3334.000,6001.000,4476.000,-141.000,2618.000,1449.000,0.000,0.000,0
2026-01-31 15:45:17,242374,3368.000,6625.000,5018.000,384.000,2493.000,2030.000,0.000,0.000,0
2026-01-31 15:45:17,242414,3342.000,5471.000,4231.000,-83.000,2497.000,2141.000,0.000,0.000,0
2026-01-31 15:45:17,242454,4703.000,5028.000,4073.000,317.000,2231.000,2159.000,0.000,0.000,0
2026-01-31 15:45:17,242494,3770.000,5769.000,4882.000,1055.000,2159.000,2317.000,0.000,0.000,0
2026-01-31 15:45:17,242534,3753.000,4888.000,5234.000,57.000,2041.000,2224.000,0.000,0.000,0
2026-01-31 15:45:17,242574,2899.000,5557.000,5543.000,1105.000,2265.000,2025.000,0.000,0.000,0
2026-01-31 15:45:17,242614,3955.000,5890.000,5522.000,455.000,2405.000,1904.000,0.000,0.000,0
2026-01-31 15:45:17,242654,2947.000,6272.000,5219.000,763.000,2371.000,1939.000,0.000,0.000,0
2026-01-31 15:45:17,242694,4498.000,6184.000,5567.000,298.000,2136.000,1843.000,0.000,0.000,0
2026-01-31 15:45:18,242734,2861.000,5649.000,5223.000,479.000,2352.000,2070.000,0.000,0.000,0
2026-01-31 15:45:18,242774,3091.000,6483.000,5512.000,324.000,2309.000,2021.000,0.000,0.000,0
2026-01-31 15:45:18,242814,3096.000,5722.000,5285.000,131.000,2453.000,1508.000,0.000,0.000,0
2026-01-31 15:45:18,242854,2645.000,6669.000,4833.000,-176.000,2102.000,1533.000,0.000,0.000,0
2026-01-31 15:45:18,242897,2037.000,6338.000,5188.000,-744.000,1575.000,1599.000,0.000,0.000,0
2026-01-31 15:45:18,242936,3223.000,6771.000,5120.000,-1427.000,1386.000,1054.000,0.000,0.000,0
2026-01-31 15:45:18,242974,3981.000,5493.000,4923.000,-1831.000,1296.000,860.000,0.000,0.000,0
2026-01-31 15:45:18,243014,1701.000,6635.000,5184.000,-822.000,1601.000,495.000,0.000,0.000,0
2026-01-31 15:45:18,243054,1923.000,6229.000,4944.000,-2395.000,925.000,414.000,0.000,0.000,0
2026-01-31 15:45:18,243094,2485.000,6228.000,5519.000,-2531.000,447.000,432.000,0.000,0.000,0
2026-01-31 15:45:18,243134,2452.000,5132.000,5137.000,-3226.000,276.000,-168.000,0.000,0.000,0
2026-01-31 15:45:18,243177,3746.000,4844.000,4848.000,-2456.000,-33.000,-687.000,0.000,0.000,0
2026-01-31 15:45:18,243214,3604.000,4933.000,4898.000,-1867.000,66.000,-600.000,0.000,0.000,0
2026-01-31 15:45:18,243254,2404.000,3760.000,5407.000,-1416.000,316.000,-614.000,0.000,0.000,0
2026-01-31 15:45:18,243294,1425.000,5998.000,6152.000,-1446.000,-43.000,-514.000,0.000,0.000,0
2026-01-31 15:45:18,243334,4622.000,5624.000,5518.000,-3084.000,-509.000,-693.000,0.000,0.000,0
2026-01-31 15:45:18,243374,3487.000,4116.000,5362.000,-1509.000,-295.000,-751.000,0.000,0.000,0
2026-01-31 15:45:18,243414,3514.000,4947.000,5616.000,-1359.000,-568.000,-477.000,0.000,0.000,0
2026-01-31 15:45:18,243454,3264.000,4259.000,5915.000,-830.000,-326.000,-967.000,0.000,0.000,0
2026-01-31 15:45:18,243494,3781.000,5034.000,6473.000,-414.000,98.000,-1420.000,0.000,0.000,0
2026-01-31 15:45:18,243534,1824.000,3513.000,5324.000,-729.000,149.000,-1453.000,0.000,0.000,0
2026-01-31 15:45:18,243574,2376.000,6742.000,6934.000,-717.000,-532.000,-1368.000,0.000,0.000,0
2026-01-31 15:45:18,243614,3510.000,4929.000,5894.000,-1689.000,-620.000,-963.000,0.000,0.000,0
2026-01-31 15:45:18,243654,2261.000,3914.000,6008.000,-416.000,-465.000,-708.000,0.000,0.000,0
2026-01-31 15:45:18,243694,1814.000,4062.000,6100.000,-462.000,-736.000,-560.000,0.000,0.000,0
2026-01-31 15:45:19,243734,1949.000,4333.000,5965.000,-963.000,-712.000,-533.000,0.000,0.000,0
2026-01-31 15:45:19,243774,1639.000,3438.000,5693.000,-2119.000,-546.000,-625.000,0.000,0.000,0
2026-01-31 15:45:19,243814,1796.000,6413.000,6736.000,-3220.000,-781.000,-748.000,0.000,0.000,0
2026-01-31 15:45:19,243854,3290.000,5880.000,6383.000,-4046.000,-1267.000,-786.000,0.000,0.000,0
2026-01-31 15:45:19,243894,2524.000,4928.000,6270.000,-4246.000,-1259.000,-1068.000,0.000,0.000,0
2026-01-31 15:45:19,243934,3954.000,4697.000,5811.000,-3616.000,-977.000,-1653.000,0.000,0.000,0
2026-01-31 15:45:19,243974,2472.000,4359.000,5898.000,-2499.000,-579.000,-1555.000,0.000,0.000,0
2026-01-31 15:45:19,244014,4265.000,5461.000,6100.000,-1312.000,-91.000,-1799.000,0.000,0.000,0
2026-01-31 15:45:19,244054,2784.000,3849.000,5867.000,-1077.000,502.000,-2218.000,0.000,0.000,0
2026-01-31 15:45:19,244094,2339.000,5994.000,6740.000,-904.000,-190.000,-2734.000,0.000,0.000,0
2026-01-31 15:45:19,244134,6049.000,3710.000,6882.000,-1801.000,-171.000,-3056.000,0.000,0.000,0
2026-01-31 15:45:19,244174,3061.000,4109.000,6608.000,45.000,-210.000,-3211.000,0.000,0.000,0
2026-01-31 15:45:19,244214,2562.000,4255.000,6767.000,-673.000,-1252.000,-2537.000,0.000,0.000,0
2026-01-31 15:45:19,244254,3336.000,2761.000,5584.000,-1311.000,-1457.000,-1840.000,0.000,0.000,0
2026-01-31 15:45:19,244294,5451.000,4400.000,6946.000,602.000,-613.000,-1845.000,0.000,0.000,0
2026-01-31 15:45:19,244334,1085.000,3623.000,6734.000,1504.000,-28.000,-1822.000,0.000,0.000,0
2026-01-31 15:45:19,244374,3658.000,3339.000,6096.000,-885.000,-864.000,-1193.000,0.000,0.000,0
2026-01-31 15:45:19,244414,1238.000,4550.000,7034.000,1047.000,-1030.000,-1453.000,0.000,0.000,0
2026-01-31 15:45:19,244454,1923.000,5715.000,6073.000,-1210.000,-2007.000,-1150.000,0.000,0.000,0
2026-01-31 15:45:19,244494,4293.000,6349.000,6534.000,-2255.000,-2078.000,-1150.000,0.000,0.000,0
2026-01-31 15:45:19,244534,771.000,4028.000,5200.000,-3439.000,-1513.000,-1323.000,0.000,0.000,0
2026-01-31 15:45:19,244574,4364.000,6878.000,6320.000,-1685.000,-1825.000,-1743.000,0.000,0.000,0
2026-01-31 15:45:19,244614,7019.000,2694.000,6370.000,-1792.000,-1028.000,-1635.000,0.000,0.000,0
2026-01-31 15:45:19,244654,625.000,5031.000,7653.000,1582.000,216.000,-2052.000,0.000,0.000,0
2026-01-31 15:45:19,244694,6050.000,4770.000,5835.000,-1745.000,-1039.000,-2540.000,0.000,0.000,0
2026-01-31 15:45:20,244734,4192.000,5698.000,7037.000,11.000,-518.000,-3179.000,0.000,0.000,0
2026-01-31 15:45:20,244774,1281.000,1173.000,5033.000,-1944.000,-297.000,-2709.000,0.000,0.000,0
2026-01-31 15:45:20,244814,4593.000,7194.000,6907.000,-182.000,-186.000,-3170.000,0.000,0.000,0
2026-01-31 15:45:20,244854,5865.000,2671.000,4811.000,-263.000,405.000,-3082.000,0.000,0.000,0
2026-01-31 15:45:20,244894,2076.000,5104.000,6636.000,2719.000,663.000,-2887.000,0.000,0.000,0
2026-01-31 15:45:20,244935,4692.000,5780.000,8600.000,512.000,-122.000,-1683.000,0.000,0.000,0
2026-01-31 15:45:20,244974,2149.000,-1432.000,3761.000,1542.000,782.000,-1466.000,0.000,0.000,0
2026-01-31 15:45:20,245014,2680.000,10252.000,9085.000,4088.000,-846.000,-1181.000,0.000,0.000,0
2026-01-31 15:45:20,245054,2389.000,-1048.000,3950.000,-3421.000,-1112.000,639.000,0.000,0.000,0
2026-01-31 15:45:20,245094,3380.000,9861.000,10592.000,2104.000,-1564.000,-305.000,0.000,0.000,0
2026-01-31 15:45:20,245134,4550.000,-1762.000,2974.000,-4855.000,-1586.000,447.000,0.000,0.000,0
2026-01-31 15:45:20,245177,3489.000,4523.000,6416.000,-7451.000,-2222.000,-719.000,0.000,0.000,0
2026-01-31 15:45:20,245214,3902.000,-469.000,5158.000,-5653.000,-1804.000,-337.000,0.000,0.000,0
2026-01-31 15:45:20,245254,7970.000,5004.000,6424.000,2226.000,331.000,-297.000,0.000,0.000,0
2026-01-31 15:45:20,245294,-770.000,9514.000,9142.000,2630.000,630.000,176.000,0.000,0.000,0
2026-01-31 15:45:20,245334,5927.000,293.000,4374.000,-5512.000,-2211.000,898.000,0.000,0.000,0
2026-01-31 15:45:20,245374,-1098.000,2932.000,6368.000,272.000,-1037.000,1006.000,0.000,0.000,0
2026-01-31 15:45:20,245414,9066.000,5480.000,3086.000,-1504.000,685.000,-2413.000,0.000,0.000,0
2026-01-31 15:45:20,245454,627.000,2590.000,5505.000,3604.000,831.000,-1746.000,0.000,0.000,0
2026-01-31 15:45:20,245494,6970.000,10220.000,10084.000,-402.000,954.000,-2056.000,0.000,0.000,0
2026-01-31 15:45:20,245534,674.000,-3902.000,1917.000,-2143.000,431.000,-1439.000,0.000,0.000,0
2026-01-31 15:45:20,245574,1216.000,10754.000,6672.000,3146.000,-931.000,-882.000,0.000,0.000,0
2026-01-31 15:45:20,245614,5363.000,6680.000,7927.000,-5218.000,-2140.000,-1239.000,0.000,0.000,0
2026-01-31 15:45:20,245654,3218.000,562.000,6528.000,-3312.000,-2089.000,-1258.000,0.000,0.000,0
2026-01-31 15:45:20,245694,10979.000,-6245.000,2131.000,503.000,3481.000,-4406.000,0.000,0.000,0
2026-01-31 15:45:21,245734,-13214.000,11932.000,13729.000,11743.000,4745.000,-3889.000,0.000,0.000,0
2026-01-31 15:45:21,245774,2592.000,4739.000,2203.000,-6205.000,-425.000,-4706.000,0.000,0.000,0
2026-01-31 15:45:21,245814,3999.000,8674.000,14429.000,-3227.000,-795.000,-1452.000,0.000,0.000,0
2026-01-31 15:45:21,245854,5888.000,-11823.000,-5452.000,-4903.000,-2226.000,-2933.000,0.000,0.000,0
