datetime_local,uptime_ms,acc_x,acc_y,acc_z,gyro_x,gyro_y,gyro_z,speed_mps,turn_rate_deg_s,gps_valid
2026-01-30 23:24:07,1471334,-976.000,-2681.000,7946.000,94.000,82.000,-95.000,0.000,0.000,0
2026-01-30 23:24:07,1471374,-955.000,-2490.000,8097.000,362.000,-33.000,-235.000,0.000,0.000,0
2026-01-30 23:24:07,1471414,-1027.000,-2451.000,8022.000,139.000,7.000,-177.000,0.000,0.000,0
2026-01-30 23:24:07,1471454,-1033.000,-2589.000,7995.000,-18.000,37.000,-181.000,0.000,0.000,0
2026-01-30 23:24:07,1471497,-929.000,-2432.000,8101.000,52.000,-19.000,-173.000,0.000,0.000,0
2026-01-30 23:24:07,1471539,-902.000,-2498.000,7923.000,-36.000,42.000,-125.000,0.000,0.000,0
2026-01-30 23:24:07,1471574,-1011.000,-2558.000,7972.000,92.000,40.000,-43.000,0.000,0.000,0
2026-01-30 23:24:07,1471614,-891.000,-2530.000,7812.000,61.000,-55.000,-117.000,0.000,0.000,0
2026-01-30 23:24:07,1471654,-869.000,-2496.000,7875.000,-11.000,-15.000,-171.000,0.000,0.000,0
2026-01-30 23:24:07,1471694,-858.000,-2535.000,7873.000,67.000,-87.000,-119.000,0.000,0.000,0
2026-01-30 23:24:07,1471734,-844.000,-2509.000,7769.000,187.000,-158.000,-102.000,0.000,0.000,0
2026-01-30 23:24:07,1471774,-863.000,-2496.000,7546.000,281.000,-144.000,-29.000,0.000,0.000,0
2026-01-30 23:24:07,1471814,-956.000,-2447.000,7094.000,375.000,-123.000,66.000,0.000,0.000,0
2026-01-30 23:24:07,1471854,-672.000,-2179.000,6476.000,971.000,-388.000,382.000,0.000,0.000,0
2026-01-30 23:24:07,1471894,-817.000,-3757.000,4858.000,1225.000,414.000,201.000,0.000,0.000,0
2026-01-30 23:24:07,1471934,197.000,-3512.000,3306.000,5410.000,-1324.000,1319.000,0.000,0.000,0
2026-01-30 23:24:07,1471974,689.000,-2700.000,2785.000,8084.000,-3840.000,4203.000,0.000,0.000,0
2026-01-30 23:24:07,1472014,2376.000,71.000,4340.000,11288.000,-5464.000,6697.000,0.000,0.000,0
2026-01-30 23:24:07,1472054,2076.000,2740.000,6818.000,9305.000,-5120.000,8711.000,0.000,0.000,0
2026-01-30 23:24:07,1472094,1757.000,2208.000,8278.000,4760.000,-6055.000,11044.000,0.000,0.000,0
2026-01-30 23:24:07,1472134,3697.000,3737.000,10306.000,6451.000,-6875.000,10141.000,0.000,0.000,0
2026-01-30 23:24:07,1472174,2794.000,6205.000,10326.000,7450.000,-5287.000,7320.000,0.000,0.000,0
2026-01-30 23:24:08,1472214,2815.000,6003.000,9067.000,3120.000,-4265.000,5535.000,0.000,0.000,0
2026-01-30 23:24:08,1472254,3878.000,4350.000,8407.000,2201.000,-4402.000,4442.000,0.000,0.000,0
2026-01-30 23:24:08,1472294,4489.000,3964.000,7991.000,1902.000,-3865.000,3017.000,0.000,0.000,0
2026-01-30 23:24:08,1472334,5469.000,3585.000,7141.000,2209.000,-4099.000,1254.000,0.000,0.000,0
2026-01-30 23:24:08,1472374,6468.000,5186.000,6255.000,-158.000,-3322.000,-780.000,0.000,0.000,0
2026-01-30 23:24:08,1472414,6359.000,2553.000,6195.000,-3545.000,-2183.000,-1342.000,0.000,0.000,0
2026-01-30 23:24:08,1472454,5964.000,1190.000,6535.000,-1945.000,-1375.000,-1212.000,0.000,0.000,0
2026-01-30 23:24:08,1472494,4434.000,1258.000,6434.000,752.000,-1076.000,-978.000,0.000,0.000,0
2026-01-30 23:24:08,1472534,7158.000,2111.000,4841.000,-869.000,-529.000,-41.000,0.000,0.000,0
2026-01-30 23:24:08,1472574,5225.000,-1061.000,8326.000,-479.000,2797.000,-833.000,0.000,0.000,0
2026-01-30 23:24:08,1472614,4293.000,5473.000,9656.000,-248.000,1319.000,-820.000,0.000,0.000,0
2026-01-30 23:24:08,1472654,2815.000,2926.000,9868.000,-3204.000,2188.000,-771.000,0.000,0.000,0
2026-01-30 23:24:08,1472694,1507.000,584.000,8714.000,-4219.000,2919.000,-454.000,0.000,0.000,0
2026-01-30 23:24:08,1472734,1561.000,2066.000,11294.000,-4608.000,3113.000,-1024.000,0.000,0.000,0
2026-01-30 23:24:08,1472774,2168.000,3579.000,9306.000,-4866.000,2859.000,-1490.000,0.000,0.000,0
2026-01-30 23:24:08,1472814,1959.000,3880.000,9050.000,-5398.000,2522.000,-2531.000,0.000,0.000,0
2026-01-30 23:24:08,1472854,2174.000,3526.000,8479.000,-6348.000,1731.000,-3231.000,0.000,0.000,0
2026-01-30 23:24:08,1472894,4062.000,2351.000,7175.000,-7610.000,-131.000,-3770.000,0.000,0.000,0
2026-01-30 23:24:08,1472934,3526.000,1277.000,5230.000,-7706.000,-1344.000,-4055.000,0.000,0.000,0
2026-01-30 23:24:08,1472974,4432.000,393.000,5070.000,-8329.000,-2001.000,-3890.000,0.000,0.000,0
2026-01-30 23:24:08,1473014,5310.000,727.000,5766.000,-6970.000,-1819.000,-3391.000,0.000,0.000,0
2026-01-30 23:24:08,1473057,4057.000,-1396.000,5515.000,-2374.000,-612.000,-1225.000,0.000,0.000,0
2026-01-30 23:24:08,1473096,2766.000,-1847.000,7883.000,-145.000,-32.000,428.000,0.000,0.000,0
2026-01-30 23:24:08,1473134,2443.000,-1243.000,7746.000,269.000,-473.000,645.000,0.000,0.000,0
2026-01-30 23:24:08,1473174,3696.000,-947.000,8656.000,689.000,-1900.000,666.000,0.000,0.000,0
2026-01-30 23:24:09,1473214,3651.000,-4174.000,7317.000,847.000,-3572.000,-264.000,0.000,0.000,0
2026-01-30 23:24:09,1473254,2573.000,-2495.000,8131.000,1765.000,-4127.000,-1098.000,0.000,0.000,0
2026-01-30 23:24:09,1473294,2556.000,-2238.000,7937.000,-515.000,-3701.000,-167.000,0.000,0.000,0
2026-01-30 23:24:09,1473334,1794.000,-1124.000,7765.000,-937.000,-1073.000,1390.000,0.000,0.000,1
2026-01-30 23:24:09,1473374,4418.000,-1827.000,8098.000,-2951.000,1439.000,1577.000,0.000,0.000,1
2026-01-30 23:24:09,1473414,6192.000,-868.000,5208.000,-1775.000,2685.000,875.000,0.000,0.000,0
2026-01-30 23:24:09,1473454,5456.000,-3506.000,9249.000,-2946.000,719.000,39.000,0.000,0.000,0
2026-01-30 23:24:09,1473494,5882.000,-832.000,4042.000,-2141.000,-42.000,-1470.000,0.000,0.000,0
2026-01-30 23:24:09,1473534,5163.000,-2014.000,5325.000,-473.000,-242.000,-842.000,0.000,0.000,0
2026-01-30 23:24:09,1473574,5189.000,-2191.000,6918.000,-576.000,-425.000,-557.000,0.000,0.000,0
2026-01-30 23:24:09,1473614,4451.000,-913.000,6345.000,-450.000,257.000,-846.000,0.000,0.000,0
2026-01-30 23:24:09,1473654,5114.000,-1371.000,7120.000,-1388.000,669.000,-759.000,0.000,0.000,0
2026-01-30 23:24:09,1473694,4209.000,-2196.000,6779.000,-1233.000,954.000,-756.000,0.000,0.000,0
2026-01-30 23:24:09,1473734,3725.000,-2163.000,7584.000,-1759.000,410.000,-997.000,0.000,0.000,0
2026-01-30 23:24:09,1473774,4811.000,-1942.000,6234.000,-2064.000,253.000,-1457.000,0.000,0.000,0
2026-01-30 23:24:09,1473814,5085.000,-2022.000,5682.000,-2065.000,628.000,-1751.000,0.000,0.000,0
2026-01-30 23:24:09,1473854,5172.000,-2183.000,6173.000,-1663.000,872.000,-1794.000,0.000,0.000,0
2026-01-30 23:24:09,1473894,5659.000,-2546.000,4660.000,-1126.000,506.000,-1701.000,0.000,0.000,0
2026-01-30 23:24:09,1473934,3316.000,-1868.000,5291.000,-86.000,4.000,-1492.000,0.000,0.000,0
2026-01-30 23:24:09,1473974,7151.000,-2560.000,4596.000,-754.000,1601.000,-1316.000,0.000,0.000,0
2026-01-30 23:24:09,1474014,4703.000,-1709.000,7806.000,989.000,2054.000,-1402.000,0.000,0.000,0
2026-01-30 23:24:09,1474054,5612.000,-3356.000,3289.000,2075.000,184.000,-470.000,0.000,0.000,0
2026-01-30 23:24:09,1474094,5784.000,-2078.000,6224.000,2410.000,991.000,-560.000,0.000,0.000,0
2026-01-30 23:24:09,1474134,5773.000,-1691.000,6397.000,2518.000,69.000,-445.000,0.000,0.000,0
2026-01-30 23:24:09,1474174,5248.000,-1636.000,5483.000,3010.000,243.000,-822.000,0.000,0.000,0
2026-01-30 23:24:10,1474214,5453.000,-984.000,6064.000,3331.000,1090.000,-729.000,0.000,0.000,0
2026-01-30 23:24:10,1474254,4164.000,-1840.000,8107.000,3787.000,1442.000,-1130.000,0.000,0.000,0
2026-01-30 23:24:10,1474294,4700.000,-934.000,7462.000,3996.000,1219.000,-1231.000,0.000,0.000,0
2026-01-30 23:24:10,1474334,4183.000,-494.000,7762.000,3865.000,1268.000,-1683.000,0.000,0.000,0
2026-01-30 23:24:10,1474374,4073.000,886.000,7624.000,3929.000,1405.000,-1440.000,0.000,0.000,0
2026-01-30 23:24:10,1474414,3607.000,1551.000,8062.000,4104.000,1305.000,-963.000,0.000,0.000,0
2026-01-30 23:24:10,1474454,3292.000,-401.000,8305.000,3581.000,1223.000,-118.000,0.000,0.000,0
2026-01-30 23:24:10,1474494,2615.000,444.000,7948.000,3186.000,1224.000,699.000,0.000,0.000,0
2026-01-30 23:24:10,1474534,2768.000,732.000,8770.000,2317.000,1254.000,1394.000,0.000,0.000,0
2026-01-30 23:24:10,1474574,2378.000,853.000,8163.000,1796.000,841.000,1404.000,0.000,0.000,0
2026-01-30 23:24:10,1474614,2780.000,780.000,8137.000,1091.000,958.000,1612.000,0.000,0.000,0
2026-01-30 23:24:10,1474654,2697.000,830.000,7846.000,328.000,466.000,1828.000,0.000,0.000,0
2026-01-30 23:24:10,1474694,900.000,252.000,9940.000,250.000,-406.000,1819.000,0.000,0.000,0
2026-01-30 23:24:10,1474734,5317.000,1389.000,6248.000,596.000,-249.000,2915.000,0.000,0.000,0
2026-01-30 23:24:10,1474774,1746.000,1441.000,8343.000,904.000,-895.000,2613.000,0.000,0.000,0
2026-01-30 23:24:10,1474814,4638.000,1318.000,7792.000,660.000,-1416.000,3452.000,0.000,0.000,0
2026-01-30 23:24:10,1474854,3888.000,-274.000,5895.000,-1173.000,-1556.000,5466.000,0.000,0.000,0
2026-01-30 23:24:10,1474894,5474.000,-1679.000,7795.000,-875.000,-1852.000,5986.000,0.000,0.000,0
2026-01-30 23:24:10,1474934,5542.000,-814.000,5080.000,1245.000,-2107.000,4391.000,0.000,0.000,0
2026-01-30 23:24:10,1474974,6614.000,879.000,6471.000,3064.000,-997.000,4570.000,0.000,0.000,0
2026-01-30 23:24:10,1475014,5608.000,-810.000,8497.000,3103.000,-949.000,4687.000,0.000,0.000,0
2026-01-30 23:24:10,1475054,5952.000,808.000,6888.000,2207.000,-934.000,3188.000,0.000,0.000,0
2026-01-30 23:24:10,1475095,4943.000,1990.000,8650.000,1498.000,-739.000,1984.000,0.000,0.000,0
2026-01-30 23:24:10,1475134,4512.000,-216.000,5801.000,23.000,259.000,1238.000,0.000,0.000,0
2026-01-30 23:24:10,1475174,4638.000,-763.000,7600.000,-839.000,752.000,653.000,0.000,0.000,0
2026-01-30 23:24:11,1475214,4412.000,227.000,6829.000,5.000,827.000,800.000,0.000,0.000,0
2026-01-30 23:24:11,1475254,4827.000,265.000,7212.000,-401.000,940.000,815.000,0.000,0.000,0
2026-01-30 23:24:11,1475294,4876.000,424.000,6428.000,513.000,460.000,1151.000,0.000,0.000,0
2026-01-30 23:24:11,1475338,4428.000,-508.000,5905.000,268.000,356.000,700.000,0.000,0.000,1
2026-01-30 23:24:11,1475374,5504.000,-548.000,6645.000,-259.000,776.000,686.000,0.000,0.000,1
2026-01-30 23:24:11,1475414,1925.000,-206.000,7246.000,-324.000,624.000,-65.000,0.000,0.000,0
2026-01-30 23:24:11,1475454,4677.000,-1769.000,10988.000,-2691.000,930.000,146.000,0.000,0.000,0
2026-01-30 23:24:11,1475494,3936.000,1146.000,6891.000,-2729.000,-84.000,-843.000,0.000,0.000,0
2026-01-30 23:24:11,1475534,2069.000,-329.000,10735.000,-3374.000,415.000,-403.000,0.000,0.000,0
2026-01-30 23:24:11,1475574,4600.000,1675.000,6342.000,-3075.000,-1021.000,-250.000,0.000,0.000,0
2026-01-30 23:24:11,1475614,5285.000,506.000,5766.000,-2996.000,-365.000,-577.000,0.000,0.000,0
2026-01-30 23:24:11,1475654,5072.000,593.000,4959.000,-1845.000,-891.000,-761.000,0.000,0.000,0
2026-01-30 23:24:11,1475694,6242.000,-671.000,4561.000,-2614.000,840.000,-10.000,0.000,0.000,0
2026-01-30 23:24:11,1475734,7804.000,2255.000,5043.000,2193.000,-793.000,435.000,0.000,0.000,0
2026-01-30 23:24:11,1475774,6757.000,-2336.000,4201.000,4808.000,-507.000,696.000,0.000,0.000,0
2026-01-30 23:24:11,1475814,5534.000,-1460.000,5429.000,5867.000,-14.000,9.000,0.000,0.000,0
2026-01-30 23:24:11,1475854,4933.000,-134.000,6812.000,6234.000,636.000,237.000,0.000,0.000,0
2026-01-30 23:24:11,1475894,4334.000,-247.000,7887.000,5459.000,484.000,515.000,0.000,0.000,0
2026-01-30 23:24:11,1475934,4213.000,15.000,8730.000,4016.000,738.000,535.000,0.000,0.000,0
2026-01-30 23:24:11,1475974,4059.000,521.000,8529.000,2788.000,778.000,795.000,0.000,0.000,0
2026-01-30 23:24:11,1476014,3333.000,1043.000,7738.000,1724.000,973.000,719.000,0.000,0.000,0
2026-01-30 23:24:11,1476054,2931.000,493.000,8864.000,1376.000,1403.000,901.000,0.000,0.000,0
2026-01-30 23:24:11,1476094,3655.000,1771.000,8831.000,862.000,1542.000,724.000,0.000,0.000,0
2026-01-30 23:24:11,1476134,3184.000,225.000,8582.000,-142.000,1184.000,588.000,0.000,0.000,0
2026-01-30 23:24:11,1476174,3597.000,1590.000,7351.000,-779.000,1075.000,336.000,0.000,0.000,0
2026-01-30 23:24:12,1476214,2821.000,420.000,8447.000,-1209.000,810.000,391.000,0.000,0.000,0
2026-01-30 23:24:12,1476254,3182.000,712.000,6910.000,-1241.000,734.000,458.000,0.000,0.000,0
2026-01-30 23:24:12,1476294,3429.000,898.000,8566.000,-1274.000,418.000,494.000,0.000,0.000,0
2026-01-30 23:24:12,1476334,3804.000,651.000,6317.000,-874.000,333.000,638.000,0.000,0.000,1
2026-01-30 23:24:12,1476374,3534.000,333.000,7510.000,-1064.000,631.000,753.000,0.000,0.000,1
2026-01-30 23:24:12,1476414,4278.000,253.000,5390.000,235.000,563.000,1718.000,0.000,0.000,0
2026-01-30 23:24:12,1476454,4616.000,-1297.000,8528.000,278.000,1070.000,815.000,0.000,0.000,0
2026-01-30 23:24:12,1476494,1761.000,-31.000,7990.000,76.000,910.000,202.000,0.000,0.000,0
2026-01-30 23:24:12,1476534,3402.000,1075.000,7838.000,-236.000,180.000,-284.000,0.000,0.000,0
2026-01-30 23:24:12,1476574,4243.000,-420.000,7640.000,-1.000,-135.000,-10.000,0.000,0.000,0
2026-01-30 23:24:12,1476614,2574.000,-369.000,7146.000,219.000,-8.000,32.000,0.000,0.000,0
2026-01-30 23:24:12,1476654,3993.000,315.000,7147.000,291.000,-326.000,367.000,0.000,0.000,0
2026-01-30 23:24:12,1476694,3195.000,605.000,7542.000,580.000,-437.000,15.000,0.000,0.000,0
2026-01-30 23:24:12,1476734,4063.000,725.000,6717.000,354.000,-443.000,-84.000,0.000,0.000,0
2026-01-30 23:24:12,1476774,2150.000,-155.000,9388.000,507.000,90.000,-377.000,0.000,0.000,0
2026-01-30 23:24:12,1476814,2276.000,-227.000,7277.000,-17.000,57.000,-154.000,0.000,0.000,0
2026-01-30 23:24:12,1476854,2549.000,-131.000,8849.000,26.000,148.000,-425.000,0.000,0.000,0
2026-01-30 23:24:12,1476894,3786.000,2328.000,9077.000,-266.000,-144.000,-414.000,0.000,0.000,0
2026-01-30 23:24:12,1476934,810.000,415.000,7821.000,-508.000,-481.000,-563.000,0.000,0.000,0
2026-01-30 23:24:12,1476974,2605.000,-744.000,8215.000,-1201.000,-639.000,-665.000,0.000,0.000,0
2026-01-30 23:24:12,1477014,2749.000,354.000,7077.000,-1328.000,-801.000,-914.000,0.000,0.000,0
2026-01-30 23:24:12,1477054,4392.000,1536.000,9285.000,-1755.000,-1071.000,-435.000,0.000,0.000,0
2026-01-30 23:24:12,1477097,5314.000,87.000,4351.000,-1551.000,-2177.000,220.000,0.000,0.000,0
2026-01-30 23:24:12,1477136,6204.000,159.000,5910.000,-961.000,-1365.000,581.000,0.000,0.000,0
2026-01-30 23:24:12,1477174,6285.000,-348.000,6316.000,-1164.000,-1627.000,672.000,0.000,0.000,0
2026-01-30 23:24:13,1477214,5117.000,-1600.000,5216.000,316.000,-1237.000,423.000,0.000,0.000,0
2026-01-30 23:24:13,1477254,5183.000,-942.000,7065.000,32.000,-1113.000,319.000,0.000,0.000,0
2026-01-30 23:24:13,1477294,4211.000,-953.000,7721.000,-631.000,-147.000,25.000,0.000,0.000,0
2026-01-30 23:24:13,1477337,4879.000,-655.000,8406.000,-504.000,199.000,374.000,0.000,0.000,0
2026-01-30 23:24:13,1477374,4937.000,-765.000,6293.000,-203.000,271.000,583.000,0.000,0.000,0
2026-01-30 23:24:13,1477414,4116.000,-97.000,7546.000,314.000,-316.000,705.000,0.000,0.000,0
2026-01-30 23:24:13,1477454,5179.000,-556.000,6422.000,22.000,-1023.000,1079.000,0.000,0.000,0
2026-01-30 23:24:13,1477494,4984.000,-31.000,5848.000,917.000,-567.000,1231.000,0.000,0.000,0
2026-01-30 23:24:13,1477534,5022.000,-264.000,6402.000,943.000,-190.000,1153.000,0.000,0.000,0
2026-01-30 23:24:13,1477574,5413.000,-828.000,6758.000,886.000,312.000,1010.000,0.000,0.000,0
2026-01-30 23:24:13,1477614,4937.000,-281.000,7443.000,1131.000,-453.000,1053.000,0.000,0.000,0
2026-01-30 23:24:13,1477654,4383.000,383.000,7559.000,1391.000,-573.000,889.000,0.000,0.000,0
2026-01-30 23:24:13,1477694,3901.000,-292.000,7055.000,851.000,-24.000,779.000,0.000,0.000,0
2026-01-30 23:24:13,1477734,3992.000,205.000,8287.000,393.000,561.000,413.000,0.000,0.000,0
2026-01-30 23:24:13,1477774,4127.000,273.000,7745.000,-526.000,478.000,-163.000,0.000,0.000,0
2026-01-30 23:24:13,1477814,4694.000,-53.000,6774.000,-889.000,266.000,-325.000,0.000,0.000,0
2026-01-30 23:24:13,1477854,4100.000,298.000,7595.000,-814.000,642.000,-479.000,0.000,0.000,0
2026-01-30 23:24:13,1477894,3622.000,-103.000,7687.000,-813.000,511.000,-473.000,0.000,0.000,0
2026-01-30 23:24:13,1477934,4884.000,-35.000,6953.000,-755.000,40.000,-411.000,0.000,0.000,0
2026-01-30 23:24:13,1477974,3471.000,-459.000,6415.000,-650.000,-177.000,-629.000,0.000,0.000,0
2026-01-30 23:24:13,1478014,4784.000,-1024.000,6672.000,-1199.000,322.000,-642.000,0.000,0.000,0
2026-01-30 23:24:13,1478054,5413.000,-485.000,6441.000,-430.000,309.000,-761.000,0.000,0.000,0
2026-01-30 23:24:13,1478094,3657.000,-923.000,8057.000,-675.000,608.000,-924.000,0.000,0.000,0
2026-01-30 23:24:13,1478134,4252.000,-656.000,7468.000,-489.000,211.000,-792.000,0.000,0.000,0
2026-01-30 23:24:13,1478174,3972.000,-291.000,7370.000,-273.000,-37.000,-685.000,0.000,0.000,0
2026-01-30 23:24:14,1478214,4469.000,-734.000,6855.000,-683.000,324.000,-643.000,0.000,0.000,0
2026-01-30 23:24:14,1478254,4181.000,-599.000,6940.000,-451.000,466.000,-643.000,0.000,0.000,0
2026-01-30 23:24:14,1478294,4318.000,-386.000,7148.000,-579.000,413.000,-641.000,0.000,0.000,0
2026-01-30 23:24:14,1478334,4423.000,-1040.000,6973.000,-787.000,114.000,-507.000,0.000,0.000,0
2026-01-30 23:24:14,1478374,4796.000,327.000,7120.000,-288.000,52.000,-535.000,0.000,0.000,0
2026-01-30 23:24:14,1478414,5021.000,-327.000,6614.000,-203.000,-239.000,-451.000,0.000,0.000,0
2026-01-30 23:24:14,1478454,4458.000,-783.000,7021.000,296.000,-327.000,-467.000,0.000,0.000,0
2026-01-30 23:24:14,1478494,5083.000,-1137.000,6578.000,221.000,119.000,-582.000,0.000,0.000,0
2026-01-30 23:24:14,1478534,4419.000,-46.000,7292.000,316.000,375.000,-399.000,0.000,0.000,0
2026-01-30 23:24:14,1478574,3575.000,-721.000,7529.000,297.000,395.000,-391.000,0.000,0.000,0
2026-01-30 23:24:14,1478614,4602.000,-166.000,7462.000,-81.000,-114.000,-121.000,0.000,0.000,0
2026-01-30 23:24:14,1478654,4412.000,2.000,7116.000,-360.000,-214.000,-113.000,0.000,0.000,0
2026-01-30 23:24:14,1478694,3930.000,-346.000,7474.000,-353.000,317.000,-63.000,0.000,0.000,0
2026-01-30 23:24:14,1478734,3978.000,-878.000,7319.000,-548.000,331.000,-56.000,0.000,0.000,0
2026-01-30 23:24:14,1478774,4530.000,-61.000,7364.000,-404.000,236.000,-74.000,0.000,0.000,0
2026-01-30 23:24:14,1478814,3886.000,-1212.000,6869.000,-756.000,385.000,-382.000,0.000,0.000,0
2026-01-30 23:24:14,1478854,3795.000,-427.000,7568.000,-310.000,19.000,-220.000,0.000,0.000,0
2026-01-30 23:24:14,1478894,4158.000,-700.000,6976.000,-707.000,-86.000,-308.000,0.000,0.000,0
2026-01-30 23:24:14,1478934,3868.000,-578.000,7703.000,-94.000,45.000,-167.000,0.000,0.000,0
2026-01-30 23:24:14,1478974,4227.000,-357.000,6765.000,-482.000,-515.000,-90.000,0.000,0.000,0
2026-01-30 23:24:14,1479014,4025.000,-777.000,7074.000,-770.000,-69.000,-286.000,0.000,0.000,0
2026-01-30 23:24:14,1479057,4188.000,-754.000,7051.000,-967.000,-241.000,-76.000,0.000,0.000,0
2026-01-30 23:24:14,1479098,4466.000,-540.000,7117.000,-694.000,91.000,-224.000,0.000,0.000,0
2026-01-30 23:24:14,1479134,4079.000,-508.000,7484.000,-713.000,174.000,-250.000,0.000,0.000,0
2026-01-30 23:24:14,1479174,4379.000,51.000,7616.000,-648.000,-65.000,-418.000,0.000,0.000,0
2026-01-30 23:24:15,1479214,5459.000,304.000,6111.000,-533.000,-262.000,-295.000,0.000,0.000,0
2026-01-30 23:24:15,1479254,5212.000,-320.000,6610.000,715.000,756.000,-303.000,0.000,0.000,0
2026-01-30 23:24:15,1479294,3706.000,-893.000,8153.000,837.000,129.000,-64.000,0.000,0.000,0
2026-01-30 23:24:15,1479334,4177.000,-1324.000,7339.000,-456.000,-808.000,-427.000,0.000,0.000,1
2026-01-30 23:24:15,1479374,4993.000,-658.000,6009.000,-335.000,-619.000,-422.000,0.000,0.000,1
2026-01-30 23:24:15,1479414,4499.000,-562.000,6281.000,367.000,-386.000,-70.000,0.000,0.000,0
2026-01-30 23:24:15,1479454,5043.000,-660.000,7250.000,47.000,236.000,31.000,0.000,0.000,0
2026-01-30 23:24:15,1479494,4318.000,-424.000,7489.000,301.000,-281.000,-144.000,0.000,0.000,0
2026-01-30 23:24:15,1479534,4931.000,-803.000,6721.000,-86.000,-331.000,-92.000,0.000,0.000,0
2026-01-30 23:24:15,1479574,4635.000,-628.000,7027.000,644.000,-680.000,177.000,0.000,0.000,0
2026-01-30 23:24:15,1479614,4070.000,-899.000,8027.000,148.000,-8.000,-10.000,0.000,0.000,0
2026-01-30 23:24:15,1479654,3979.000,-718.000,7371.000,15.000,-11.000,162.000,0.000,0.000,0
2026-01-30 23:24:15,1479694,4958.000,-610.000,7200.000,-411.000,-18.000,287.000,0.000,0.000,0
2026-01-30 23:24:15,1479734,3985.000,-621.000,7431.000,30.000,-63.000,22.000,0.000,0.000,0
2026-01-30 23:24:15,1479774,4912.000,-351.000,7005.000,101.000,-228.000,-74.000,0.000,0.000,0
2026-01-30 23:24:15,1479814,3944.000,-362.000,6838.000,386.000,-349.000,-88.000,0.000,0.000,0
2026-01-30 23:24:15,1479854,4222.000,-431.000,7717.000,-432.000,77.000,-74.000,0.000,0.000,0
2026-01-30 23:24:15,1479894,4068.000,-179.000,7222.000,-203.000,115.000,-364.000,0.000,0.000,0
2026-01-30 23:24:15,1479934,4219.000,-559.000,8620.000,-835.000,303.000,-810.000,0.000,0.000,0
2026-01-30 23:24:15,1479974,3998.000,586.000,7795.000,-1249.000,-218.000,-439.000,0.000,0.000,0
2026-01-30 23:24:15,1480014,4390.000,882.000,7028.000,-1975.000,-246.000,-553.000,0.000,0.000,0
2026-01-30 23:24:15,1480054,3990.000,-86.000,7493.000,-2554.000,428.000,-784.000,0.000,0.000,0
2026-01-30 23:24:15,1480094,4689.000,163.000,7209.000,-2785.000,467.000,-886.000,0.000,0.000,0
2026-01-30 23:24:15,1480134,4263.000,212.000,6077.000,-2506.000,238.000,-930.000,0.000,0.000,0
2026-01-30 23:24:15,1480174,4746.000,-421.000,7498.000,-2250.000,-112.000,-672.000,0.000,0.000,0
2026-01-30 23:24:16,1480214,4764.000,-1051.000,6297.000,-1872.000,-276.000,-581.000,0.000,0.000,0
2026-01-30 23:24:16,1480254,4851.000,-1196.000,6480.000,-1162.000,-160.000,-530.000,0.000,0.000,0
2026-01-30 23:24:16,1480294,5052.000,-1125.000,6547.000,-599.000,-223.000,-510.000,0.000,0.000,0
2026-01-30 23:24:16,1480334,4529.000,-1164.000,6506.000,-487.000,62.000,-635.000,0.000,0.000,1
2026-01-30 23:24:16,1480374,3783.000,-1288.000,7641.000,-384.000,-92.000,-752.000,0.000,0.000,1
2026-01-30 23:24:16,1480414,5110.000,-1514.000,6650.000,-575.000,99.000,-860.000,0.000,0.000,0
2026-01-30 23:24:16,1480454,4472.000,-741.000,7211.000,20.000,121.000,-846.000,0.000,0.000,0
2026-01-30 23:24:16,1480494,4703.000,-1205.000,6672.000,-10.000,422.000,-1022.000,0.000,0.000,0
2026-01-30 23:24:16,1480534,4599.000,-433.000,7216.000,-216.000,240.000,-669.000,0.000,0.000,0
2026-01-30 23:24:16,1480574,4253.000,-896.000,6917.000,-132.000,314.000,-906.000,0.000,0.000,0
2026-01-30 23:24:16,1480614,4058.000,-1009.000,7621.000,-443.000,573.000,-928.000,0.000,0.000,0
2026-01-30 23:24:16,1480654,5320.000,-457.000,6876.000,-974.000,415.000,-1048.000,0.000,0.000,0
2026-01-30 23:24:16,1480694,3893.000,-95.000,8051.000,-960.000,317.000,-1199.000,0.000,0.000,0
2026-01-30 23:24:16,1480734,4303.000,452.000,6810.000,-1350.000,232.000,-1275.000,0.000,0.000,0
2026-01-30 23:24:16,1480774,4450.000,50.000,7004.000,-1668.000,634.000,-1058.000,0.000,0.000,0
2026-01-30 23:24:16,1480814,6329.000,202.000,4511.000,-1861.000,510.000,-1021.000,0.000,0.000,0
2026-01-30 23:24:16,1480854,4402.000,163.000,6256.000,-1475.000,853.000,-1396.000,0.000,0.000,0
2026-01-30 23:24:16,1480894,5228.000,-133.000,6371.000,-1444.000,268.000,-1231.000,0.000,0.000,0
2026-01-30 23:24:16,1480934,4657.000,-1077.000,6753.000,-1327.000,52.000,-1052.000,0.000,0.000,0
2026-01-30 23:24:16,1480974,5457.000,-786.000,6148.000,-686.000,-86.000,-776.000,0.000,0.000,0
2026-01-30 23:24:16,1481014,4870.000,-1461.000,7073.000,-579.000,272.000,-995.000,0.000,0.000,0
2026-01-30 23:24:16,1481057,4974.000,-1207.000,6208.000,-569.000,-112.000,-905.000,0.000,0.000,0
2026-01-30 23:24:16,1481096,3311.000,-1518.000,7329.000,-278.000,688.000,-889.000,0.000,0.000,0
2026-01-30 23:24:16,1481134,4442.000,-640.000,6450.000,280.000,344.000,-786.000,0.000,0.000,0
2026-01-30 23:24:16,1481174,5012.000,-1064.000,7128.000,-1141.000,908.000,-832.000,0.000,0.000,0
2026-01-30 23:24:17,1481214,4036.000,-247.000,7862.000,-1321.000,677.000,-1062.000,0.000,0.000,0
2026-01-30 23:24:17,1481254,4580.000,-450.000,7518.000,-1306.000,87.000,-1191.000,0.000,0.000,0
2026-01-30 23:24:17,1481294,4412.000,-1124.000,6792.000,-1249.000,149.000,-979.000,0.000,0.000,0
2026-01-30 23:24:17,1481337,2954.000,-723.000,7432.000,-294.000,927.000,-1459.000,0.000,0.000,0
2026-01-30 23:24:17,1481374,4947.000,-1362.000,7013.000,-1307.000,953.000,-1180.000,0.000,0.000,0
2026-01-30 23:24:17,1481414,5162.000,-506.000,7116.000,-878.000,846.000,-1367.000,0.000,0.000,0
2026-01-30 23:24:17,1481454,4639.000,-439.000,7769.000,-787.000,620.000,-1455.000,0.000,0.000,0
2026-01-30 23:24:17,1481494,6639.000,-217.000,7430.000,-1209.000,202.000,-1152.000,0.000,0.000,0
2026-01-30 23:24:17,1481534,4593.000,-789.000,6711.000,-1063.000,648.000,-1472.000,0.000,0.000,0
2026-01-30 23:24:17,1481574,3206.000,-2106.000,6665.000,-1113.000,491.000,-1053.000,0.000,0.000,0
2026-01-30 23:24:17,1481614,3788.000,-1760.000,6495.000,227.000,1027.000,-1106.000,0.000,0.000,0
2026-01-30 23:24:17,1481654,3276.000,-964.000,7726.000,371.000,1420.000,-1321.000,0.000,0.000,0
2026-01-30 23:24:17,1481694,4622.000,-709.000,7619.000,203.000,922.000,-1249.000,0.000,0.000,0
2026-01-30 23:24:17,1481734,-707.000,-453.000,5716.000,804.000,396.000,-2046.000,0.000,0.000,0
2026-01-30 23:24:17,1481774,20685.000,7531.000,9983.000,-2766.000,805.000,129.000,0.000,0.000,0
2026-01-30 23:24:17,1481814,8137.000,937.000,7526.000,-477.000,410.000,-968.000,0.000,0.000,0
2026-01-30 23:24:17,1481854,-4732.000,4464.000,10599.000,604.000,-1327.000,-1450.000,0.000,0.000,0
2026-01-30 23:24:17,1481894,7128.000,842.000,9186.000,463.000,-2167.000,569.000,0.000,0.000,0
2026-01-30 23:24:17,1481934,2150.000,-5591.000,3040.000,-3067.000,-474.000,-2453.000,0.000,0.000,0
2026-01-30 23:24:17,1481974,2593.000,-177.000,9369.000,17.000,-1035.000,-1199.000,0.000,0.000,0
2026-01-30 23:24:17,1482014,3896.000,-1207.000,5630.000,-1256.000,-1249.000,-1046.000,0.000,0.000,0
2026-01-30 23:24:17,1482054,4242.000,-114.000,7753.000,-812.000,-464.000,-530.000,0.000,0.000,0
2026-01-30 23:24:17,1482094,4465.000,-34.000,7337.000,-576.000,-616.000,-640.000,0.000,0.000,0
2026-01-30 23:24:17,1482134,6034.000,272.000,7471.000,-1556.000,35.000,-689.000,0.000,0.000,0
2026-01-30 23:24:17,1482174,4265.000,-364.000,8526.000,-1268.000,562.000,-529.000,0.000,0.000,0
2026-01-30 23:24:18,1482214,1558.000,-1710.000,8607.000,-838.000,-1013.000,-695.000,0.000,0.000,0
2026-01-30 23:24:18,1482254,4810.000,-1313.000,6526.000,-1940.000,234.000,-357.000,0.000,0.000,0
2026-01-30 23:24:18,1482294,2342.000,-563.000,9070.000,-1350.000,59.000,-830.000,0.000,0.000,0
2026-01-30 23:24:18,1482334,5806.000,1917.000,6163.000,-1696.000,296.000,-617.000,0.000,0.000,0
2026-01-30 23:24:18,1482374,5124.000,-536.000,6181.000,-984.000,240.000,-516.000,0.000,0.000,0
2026-01-30 23:24:18,1482414,3614.000,-982.000,7066.000,-822.000,102.000,-1066.000,0.000,0.000,0
2026-01-30 23:24:18,1482454,7318.000,-784.000,6320.000,-1394.000,604.000,-1502.000,0.000,0.000,0
2026-01-30 23:24:18,1482494,4123.000,-438.000,8731.000,-377.000,648.000,-1543.000,0.000,0.000,0
2026-01-30 23:24:18,1482534,3956.000,-1183.000,6400.000,455.000,-415.000,-1018.000,0.000,0.000,0
2026-01-30 23:24:18,1482574,5700.000,-1644.000,6712.000,-89.000,784.000,-895.000,0.000,0.000,0
2026-01-30 23:24:18,1482614,4578.000,-1403.000,6288.000,1107.000,288.000,-787.000,0.000,0.000,0
2026-01-30 23:24:18,1482654,5061.000,-1006.000,7054.000,732.000,106.000,-870.000,0.000,0.000,0
2026-01-30 23:24:18,1482694,2911.000,-514.000,7215.000,1660.000,-34.000,-1079.000,0.000,0.000,0
2026-01-30 23:24:18,1482734,4273.000,-1068.000,7760.000,220.000,-755.000,-555.000,0.000,0.000,0
2026-01-30 23:24:18,1482774,4194.000,-1319.000,8180.000,-1076.000,769.000,-1437.000,0.000,0.000,0
2026-01-30 23:24:18,1482814,2262.000,-291.000,8984.000,-924.000,260.000,-1628.000,0.000,0.000,0
2026-01-30 23:24:18,1482854,7246.000,75.000,5603.000,-2125.000,220.000,-1091.000,0.000,0.000,0
2026-01-30 23:24:18,1482894,4443.000,-367.000,8754.000,-1758.000,1425.000,-1587.000,0.000,0.000,0
2026-01-30 23:24:18,1482934,1636.000,-615.000,7249.000,-1003.000,394.000,-2166.000,0.000,0.000,0
2026-01-30 23:24:18,1482974,5134.000,-1950.000,6338.000,-2632.000,159.000,-1431.000,0.000,0.000,0
2026-01-30 23:24:18,1483014,3491.000,-1528.000,5694.000,-776.000,660.000,-1846.000,0.000,0.000,0
2026-01-30 23:24:18,1483057,4010.000,-2752.000,7457.000,-1267.000,1372.000,-1465.000,0.000,0.000,0
2026-01-30 23:24:18,1483099,3938.000,-1738.000,5842.000,1141.000,223.000,-812.000,0.000,0.000,0
2026-01-30 23:24:18,1483134,6816.000,-1891.000,5549.000,75.000,355.000,-557.000,0.000,0.000,0
2026-01-30 23:24:18,1483174,5255.000,-2061.000,6821.000,142.000,1660.000,-922.000,0.000,0.000,0
2026-01-30 23:24:19,1483214,2422.000,-930.000,9220.000,1080.000,509.000,-1405.000,0.000,0.000,0
2026-01-30 23:24:19,1483254,4283.000,-1039.000,7326.000,242.000,-472.000,-1270.000,0.000,0.000,0
2026-01-30 23:24:19,1483294,5331.000,1389.000,7273.000,1345.000,-93.000,-1164.000,0.000,0.000,0
2026-01-30 23:24:19,1483337,3561.000,83.000,6834.000,798.000,-518.000,-1262.000,0.000,0.000,0
2026-01-30 23:24:19,1483374,5200.000,2486.000,7173.000,-840.000,381.000,-1229.000,0.000,0.000,0
2026-01-30 23:24:19,1483414,3730.000,-1067.000,6459.000,-1300.000,2005.000,-1082.000,0.000,0.000,0
2026-01-30 23:24:19,1483454,4527.000,518.000,8676.000,1462.000,2149.000,-351.000,0.000,0.000,0
2026-01-30 23:24:19,1483494,3421.000,-983.000,8367.000,1048.000,1617.000,-245.000,0.000,0.000,0
2026-01-30 23:24:19,1483534,2103.000,-2156.000,6621.000,400.000,367.000,-769.000,0.000,0.000,0
2026-01-30 23:24:19,1483574,6921.000,-82.000,8241.000,-588.000,732.000,-840.000,0.000,0.000,0
2026-01-30 23:24:19,1483614,2710.000,549.000,8246.000,39.000,319.000,-1145.000,0.000,0.000,0
2026-01-30 23:24:19,1483654,3093.000,-119.000,7192.000,-502.000,-224.000,-601.000,0.000,0.000,0
2026-01-30 23:24:19,1483694,5516.000,796.000,9672.000,-975.000,394.000,-561.000,0.000,0.000,0
2026-01-30 23:24:19,1483734,1351.000,-477.000,6473.000,-807.000,-481.000,-906.000,0.000,0.000,0
2026-01-30 23:24:19,1483774,7732.000,845.000,10438.000,-1298.000,650.000,-643.000,0.000,0.000,0
2026-01-30 23:24:19,1483814,194.000,-3105.000,4384.000,161.000,-811.000,-1674.000,0.000,0.000,0
2026-01-30 23:24:19,1483854,7141.000,672.000,8468.000,-260.000,662.000,-863.000,0.000,0.000,0
2026-01-30 23:24:19,1483894,3682.000,-163.000,6767.000,1831.000,-1178.000,-505.000,0.000,0.000,0
2026-01-30 23:24:19,1483934,6681.000,-397.000,5312.000,801.000,-1057.000,221.000,0.000,0.000,0
2026-01-30 23:24:19,1483974,5845.000,-1314.000,5057.000,987.000,171.000,-327.000,0.000,0.000,0
2026-01-30 23:24:19,1484014,3030.000,-1023.000,9894.000,1162.000,98.000,16.000,0.000,0.000,0
2026-01-30 23:24:19,1484054,6317.000,171.000,5785.000,193.000,-597.000,-18.000,0.000,0.000,0
2026-01-30 23:24:19,1484094,2345.000,663.000,9529.000,1001.000,-1001.000,276.000,0.000,0.000,0
2026-01-30 23:24:19,1484134,5990.000,-936.000,5715.000,-318.000,-1026.000,1124.000,0.000,0.000,0
2026-01-30 23:24:19,1484174,1764.000,-622.000,9688.000,754.000,631.000,1031.000,0.000,0.000,0
2026-01-30 23:24:20,1484214,7394.000,2084.000,7767.000,616.000,-281.000,1113.000,0.000,0.000,0
2026-01-30 23:24:20,1484254,2210.000,-1669.000,8328.000,-46.000,76.000,635.000,0.000,0.000,0
2026-01-30 23:24:20,1484294,1864.000,-1145.000,7022.000,-137.000,-805.000,423.000,0.000,0.000,0
2026-01-30 23:24:20,1484334,5915.000,25.000,5755.000,-953.000,139.000,876.000,0.000,0.000,0
2026-01-30 23:24:20,1484374,3980.000,-775.000,7886.000,-488.000,1225.000,641.000,0.000,0.000,0
2026-01-30 23:24:20,1484414,5450.000,763.000,7627.000,265.000,-7.000,26.000,0.000,0.000,0
2026-01-30 23:24:20,1484454,2779.000,100.000,7694.000,170.000,-177.000,-107.000,0.000,0.000,0
2026-01-30 23:24:20,1484494,2440.000,-799.000,6913.000,387.000,-1373.000,-108.000,0.000,0.000,0
2026-01-30 23:24:20,1484534,4307.000,-836.000,7452.000,541.000,432.000,-402.000,0.000,0.000,0
2026-01-30 23:24:20,1484574,3789.000,-360.000,6728.000,2086.000,-311.000,-95.000,0.000,0.000,0
2026-01-30 23:24:20,1484614,8462.000,-1664.000,6331.000,1003.000,131.000,556.000,0.000,0.000,0
2026-01-30 23:24:20,1484654,2930.000,-1301.000,5934.000,2928.000,-947.000,44.000,0.000,0.000,0
2026-01-30 23:24:20,1484694,4433.000,-1098.000,6744.000,2207.000,-1873.000,959.000,0.000,0.000,0
2026-01-30 23:24:20,1484734,4447.000,-1533.000,8021.000,214.000,-480.000,520.000,0.000,0.000,0
2026-01-30 23:24:20,1484774,2667.000,-539.000,7772.000,1576.000,-512.000,288.000,0.000,0.000,0
2026-01-30 23:24:20,1484814,5032.000,359.000,8109.000,1016.000,-5.000,692.000,0.000,0.000,0
2026-01-30 23:24:20,1484854,3608.000,192.000,9107.000,1020.000,443.000,617.000,0.000,0.000,0
2026-01-30 23:24:20,1484894,3754.000,-191.000,7692.000,584.000,207.000,859.000,0.000,0.000,0
2026-01-30 23:24:20,1484934,3749.000,-249.000,8747.000,-17.000,1143.000,173.000,0.000,0.000,0
2026-01-30 23:24:20,1484974,4599.000,1348.000,7420.000,-331.000,214.000,143.000,0.000,0.000,0
2026-01-30 23:24:20,1485014,5453.000,1130.000,6377.000,-749.000,123.000,117.000,0.000,0.000,0
2026-01-30 23:24:20,1485057,4397.000,1365.000,6077.000,-443.000,-338.000,-271.000,0.000,0.000,0
2026-01-30 23:24:20,1485097,4969.000,654.000,6439.000,-991.000,506.000,-162.000,0.000,0.000,0
2026-01-30 23:24:20,1485137,2561.000,-576.000,7119.000,-30.000,637.000,-167.000,0.000,0.000,0
2026-01-30 23:24:20,1485174,4997.000,443.000,5953.000,465.000,256.000,27.000,0.000,0.000,0
2026-01-30 23:24:21,1485214,5498.000,-1264.000,7093.000,-48.000,1130.000,279.000,0.000,0.000,0
2026-01-30 23:24:21,1485254,1973.000,-2082.000,7535.000,894.000,588.000,21.000,0.000,0.000,0
2026-01-30 23:24:21,1485294,4961.000,-286.000,6875.000,363.000,-87.000,587.000,0.000,0.000,0
2026-01-30 23:24:21,1485337,4199.000,-1258.000,7033.000,748.000,-813.000,1056.000,0.000,0.000,0
2026-01-30 23:24:21,1485376,5596.000,-13.000,6509.000,-448.000,-300.000,932.000,0.000,0.000,0
2026-01-30 23:24:21,1485414,5313.000,-521.000,8111.000,-219.000,402.000,307.000,0.000,0.000,0
2026-01-30 23:24:21,1485454,2052.000,-1177.000,7027.000,1471.000,-1126.000,546.000,0.000,0.000,0
2026-01-30 23:24:21,1485494,3182.000,-953.000,6549.000,431.000,-338.000,513.000,0.000,0.000,0
2026-01-30 23:24:21,1485534,2240.000,-635.000,10114.000,-703.000,1428.000,-128.000,0.000,0.000,0
2026-01-30 23:24:21,1485574,2969.000,934.000,7882.000,390.000,441.000,342.000,0.000,0.000,0
2026-01-30 23:24:21,1485614,6629.000,1181.000,7358.000,-790.000,1098.000,43.000,0.000,0.000,0
2026-01-30 23:24:21,1485654,312.000,-2697.000,7242.000,80.000,-160.000,595.000,0.000,0.000,0
2026-01-30 23:24:21,1485694,9675.000,1431.000,7208.000,-2100.000,1154.000,142.000,0.000,0.000,0
2026-01-30 23:24:21,1485734,2160.000,-1744.000,7037.000,87.000,-495.000,483.000,0.000,0.000,0
2026-01-30 23:24:21,1485774,5367.000,-467.000,5734.000,-609.000,138.000,50.000,0.000,0.000,0
2026-01-30 23:24:21,1485814,1614.000,-505.000,7976.000,1232.000,1098.000,-484.000,0.000,0.000,0
2026-01-30 23:24:21,1485854,4165.000,-227.000,7552.000,551.000,-338.000,422.000,0.000,0.000,0
2026-01-30 23:24:21,1485894,7099.000,798.000,7094.000,-865.000,545.000,-407.000,0.000,0.000,0
2026-01-30 23:24:21,1485934,2221.000,-981.000,8188.000,768.000,-978.000,206.000,0.000,0.000,0
2026-01-30 23:24:21,1485974,5127.000,-505.000,6136.000,-432.000,-1779.000,362.000,0.000,0.000,0
2026-01-30 23:24:21,1486014,1542.000,-3211.000,8287.000,-1389.000,-232.000,-78.000,0.000,0.000,0
2026-01-30 23:24:21,1486054,3519.000,-1632.000,7483.000,-802.000,-902.000,501.000,0.000,0.000,0
2026-01-30 23:24:21,1486094,3386.000,-1467.000,7324.000,-502.000,-93.000,355.000,0.000,0.000,0
2026-01-30 23:24:21,1486134,4659.000,760.000,7457.000,-473.000,-647.000,491.000,0.000,0.000,0
2026-01-30 23:24:21,1486174,4291.000,-260.000,7956.000,-979.000,-608.000,376.000,0.000,0.000,0
2026-01-30 23:24:22,1486214,3077.000,87.000,7091.000,-394.000,-1217.000,516.000,0.000,0.000,0
2026-01-30 23:24:22,1486254,9037.000,1373.000,5109.000,-1311.000,-553.000,724.000,0.000,0.000,0
2026-01-30 23:24:22,1486294,-33.000,-2995.000,8469.000,-276.000,411.000,-166.000,0.000,0.000,0
2026-01-30 23:24:22,1486334,7638.000,-863.000,5672.000,-2375.000,833.000,-12.000,0.000,0.000,0
2026-01-30 23:24:22,1486374,4009.000,-303.000,7053.000,-121.000,612.000,-492.000,0.000,0.000,0
2026-01-30 23:24:22,1486414,4605.000,-668.000,7931.000,-98.000,-632.000,-23.000,0.000,0.000,0
2026-01-30 23:24:22,1486454,3548.000,-72.000,7325.000,-499.000,-612.000,-595.000,0.000,0.000,0
2026-01-30 23:24:22,1486494,5297.000,-1215.000,5160.000,515.000,-1351.000,181.000,0.000,0.000,0
2026-01-30 23:24:22,1486534,5620.000,-1200.000,6109.000,768.000,625.000,-2.000,0.000,0.000,0
2026-01-30 23:24:22,1486574,2088.000,-2019.000,6575.000,2511.000,48.000,163.000,0.000,0.000,0
2026-01-30 23:24:22,1486614,6900.000,-928.000,7065.000,142.000,-64.000,498.000,0.000,0.000,0
2026-01-30 23:24:22,1486654,3175.000,-1528.000,9555.000,-981.000,530.000,-121.000,0.000,0.000,0
2026-01-30 23:24:22,1486694,5306.000,524.000,8542.000,-265.000,-1185.000,-684.000,0.000,0.000,0
2026-01-30 23:24:22,1486734,1066.000,-110.000,9927.000,-753.000,-1257.000,-675.000,0.000,0.000,0
2026-01-30 23:24:22,1486774,2425.000,-1223.000,6783.000,-1132.000,-2031.000,-378.000,0.000,0.000,0
2026-01-30 23:24:22,1486814,4084.000,-681.000,6860.000,-339.000,1663.000,-616.000,0.000,0.000,0
2026-01-30 23:24:22,1486854,3047.000,249.000,8831.000,31.000,972.000,-426.000,0.000,0.000,0
2026-01-30 23:24:22,1486894,5179.000,222.000,7588.000,-543.000,650.000,-680.000,0.000,0.000,0
2026-01-30 23:24:22,1486934,791.000,-1356.000,9438.000,-777.000,-148.000,-1059.000,0.000,0.000,0
2026-01-30 23:24:22,1486974,7024.000,-57.000,4402.000,-1927.000,-856.000,-1023.000,0.000,0.000,0
2026-01-30 23:24:22,1487014,5041.000,-1242.000,4933.000,-1357.000,910.000,-1243.000,0.000,0.000,0
2026-01-30 23:24:22,1487054,5171.000,-1079.000,6878.000,-157.000,274.000,-902.000,0.000,0.000,0
2026-01-30 23:24:22,1487094,4156.000,-1623.000,8425.000,-479.000,851.000,-1096.000,0.000,0.000,0
2026-01-30 23:24:22,1487134,1617.000,-1281.000,8023.000,252.000,-90.000,-847.000,0.000,0.000,0
2026-01-30 23:24:22,1487174,5570.000,-762.000,6570.000,-943.000,516.000,-612.000,0.000,0.000,0
2026-01-30 23:24:23,1487214,4213.000,-737.000,6580.000,-244.000,891.000,-839.000,0.000,0.000,0
2026-01-30 23:24:23,1487254,5190.000,-572.000,6042.000,-289.000,265.000,-662.000,0.000,0.000,0
2026-01-30 23:24:23,1487294,4159.000,-200.000,7234.000,-837.000,731.000,-1011.000,0.000,0.000,0
2026-01-30 23:24:23,1487334,5027.000,-1563.000,6191.000,-1766.000,69.000,-604.000,0.000,0.000,0
2026-01-30 23:24:23,1487374,3640.000,-2325.000,6458.000,-144.000,459.000,-858.000,0.000,0.000,0
2026-01-30 23:24:23,1487414,4009.000,-2149.000,6816.000,1196.000,357.000,-778.000,0.000,0.000,0
2026-01-30 23:24:23,1487454,5625.000,-1438.000,7198.000,1143.000,558.000,-519.000,0.000,0.000,0
2026-01-30 23:24:23,1487494,2302.000,-2046.000,8088.000,1620.000,-40.000,-446.000,0.000,0.000,0
2026-01-30 23:24:23,1487534,2572.000,-1587.000,7367.000,1717.000,-437.000,88.000,0.000,0.000,0
2026-01-30 23:24:23,1487574,445.000,-2795.000,7479.000,163.000,173.000,-418.000,0.000,0.000,0
2026-01-30 23:24:23,1487614,3547.000,288.000,8266.000,983.000,43.000,193.000,0.000,0.000,0
2026-01-30 23:24:23,1487654,3823.000,-189.000,7144.000,174.000,623.000,-58.000,0.000,0.000,0
2026-01-30 23:24:23,1487694,2261.000,-1102.000,7096.000,689.000,-449.000,303.000,0.000,0.000,0
2026-01-30 23:24:23,1487734,7410.000,4.000,7271.000,534.000,712.000,-74.000,0.000,0.000,0
2026-01-30 23:24:23,1487774,709.000,-1253.000,6054.000,493.000,25.000,-630.000,0.000,0.000,0
2026-01-30 23:24:23,1487814,7036.000,-91.000,6861.000,130.000,245.000,-177.000,0.000,0.000,0
2026-01-30 23:24:23,1487854,3404.000,-693.000,7818.000,1243.000,-527.000,-131.000,0.000,0.000,0
2026-01-30 23:24:23,1487894,6021.000,-1022.000,6071.000,605.000,-452.000,304.000,0.000,0.000,0
2026-01-30 23:24:23,1487934,5660.000,-358.000,6997.000,2185.000,-212.000,-306.000,0.000,0.000,0
2026-01-30 23:24:23,1487974,4245.000,581.000,7715.000,1581.000,-1130.000,554.000,0.000,0.000,0
2026-01-30 23:24:23,1488014,6642.000,2373.000,6629.000,1270.000,-656.000,720.000,0.000,0.000,0
2026-01-30 23:24:23,1488054,3442.000,-112.000,8465.000,524.000,-453.000,1187.000,0.000,0.000,0
2026-01-30 23:24:23,1488094,3462.000,-2046.000,7845.000,-1408.000,112.000,610.000,0.000,0.000,0
2026-01-30 23:24:23,1488134,1963.000,225.000,8412.000,-486.000,583.000,603.000,0.000,0.000,0
2026-01-30 23:24:23,1488174,5388.000,241.000,7219.000,-1692.000,464.000,827.000,0.000,0.000,0
2026-01-30 23:24:24,1488214,3597.000,754.000,7667.000,-880.000,484.000,623.000,0.000,0.000,0
2026-01-30 23:24:24,1488254,4802.000,1226.000,7636.000,-923.000,-1011.000,635.000,0.000,0.000,0
2026-01-30 23:24:24,1488294,5141.000,124.000,5582.000,-735.000,-912.000,184.000,0.000,0.000,0
2026-01-30 23:24:24,1488334,5706.000,-1280.000,5858.000,84.000,-1.000,67.000,0.000,0.000,0
2026-01-30 23:24:24,1488374,4200.000,-973.000,7339.000,663.000,690.000,-28.000,0.000,0.000,0
2026-01-30 23:24:24,1488414,4929.000,-1443.000,6589.000,1575.000,-319.000,207.000,0.000,0.000,0
2026-01-30 23:24:24,1488454,4344.000,-490.000,7243.000,1710.000,-944.000,185.000,0.000,0.000,0
2026-01-30 23:24:24,1488494,2421.000,-1748.000,8952.000,89.000,-8.000,-169.000,0.000,0.000,0
2026-01-30 23:24:24,1488534,7120.000,3089.000,5877.000,2807.000,-1762.000,273.000,0.000,0.000,0
2026-01-30 23:24:24,1488574,2913.000,-814.000,6361.000,921.000,-219.000,451.000,0.000,0.000,0
2026-01-30 23:24:24,1488614,3861.000,122.000,7102.000,997.000,-356.000,184.000,0.000,0.000,0
2026-01-30 23:24:24,1488654,4775.000,60.000,6690.000,472.000,71.000,393.000,0.000,0.000,0
2026-01-30 23:24:24,1488694,3062.000,-1685.000,8897.000,-338.000,674.000,34.000,0.000,0.000,0
2026-01-30 23:24:24,1488734,5961.000,781.000,7697.000,331.000,-767.000,492.000,0.000,0.000,0
2026-01-30 23:24:24,1488774,3330.000,1691.000,6868.000,1313.000,-1444.000,367.000,0.000,0.000,0
2026-01-30 23:24:24,1488814,5567.000,-428.000,4053.000,881.000,-936.000,749.000,0.000,0.000,0
2026-01-30 23:24:24,1488854,4469.000,-3240.000,7217.000,-1574.000,1677.000,-72.000,0.000,0.000,0
2026-01-30 23:24:24,1488894,4720.000,-682.000,6920.000,640.000,97.000,-712.000,0.000,0.000,0
2026-01-30 23:24:24,1488934,6590.000,1815.000,6760.000,-53.000,386.000,-190.000,0.000,0.000,0
2026-01-30 23:24:24,1488974,3466.000,-406.000,9360.000,-738.000,50.000,-167.000,0.000,0.000,0
2026-01-30 23:24:24,1489014,3509.000,-316.000,8318.000,-945.000,-673.000,-34.000,0.000,0.000,0
2026-01-30 23:24:24,1489057,6065.000,1443.000,5013.000,-167.000,-437.000,797.000,0.000,0.000,0
2026-01-30 23:24:24,1489097,4299.000,-2724.000,7354.000,-1509.000,941.000,-392.000,0.000,0.000,0
2026-01-30 23:24:24,1489134,3478.000,625.000,7004.000,616.000,335.000,40.000,0.000,0.000,0
2026-01-30 23:24:24,1489174,4824.000,-1045.000,6143.000,-1353.000,496.000,-271.000,0.000,0.000,0
2026-01-30 23:24:25,1489214,3822.000,978.000,7653.000,287.000,68.000,-52.000,0.000,0.000,0
2026-01-30 23:24:25,1489254,9488.000,3303.000,6996.000,251.000,371.000,433.000,0.000,0.000,0
2026-01-30 23:24:25,1489294,2321.000,-2208.000,8869.000,884.000,-142.000,-196.000,0.000,0.000,0
2026-01-30 23:24:25,1489334,3545.000,-988.000,8954.000,477.000,-1430.000,294.000,0.000,0.000,0
2026-01-30 23:24:25,1489374,3848.000,-2583.000,7654.000,-1214.000,-1849.000,560.000,0.000,0.000,0
2026-01-30 23:24:25,1489414,6090.000,1185.000,8410.000,1177.000,-2626.000,289.000,0.000,0.000,0
2026-01-30 23:24:25,1489454,5975.000,600.000,6511.000,-1076.000,-1921.000,-1472.000,0.000,0.000,0
2026-01-30 23:24:25,1489494,5242.000,-1494.000,4310.000,-977.000,-86.000,-3186.000,0.000,0.000,0
2026-01-30 23:24:25,1489534,4538.000,1602.000,5241.000,10143.000,1560.000,-4008.000,0.000,0.000,0
2026-01-30 23:24:25,1489574,3318.000,3036.000,3112.000,3521.000,975.000,-1658.000,0.000,0.000,0
2026-01-30 23:24:25,1489614,6382.000,3010.000,6116.000,6117.000,1028.000,1977.000,0.000,0.000,0
2026-01-30 23:24:25,1489654,4428.000,1611.000,8939.000,18445.000,3418.000,2181.000,0.000,0.000,0
2026-01-30 23:24:25,1489694,3665.000,3987.000,3760.000,11264.000,2749.000,357.000,0.000,0.000,0
2026-01-30 23:24:25,1489734,4249.000,4994.000,2687.000,2054.000,1519.000,1586.000,0.000,0.000,0
2026-01-30 23:24:25,1489774,3895.000,4246.000,4259.000,-516.000,1404.000,3454.000,0.000,0.000,0
2026-01-30 23:24:25,1489814,3680.000,2973.000,4865.000,183.000,2006.000,2835.000,0.000,0.000,0
2026-01-30 23:24:25,1489854,4675.000,3833.000,9287.000,2489.000,271.000,1829.000,0.000,0.000,0
2026-01-30 23:24:25,1489894,5251.000,-5139.000,8353.000,3933.000,4089.000,2455.000,0.000,0.000,0
2026-01-30 23:24:25,1489934,3494.000,7516.000,8346.000,2408.000,354.000,-150.000,0.000,0.000,0
2026-01-30 23:24:25,1489974,5133.000,4125.000,4701.000,-1962.000,-2581.000,274.000,0.000,0.000,0
2026-01-30 23:24:25,1490014,6099.000,1717.000,5272.000,-2253.000,-724.000,495.000,0.000,0.000,0
2026-01-30 23:24:25,1490054,4896.000,2745.000,5959.000,-309.000,125.000,629.000,0.000,0.000,0
2026-01-30 23:24:25,1490094,3659.000,2263.000,7249.000,41.000,-44.000,238.000,0.000,0.000,0
2026-01-30 23:24:25,1490134,3013.000,841.000,6807.000,-1244.000,-633.000,342.000,0.000,0.000,0
2026-01-30 23:24:25,1490174,7869.000,1463.000,4934.000,-921.000,-212.000,696.000,0.000,0.000,0
2026-01-30 23:24:26,1490214,3372.000,2995.000,7119.000,874.000,250.000,-60.000,0.000,0.000,0
2026-01-30 23:24:26,1490254,6985.000,2577.000,6579.000,-1144.000,804.000,560.000,0.000,0.000,0
2026-01-30 23:24:26,1490294,3620.000,4383.000,6142.000,-943.000,-124.000,-1195.000,0.000,0.000,0
2026-01-30 23:24:26,1490334,5246.000,1774.000,7161.000,-783.000,565.000,-259.000,0.000,0.000,0
2026-01-30 23:24:26,1490374,4080.000,3052.000,7347.000,-316.000,157.000,-457.000,0.000,0.000,0
2026-01-30 23:24:26,1490414,3306.000,1467.000,4896.000,-931.000,-1311.000,121.000,0.000,0.000,0
2026-01-30 23:24:26,1490454,4164.000,57.000,6598.000,-1473.000,465.000,843.000,0.000,0.000,0
2026-01-30 23:24:26,1490494,3693.000,1938.000,5484.000,-494.000,-62.000,-369.000,0.000,0.000,0
2026-01-30 23:24:26,1490534,8857.000,329.000,7977.000,-848.000,1348.000,730.000,0.000,0.000,0
2026-01-30 23:24:26,1490574,3671.000,2595.000,4624.000,-591.000,-523.000,-1670.000,0.000,0.000,0
2026-01-30 23:24:26,1490614,3664.000,997.000,6194.000,1183.000,-231.000,575.000,0.000,0.000,0
2026-01-30 23:24:26,1490654,3824.000,1432.000,4739.000,1253.000,588.000,347.000,0.000,0.000,0
2026-01-30 23:24:26,1490694,5593.000,79.000,7184.000,700.000,-888.000,50.000,0.000,0.000,0
2026-01-30 23:24:26,1490734,4875.000,4146.000,7848.000,1479.000,-171.000,89.000,0.000,0.000,0
2026-01-30 23:24:26,1490774,4231.000,4249.000,6025.000,1658.000,-366.000,24.000,0.000,0.000,0
2026-01-30 23:24:26,1490814,3651.000,1419.000,7145.000,297.000,464.000,410.000,0.000,0.000,0
2026-01-30 23:24:26,1490854,2960.000,3489.000,5815.000,1285.000,-516.000,-68.000,0.000,0.000,0
2026-01-30 23:24:26,1490894,7016.000,3504.000,5529.000,1497.000,198.000,1284.000,0.000,0.000,0
2026-01-30 23:24:26,1490934,5287.000,2225.000,5425.000,671.000,100.000,73.000,0.000,0.000,0
2026-01-30 23:24:26,1490974,4412.000,4735.000,5835.000,1402.000,-526.000,-472.000,0.000,0.000,0
2026-01-30 23:24:26,1491014,3906.000,1724.000,4964.000,802.000,269.000,-164.000,0.000,0.000,0
2026-01-30 23:24:26,1491057,3644.000,1655.000,5042.000,474.000,-405.000,490.000,0.000,0.000,0
2026-01-30 23:24:26,1491096,6233.000,-694.000,5304.000,-667.000,541.000,1172.000,0.000,0.000,0
2026-01-30 23:24:26,1491134,5965.000,2839.000,5982.000,50.000,166.000,94.000,0.000,0.000,0
2026-01-30 23:24:26,1491174,8213.000,2226.000,5856.000,1404.000,1156.000,23.000,0.000,0.000,0
2026-01-30 23:24:27,1491214,674.000,2662.000,5882.000,481.000,-1352.000,-743.000,0.000,0.000,0
2026-01-30 23:24:27,1491254,6012.000,3182.000,6357.000,1772.000,-400.000,1860.000,0.000,0.000,0
2026-01-30 23:24:27,1491294,4959.000,1558.000,6217.000,1248.000,785.000,1120.000,0.000,0.000,0
2026-01-30 23:24:27,1491337,4963.000,4392.000,7297.000,540.000,240.000,55.000,0.000,0.000,0
2026-01-30 23:24:27,1491374,5103.000,2548.000,5810.000,273.000,951.000,300.000,0.000,0.000,0
2026-01-30 23:24:27,1491414,2186.000,5279.000,6825.000,-286.000,142.000,-271.000,0.000,0.000,0
2026-01-30 23:24:27,1491454,3600.000,2030.000,5426.000,-946.000,604.000,611.000,0.000,0.000,0
2026-01-30 23:24:27,1491494,9007.000,6769.000,5790.000,258.000,490.000,534.000,0.000,0.000,0
2026-01-30 23:24:27,1491534,-1091.000,-2763.000,4023.000,-1200.000,393.000,-739.000,0.000,0.000,0
2026-01-30 23:24:27,1491574,11152.000,10781.000,9171.000,243.000,373.000,330.000,0.000,0.000,0
2026-01-30 23:24:27,1491614,2236.000,5121.000,5894.000,-818.000,-617.000,-899.000,0.000,0.000,0
2026-01-30 23:24:27,1491654,5097.000,1084.000,4262.000,-1411.000,-304.000,-349.000,0.000,0.000,0
2026-01-30 23:24:27,1491694,4242.000,3161.000,5931.000,349.000,530.000,-348.000,0.000,0.000,0
2026-01-30 23:24:27,1491734,5379.000,-67.000,6235.000,-184.000,919.000,345.000,0.000,0.000,0
2026-01-30 23:24:27,1491774,6051.000,3209.000,6288.000,241.000,-929.000,-10.000,0.000,0.000,0
2026-01-30 23:24:27,1491814,1341.000,2721.000,7238.000,-59.000,-2202.000,462.000,0.000,0.000,0
2026-01-30 23:24:27,1491854,7731.000,2214.000,3868.000,482.000,-832.000,1040.000,0.000,0.000,0
2026-01-30 23:24:27,1491894,1497.000,2233.000,6224.000,1921.000,-540.000,-603.000,0.000,0.000,0
2026-01-30 23:24:27,1491934,11957.000,-505.000,6621.000,842.000,1943.000,799.000,0.000,0.000,0
2026-01-30 23:24:27,1491974,3363.000,2156.000,5423.000,2618.000,-364.000,-1868.000,0.000,0.000,0
2026-01-30 23:24:27,1492014,5947.000,3353.000,6927.000,2863.000,323.000,68.000,0.000,0.000,0
2026-01-30 23:24:27,1492054,4841.000,1921.000,6432.000,2280.000,-263.000,964.000,0.000,0.000,0
2026-01-30 23:24:27,1492094,5212.000,3061.000,5167.000,2036.000,-597.000,626.000,0.000,0.000,0
2026-01-30 23:24:27,1492134,6945.000,43.000,6168.000,2277.000,508.000,665.000,0.000,0.000,0
2026-01-30 23:24:27,1492174,2194.000,2833.000,5902.000,2665.000,915.000,-150.000,0.000,0.000,0
2026-01-30 23:24:28,1492214,4202.000,3508.000,7140.000,2093.000,2445.000,898.000,0.000,0.000,0
2026-01-30 23:24:28,1492254,4777.000,8773.000,10502.000,572.000,2387.000,1262.000,0.000,0.000,0
2026-01-30 23:24:28,1492294,3071.000,4199.000,7247.000,-1330.000,666.000,1215.000,0.000,0.000,0
2026-01-30 23:24:28,1492334,2395.000,4966.000,5143.000,-843.000,-1016.000,552.000,0.000,0.000,0
2026-01-30 23:24:28,1492374,3996.000,1928.000,4088.000,-1504.000,726.000,890.000,0.000,0.000,0
2026-01-30 23:24:28,1492414,6206.000,6004.000,6376.000,-727.000,1314.000,634.000,0.000,0.000,0
2026-01-30 23:24:28,1492454,4557.000,5504.000,6617.000,-1031.000,0.000,-18.000,0.000,0.000,0
2026-01-30 23:24:28,1492494,2892.000,1392.000,4645.000,-1570.000,-721.000,-127.000,0.000,0.000,0
2026-01-30 23:24:28,1492534,2097.000,855.000,6143.000,-157.000,265.000,-449.000,0.000,0.000,0
2026-01-30 23:24:28,1492574,6843.000,2364.000,5850.000,968.000,344.000,1030.000,0.000,0.000,0
2026-01-30 23:24:28,1492614,6450.000,1985.000,6792.000,1710.000,-550.000,733.000,0.000,0.000,0
2026-01-30 23:24:28,1492654,1637.000,2514.000,5203.000,-745.000,-1999.000,-769.000,0.000,0.000,0
2026-01-30 23:24:28,1492694,5852.000,7977.000,8773.000,563.000,-2663.000,1880.000,0.000,0.000,0
2026-01-30 23:24:28,1492734,1273.000,-3142.000,3933.000,-1288.000,439.000,1207.000,0.000,0.000,0
2026-01-30 23:24:28,1492774,10154.000,3015.000,6630.000,895.000,797.000,823.000,0.000,0.000,0
2026-01-30 23:24:28,1492814,-772.000,3494.000,5413.000,1409.000,115.000,-1615.000,0.000,0.000,0
2026-01-30 23:24:28,1492854,7343.000,2701.000,6124.000,1179.000,813.000,1392.000,0.000,0.000,0
2026-01-30 23:24:28,1492894,4381.000,1117.000,5739.000,1135.000,38.000,1082.000,0.000,0.000,0
2026-01-30 23:24:28,1492934,3339.000,2152.000,6845.000,24.000,-867.000,271.000,0.000,0.000,0
2026-01-30 23:24:28,1492974,8923.000,2625.000,4023.000,1089.000,1659.000,1152.000,0.000,0.000,0
2026-01-30 23:24:28,1493014,1279.000,7906.000,8795.000,1343.000,786.000,-991.000,0.000,0.000,0
2026-01-30 23:24:28,1493054,2244.000,-1188.000,6252.000,-478.000,1326.000,846.000,0.000,0.000,0
2026-01-30 23:24:28,1493094,6506.000,-1646.000,4496.000,704.000,2687.000,695.000,0.000,0.000,0
2026-01-30 23:24:28,1493134,-1484.000,6453.000,5852.000,274.000,-917.000,-474.000,0.000,0.000,0
2026-01-30 23:24:28,1493174,14554.000,-1465.000,5667.000,1675.000,5915.000,3085.000,0.000,0.000,0
2026-01-30 23:24:29,1493214,2838.000,13669.000,16157.000,2512.000,-181.000,-1157.000,0.000,0.000,0
2026-01-30 23:24:29,1493254,-865.000,-7616.000,3232.000,-4254.000,1054.000,-1022.000,0.000,0.000,0
2026-01-30 23:24:29,1493294,4562.000,-1694.000,4278.000,286.000,550.000,858.000,0.000,0.000,0
2026-01-30 23:24:29,1493337,4224.000,1365.000,6842.000,307.000,1613.000,1108.000,0.000,0.000,0
2026-01-30 23:24:29,1493374,6775.000,3141.000,4674.000,915.000,1143.000,917.000,0.000,0.000,0
2026-01-30 23:24:29,1493414,2482.000,2859.000,6698.000,97.000,-832.000,600.000,0.000,0.000,0
2026-01-30 23:24:29,1493454,9126.000,3126.000,3947.000,-1603.000,1470.000,-497.000,0.000,0.000,0
2026-01-30 23:24:29,1493494,2824.000,4044.000,8570.000,1413.000,625.000,1082.000,0.000,0.000,0
2026-01-30 23:24:29,1493534,5150.000,3206.000,7191.000,-248.000,66.000,1470.000,0.000,0.000,0
2026-01-30 23:24:29,1493574,4876.000,4052.000,6099.000,-857.000,-1665.000,957.000,0.000,0.000,0
2026-01-30 23:24:29,1493614,3611.000,3458.000,6414.000,-1023.000,-753.000,759.000,0.000,0.000,0
2026-01-30 23:24:29,1493654,3986.000,2634.000,5358.000,-934.000,-1012.000,1049.000,0.000,0.000,0
2026-01-30 23:24:29,1493694,6342.000,2490.000,5097.000,391.000,1208.000,602.000,0.000,0.000,0
2026-01-30 23:24:29,1493734,4723.000,2194.000,6319.000,-719.000,795.000,-657.000,0.000,0.000,0
2026-01-30 23:24:29,1493774,3395.000,936.000,6649.000,-300.000,841.000,-230.000,0.000,0.000,0
2026-01-30 23:24:29,1493814,4673.000,2620.000,6974.000,881.000,511.000,812.000,0.000,0.000,0
2026-01-30 23:24:29,1493854,5276.000,430.000,5059.000,699.000,-684.000,1274.000,0.000,0.000,0
2026-01-30 23:24:29,1493894,6505.000,3864.000,7720.000,820.000,-684.000,272.000,0.000,0.000,0
2026-01-30 23:24:29,1493934,3773.000,2154.000,7263.000,683.000,-1106.000,828.000,0.000,0.000,0
2026-01-30 23:24:29,1493974,5162.000,3136.000,6550.000,1174.000,-513.000,838.000,0.000,0.000,0
2026-01-30 23:24:29,1494014,4137.000,2808.000,6329.000,939.000,-383.000,379.000,0.000,0.000,0
2026-01-30 23:24:29,1494054,3886.000,4202.000,7010.000,-422.000,688.000,-367.000,0.000,0.000,0
2026-01-30 23:24:29,1494094,2302.000,3278.000,6259.000,-935.000,654.000,-30.000,0.000,0.000,0
2026-01-30 23:24:29,1494134,3694.000,4477.000,6427.000,-1624.000,368.000,153.000,0.000,0.000,0
2026-01-30 23:24:29,1494174,4093.000,3957.000,6432.000,-1799.000,-540.000,546.000,0.000,0.000,0
2026-01-30 23:24:30,1494214,3498.000,3225.000,4756.000,-2239.000,-368.000,82.000,0.000,0.000,0
2026-01-30 23:24:30,1494254,4719.000,2221.000,5096.000,-2100.000,524.000,-178.000,0.000,0.000,0
2026-01-30 23:24:30,1494294,4824.000,2252.000,6823.000,-1833.000,369.000,126.000,0.000,0.000,0
2026-01-30 23:24:30,1494334,4621.000,2236.000,5381.000,-1432.000,365.000,-637.000,0.000,0.000,0
2026-01-30 23:24:30,1494374,3739.000,2997.000,7853.000,-1397.000,969.000,-486.000,0.000,0.000,0
2026-01-30 23:24:30,1494414,4786.000,1518.000,5361.000,-1582.000,-865.000,616.000,0.000,0.000,0
2026-01-30 23:24:30,1494454,4363.000,995.000,5549.000,-377.000,-60.000,-121.000,0.000,0.000,0
2026-01-30 23:24:30,1494494,5219.000,1288.000,6805.000,-165.000,341.000,138.000,0.000,0.000,0
2026-01-30 23:24:30,1494534,4983.000,1982.000,6413.000,755.000,-194.000,100.000,0.000,0.000,0
2026-01-30 23:24:30,1494574,4682.000,1750.000,7376.000,976.000,239.000,163.000,0.000,0.000,0
2026-01-30 23:24:30,1494614,4269.000,1051.000,7524.000,446.000,53.000,998.000,0.000,0.000,0
2026-01-30 23:24:30,1494654,4644.000,1842.000,6070.000,419.000,-673.000,1741.000,0.000,0.000,0
2026-01-30 23:24:30,1494694,5225.000,1911.000,6122.000,433.000,-205.000,1161.000,0.000,0.000,0
2026-01-30 23:24:30,1494734,5426.000,3173.000,7427.000,653.000,1015.000,812.000,0.000,0.000,0
2026-01-30 23:24:30,1494774,3655.000,2090.000,6184.000,-354.000,-198.000,-18.000,0.000,0.000,0
2026-01-30 23:24:30,1494814,3456.000,1514.000,6392.000,-1012.000,194.000,254.000,0.000,0.000,0
2026-01-30 23:24:30,1494854,3992.000,2120.000,6376.000,-773.000,127.000,603.000,0.000,0.000,0
2026-01-30 23:24:30,1494894,4848.000,2364.000,6059.000,-1218.000,-297.000,479.000,0.000,0.000,0
2026-01-30 23:24:30,1494934,3612.000,1142.000,5883.000,-1399.000,15.000,-189.000,0.000,0.000,0
2026-01-30 23:24:30,1494974,4939.000,2409.000,7969.000,-1411.000,1038.000,-398.000,0.000,0.000,0
2026-01-30 23:24:30,1495014,3606.000,2379.000,5883.000,-2109.000,-386.000,-470.000,0.000,0.000,0
2026-01-30 23:24:30,1495054,4008.000,1898.000,6812.000,-2084.000,-294.000,-316.000,0.000,0.000,0
2026-01-30 23:24:30,1495094,5104.000,1890.000,7074.000,-1187.000,-177.000,-93.000,0.000,0.000,0
2026-01-30 23:24:30,1495134,3825.000,2053.000,6594.000,-769.000,-736.000,-251.000,0.000,0.000,0
2026-01-30 23:24:30,1495174,3511.000,2161.000,7867.000,-1026.000,-23.000,-543.000,0.000,0.000,0
2026-01-30 23:24:31,1495214,4151.000,735.000,7669.000,-659.000,672.000,-844.000,0.000,0.000,0
2026-01-30 23:24:31,1495254,1114.000,2364.000,6147.000,-310.000,-402.000,-2575.000,0.000,0.000,0
2026-01-30 23:24:31,1495294,5544.000,2947.000,5924.000,-418.000,483.000,-1245.000,0.000,0.000,0
2026-01-30 23:24:31,1495337,8347.000,1499.000,7750.000,1325.000,2153.000,-437.000,0.000,0.000,0
2026-01-30 23:24:31,1495374,2749.000,1354.000,6799.000,1717.000,1938.000,-1280.000,0.000,0.000,0
2026-01-30 23:24:31,1495414,3602.000,2996.000,6586.000,189.000,94.000,-1649.000,0.000,0.000,0
2026-01-30 23:24:31,1495454,5279.000,2655.000,5814.000,-645.000,112.000,-1120.000,0.000,0.000,0
2026-01-30 23:24:31,1495494,4082.000,2623.000,6459.000,-129.000,119.000,-873.000,0.000,0.000,0
2026-01-30 23:24:31,1495534,4292.000,1639.000,5116.000,-433.000,454.000,-982.000,0.000,0.000,0
2026-01-30 23:24:31,1495574,4010.000,1261.000,6012.000,-1160.000,-690.000,-452.000,0.000,0.000,0
2026-01-30 23:24:31,1495614,6519.000,2376.000,6457.000,-746.000,-450.000,-890.000,0.000,0.000,0
2026-01-30 23:24:31,1495654,2184.000,3373.000,7656.000,-630.000,-338.000,-1747.000,0.000,0.000,0
2026-01-30 23:24:31,1495694,5832.000,-451.000,6415.000,-1719.000,154.000,-863.000,0.000,0.000,0
2026-01-30 23:24:31,1495734,4770.000,2653.000,6551.000,402.000,-29.000,-1314.000,0.000,0.000,0
2026-01-30 23:24:31,1495774,4939.000,2035.000,6706.000,-1046.000,-408.000,-1186.000,0.000,0.000,0
2026-01-30 23:24:31,1495814,3782.000,2929.000,6487.000,-627.000,-1560.000,-722.000,0.000,0.000,0
2026-01-30 23:24:31,1495854,3471.000,3288.000,5987.000,-743.000,-1393.000,-855.000,0.000,0.000,0
2026-01-30 23:24:31,1495894,5248.000,3744.000,7659.000,517.000,544.000,-1095.000,0.000,0.000,0
2026-01-30 23:24:31,1495934,4498.000,3628.000,7511.000,-965.000,1050.000,-1282.000,0.000,0.000,0
2026-01-30 23:24:31,1495974,3807.000,1769.000,7028.000,-401.000,354.000,-1300.000,0.000,0.000,0
2026-01-30 23:24:31,1496014,4366.000,3306.000,6952.000,269.000,335.000,-963.000,0.000,0.000,0
2026-01-30 23:24:31,1496054,3183.000,2878.000,6559.000,-416.000,10.000,-888.000,0.000,0.000,0
2026-01-30 23:24:31,1496094,5089.000,2177.000,6302.000,-23.000,132.000,-441.000,0.000,0.000,0
2026-01-30 23:24:31,1496134,4977.000,2181.000,7558.000,381.000,11.000,-184.000,0.000,0.000,0
2026-01-30 23:24:31,1496174,3372.000,2107.000,6554.000,130.000,-222.000,-876.000,0.000,0.000,0
2026-01-30 23:24:32,1496214,3433.000,2798.000,7032.000,-88.000,47.000,-861.000,0.000,0.000,0
2026-01-30 23:24:32,1496254,4052.000,2296.000,7308.000,-60.000,325.000,-919.000,0.000,0.000,0
2026-01-30 23:24:32,1496294,2525.000,2548.000,8009.000,40.000,232.000,-1260.000,0.000,0.000,0
2026-01-30 23:24:32,1496334,3719.000,3338.000,6818.000,-1355.000,-2339.000,-1367.000,0.000,0.000,0
2026-01-30 23:24:32,1496374,3433.000,3899.000,5639.000,-1354.000,-1717.000,-1174.000,0.000,0.000,0
2026-01-30 23:24:32,1496414,4731.000,4114.000,6010.000,-1917.000,-1306.000,-1138.000,0.000,0.000,0
2026-01-30 23:24:32,1496454,4961.000,2084.000,5902.000,-1699.000,-744.000,-1139.000,0.000,0.000,0
2026-01-30 23:24:32,1496494,3728.000,1349.000,7259.000,-708.000,91.000,-783.000,0.000,0.000,0
2026-01-30 23:24:32,1496534,4244.000,764.000,6917.000,-867.000,45.000,-568.000,0.000,0.000,0
2026-01-30 23:24:32,1496574,4229.000,1166.000,6770.000,-713.000,-323.000,-480.000,0.000,0.000,0
2026-01-30 23:24:32,1496614,5019.000,1726.000,6831.000,-362.000,-1020.000,128.000,0.000,0.000,0
2026-01-30 23:24:32,1496654,4116.000,1084.000,6881.000,-655.000,-1434.000,284.000,0.000,0.000,0
2026-01-30 23:24:32,1496694,4691.000,2499.000,6770.000,452.000,-478.000,619.000,0.000,0.000,0
2026-01-30 23:24:32,1496734,4600.000,1717.000,6969.000,603.000,56.000,208.000,0.000,0.000,0
2026-01-30 23:24:32,1496774,4115.000,2428.000,6491.000,1035.000,486.000,-288.000,0.000,0.000,0
2026-01-30 23:24:32,1496814,3847.000,4324.000,8024.000,3.000,62.000,105.000,0.000,0.000,0
2026-01-30 23:24:32,1496854,4550.000,3287.000,6947.000,-261.000,-234.000,316.000,0.000,0.000,0
2026-01-30 23:24:32,1496894,3404.000,3966.000,6872.000,-1410.000,-501.000,-159.000,0.000,0.000,0
2026-01-30 23:24:32,1496934,4674.000,3931.000,6798.000,-1447.000,-461.000,-119.000,0.000,0.000,0
2026-01-30 23:24:32,1496974,3261.000,993.000,5735.000,-2172.000,-552.000,-643.000,0.000,0.000,0
2026-01-30 23:24:32,1497014,4599.000,2516.000,6513.000,-1285.000,241.000,-328.000,0.000,0.000,0
2026-01-30 23:24:32,1497057,4895.000,1939.000,6766.000,-1479.000,-462.000,-514.000,0.000,0.000,0
2026-01-30 23:24:32,1497096,3985.000,1867.000,6408.000,-537.000,-698.000,-1150.000,0.000,0.000,0
2026-01-30 23:24:32,1497134,4455.000,1009.000,6128.000,-690.000,-975.000,-883.000,0.000,0.000,0
2026-01-30 23:24:32,1497174,3488.000,807.000,5596.000,46.000,-799.000,-168.000,0.000,0.000,0
2026-01-30 23:24:33,1497214,5504.000,932.000,6591.000,813.000,-155.000,-71.000,0.000,0.000,0
2026-01-30 23:24:33,1497254,4231.000,1299.000,6999.000,1077.000,-136.000,-965.000,0.000,0.000,0
2026-01-30 23:24:33,1497294,4687.000,2102.000,7143.000,1079.000,19.000,-1180.000,0.000,0.000,0
2026-01-30 23:24:33,1497337,3860.000,2085.000,7687.000,1188.000,-340.000,-519.000,0.000,0.000,0
2026-01-30 23:24:33,1497374,4408.000,1919.000,7217.000,694.000,-475.000,-504.000,0.000,0.000,0
2026-01-30 23:24:33,1497414,4129.000,2560.000,6937.000,250.000,-762.000,-497.000,0.000,0.000,0
2026-01-30 23:24:33,1497454,4645.000,1961.000,6517.000,-300.000,-565.000,-898.000,0.000,0.000,0
2026-01-30 23:24:33,1497494,3903.000,2851.000,6859.000,-522.000,43.000,-863.000,0.000,0.000,0
2026-01-30 23:24:33,1497534,4515.000,1663.000,6956.000,-389.000,242.000,-1042.000,0.000,0.000,0
2026-01-30 23:24:33,1497574,4855.000,2252.000,6565.000,-411.000,369.000,-996.000,0.000,0.000,0
2026-01-30 23:24:33,1497614,4406.000,2167.000,5874.000,-485.000,-222.000,-867.000,0.000,0.000,0
2026-01-30 23:24:33,1497654,5863.000,2140.000,5772.000,-82.000,6.000,-448.000,0.000,0.000,0
2026-01-30 23:24:33,1497694,5021.000,1920.000,5661.000,-693.000,433.000,-1174.000,0.000,0.000,0
2026-01-30 23:24:33,1497734,4888.000,1336.000,6519.000,-1331.000,519.000,-1421.000,0.000,0.000,0
2026-01-30 23:24:33,1497774,4102.000,1076.000,7204.000,-543.000,-518.000,-399.000,0.000,0.000,0
2026-01-30 23:24:33,1497814,4675.000,2158.000,6978.000,1101.000,-71.000,83.000,0.000,0.000,0
2026-01-30 23:24:33,1497854,3815.000,2518.000,7901.000,707.000,-295.000,-449.000,0.000,0.000,0
2026-01-30 23:24:33,1497894,4768.000,2951.000,6603.000,863.000,3.000,-416.000,0.000,0.000,0
2026-01-30 23:24:33,1497934,2725.000,2382.000,6989.000,209.000,284.000,-603.000,0.000,0.000,0
2026-01-30 23:24:33,1497974,4262.000,4022.000,6455.000,-209.000,-49.000,-247.000,0.000,0.000,0
2026-01-30 23:24:33,1498014,4601.000,3346.000,6466.000,-1393.000,180.000,-296.000,0.000,0.000,0
2026-01-30 23:24:33,1498054,3594.000,3416.000,6595.000,-1063.000,761.000,-673.000,0.000,0.000,0
2026-01-30 23:24:33,1498094,4146.000,2803.000,6348.000,-1463.000,536.000,-691.000,0.000,0.000,0
2026-01-30 23:24:33,1498134,5453.000,2139.000,6800.000,-1413.000,380.000,-333.000,0.000,0.000,0
2026-01-30 23:24:33,1498174,3755.000,3488.000,7751.000,-513.000,-100.000,-578.000,0.000,0.000,0
2026-01-30 23:24:34,1498214,4073.000,430.000,5535.000,-1035.000,-670.000,-10.000,0.000,0.000,0
2026-01-30 23:24:34,1498254,5272.000,2401.000,6684.000,-56.000,-224.000,-290.000,0.000,0.000,0
2026-01-30 23:24:34,1498294,4783.000,1664.000,6203.000,-181.000,-641.000,-198.000,0.000,0.000,0
2026-01-30 23:24:34,1498334,4391.000,1909.000,6230.000,74.000,-589.000,134.000,0.000,0.000,0
2026-01-30 23:24:34,1498374,4777.000,1817.000,6397.000,169.000,-480.000,-2.000,0.000,0.000,0
2026-01-30 23:24:34,1498414,4252.000,2066.000,6360.000,498.000,-119.000,-182.000,0.000,0.000,0
2026-01-30 23:24:34,1498454,4512.000,2681.000,6907.000,124.000,-221.000,-36.000,0.000,0.000,0
2026-01-30 23:24:34,1498494,5952.000,2454.000,5960.000,80.000,114.000,424.000,0.000,0.000,0
2026-01-30 23:24:34,1498534,3901.000,2681.000,8009.000,-175.000,496.000,167.000,0.000,0.000,0
2026-01-30 23:24:34,1498574,3704.000,3425.000,7249.000,-1237.000,-384.000,463.000,0.000,0.000,0
2026-01-30 23:24:34,1498614,3524.000,1725.000,5330.000,-1527.000,-145.000,-229.000,0.000,0.000,0
2026-01-30 23:24:34,1498654,4910.000,2027.000,7032.000,-940.000,1249.000,-596.000,0.000,0.000,0
2026-01-30 23:24:34,1498694,4813.000,3326.000,6075.000,-671.000,615.000,-1183.000,0.000,0.000,0
2026-01-30 23:24:34,1498734,3981.000,2634.000,6524.000,-1026.000,131.000,-399.000,0.000,0.000,0
2026-01-30 23:24:34,1498774,4940.000,2343.000,6382.000,-1011.000,-526.000,-135.000,0.000,0.000,0
2026-01-30 23:24:34,1498814,4679.000,555.000,5533.000,-679.000,-384.000,-468.000,0.000,0.000,0
2026-01-30 23:24:34,1498854,5899.000,2707.000,6547.000,169.000,21.000,-171.000,0.000,0.000,0
2026-01-30 23:24:34,1498894,4510.000,1204.000,6035.000,306.000,-334.000,-325.000,0.000,0.000,0
2026-01-30 23:24:34,1498934,4437.000,1918.000,6553.000,296.000,-232.000,-403.000,0.000,0.000,0
2026-01-30 23:24:34,1498974,5298.000,1342.000,6879.000,217.000,-739.000,330.000,0.000,0.000,0
2026-01-30 23:24:34,1499014,4774.000,2175.000,6174.000,1039.000,-747.000,225.000,0.000,0.000,0
2026-01-30 23:24:34,1499057,5097.000,1710.000,6234.000,1166.000,-281.000,31.000,0.000,0.000,0
2026-01-30 23:24:34,1499094,3263.000,1338.000,6673.000,1364.000,-388.000,186.000,0.000,0.000,0
2026-01-30 23:24:34,1499145,4796.000,1679.000,7182.000,1604.000,168.000,-204.000,0.000,0.000,0
2026-01-30 23:24:34,1499174,5141.000,2290.000,6401.000,1605.000,333.000,-369.000,0.000,0.000,0
2026-01-30 23:24:35,1499214,4483.000,2116.000,6650.000,1046.000,-81.000,76.000,0.000,0.000,0
2026-01-30 23:24:35,1499254,4415.000,2633.000,6595.000,621.000,11.000,-198.000,0.000,0.000,0
2026-01-30 23:24:35,1499294,2557.000,2789.000,7516.000,-225.000,138.000,-427.000,0.000,0.000,0
2026-01-30 23:24:35,1499337,2949.000,2383.000,5883.000,-2592.000,141.000,-151.000,0.000,0.000,0
2026-01-30 23:24:35,1499376,4335.000,4144.000,6321.000,-2373.000,-432.000,-214.000,0.000,0.000,0
2026-01-30 23:24:35,1499414,5037.000,614.000,4530.000,-2001.000,253.000,-640.000,0.000,0.000,0
2026-01-30 23:24:35,1499454,5771.000,1794.000,6109.000,-1158.000,1436.000,-1059.000,0.000,0.000,0
2026-01-30 23:24:35,1499494,5230.000,3513.000,6912.000,-365.000,571.000,-1261.000,0.000,0.000,0
2026-01-30 23:24:35,1499534,4043.000,2663.000,7377.000,-743.000,-20.000,-605.000,0.000,0.000,0
2026-01-30 23:24:35,1499574,2974.000,3178.000,6699.000,-1241.000,-879.000,-752.000,0.000,0.000,0
2026-01-30 23:24:35,1499614,4528.000,1365.000,7116.000,-1785.000,117.000,-594.000,0.000,0.000,0
2026-01-30 23:24:35,1499654,2670.000,2273.000,6818.000,-2363.000,151.000,-1671.000,0.000,0.000,0
2026-01-30 23:24:35,1499694,3539.000,3748.000,7246.000,-2294.000,240.000,-1086.000,0.000,0.000,0
2026-01-30 23:24:35,1499734,3997.000,3241.000,7150.000,-2292.000,252.000,-1314.000,0.000,0.000,0
2026-01-30 23:24:35,1499774,4425.000,4850.000,7062.000,-2431.000,59.000,-2119.000,0.000,0.000,0
2026-01-30 23:24:35,1499814,4450.000,2215.000,5703.000,-2520.000,-366.000,-1661.000,0.000,0.000,0
2026-01-30 23:24:35,1499854,4921.000,2079.000,7015.000,-1977.000,-441.000,-1611.000,0.000,0.000,0
2026-01-30 23:24:35,1499894,6176.000,1314.000,7605.000,-1526.000,-238.000,-1222.000,0.000,0.000,0
2026-01-30 23:24:35,1499934,2885.000,1308.000,5652.000,-995.000,-273.000,-2216.000,0.000,0.000,0
2026-01-30 23:24:35,1499974,4976.000,1240.000,7375.000,-1112.000,-554.000,-1341.000,0.000,0.000,0
2026-01-30 23:24:35,1500014,4110.000,1034.000,6083.000,-241.000,-464.000,-953.000,0.000,0.000,0
2026-01-30 23:24:35,1500054,5332.000,1736.000,6253.000,71.000,-628.000,-1163.000,0.000,0.000,0
2026-01-30 23:24:35,1500094,2416.000,171.000,5185.000,22.000,-400.000,-1490.000,0.000,0.000,0
2026-01-30 23:24:35,1500134,4670.000,-329.000,6994.000,109.000,580.000,-456.000,0.000,0.000,0
2026-01-30 23:24:35,1500174,4183.000,3575.000,7368.000,283.000,-177.000,-2132.000,0.000,0.000,0
2026-01-30 23:24:36,1500214,5605.000,1914.000,5598.000,-608.000,-599.000,-1755.000,0.000,0.000,0
2026-01-30 23:24:36,1500254,4326.000,4111.000,7153.000,-265.000,-635.000,-1902.000,0.000,0.000,0
2026-01-30 23:24:36,1500294,3783.000,2498.000,6784.000,347.000,-959.000,-1029.000,0.000,0.000,0
2026-01-30 23:24:36,1500334,3177.000,1202.000,6848.000,258.000,-2.000,-1282.000,0.000,0.000,0
2026-01-30 23:24:36,1500374,4486.000,1169.000,6819.000,940.000,612.000,-982.000,0.000,0.000,0
2026-01-30 23:24:36,1500414,11494.000,9037.000,13378.000,1983.000,2021.000,-1271.000,0.000,0.000,0
2026-01-30 23:24:36,1500454,-3716.000,-2797.000,3238.000,-1724.000,-1000.000,-4559.000,0.000,0.000,0
2026-01-30 23:24:36,1500494,4877.000,7041.000,3719.000,-2946.000,-3038.000,-1699.000,0.000,0.000,0
2026-01-30 23:24:36,1500534,13730.000,-2825.000,6576.000,-2519.000,-48.000,2724.000,0.000,0.000,0
2026-01-30 23:24:36,1500574,1486.000,2568.000,7068.000,-1573.000,-546.000,-4867.000,0.000,0.000,0
2026-01-30 23:24:36,1500614,2222.000,4419.000,7503.000,950.000,4.000,-1513.000,0.000,0.000,0
2026-01-30 23:24:36,1500654,6827.000,2074.000,6814.000,-878.000,426.000,227.000,0.000,0.000,0
2026-01-30 23:24:36,1500694,4169.000,-992.000,6366.000,331.000,2586.000,-1259.000,0.000,0.000,0
2026-01-30 23:24:36,1500734,2945.000,9320.000,9048.000,-269.000,1013.000,-2907.000,0.000,0.000,0
2026-01-30 23:24:36,1500774,2269.000,-4297.000,3546.000,-951.000,-1319.000,1941.000,0.000,0.000,0
2026-01-30 23:24:36,1500814,7994.000,2828.000,4314.000,1768.000,423.000,-189.000,0.000,0.000,0
2026-01-30 23:24:36,1500854,326.000,5470.000,10571.000,-1672.000,-2390.000,-2691.000,0.000,0.000,0
2026-01-30 23:24:36,1500894,6213.000,1589.000,3990.000,-2151.000,-1215.000,1103.000,0.000,0.000,0
2026-01-30 23:24:36,1500934,3746.000,1277.000,6306.000,-1886.000,917.000,-1082.000,0.000,0.000,0
2026-01-30 23:24:36,1500974,4927.000,3419.000,3912.000,-1443.000,1876.000,-1397.000,0.000,0.000,0
2026-01-30 23:24:36,1501014,4023.000,5061.000,8173.000,-376.000,559.000,-339.000,0.000,0.000,0
2026-01-30 23:24:36,1501055,10104.000,-2636.000,3060.000,-844.000,1859.000,1243.000,0.000,0.000,0
2026-01-30 23:24:36,1501094,-3676.000,2053.000,8354.000,-2071.000,-2181.000,-3317.000,0.000,0.000,0
2026-01-30 23:24:36,1501134,3305.000,8728.000,5280.000,-306.000,-402.000,307.000,0.000,0.000,0
2026-01-30 23:24:36,1501174,6025.000,-1844.000,5586.000,-1290.000,-1243.000,2554.000,0.000,0.000,0
2026-01-30 23:24:37,1501214,4524.000,367.000,6386.000,-1642.000,1603.000,-2805.000,0.000,0.000,0
2026-01-30 23:24:37,1501254,2745.000,5154.000,8360.000,-695.000,1766.000,-2236.000,0.000,0.000,0
2026-01-30 23:24:37,1501294,4104.000,1518.000,5570.000,-2401.000,-2610.000,130.000,0.000,0.000,0
2026-01-30 23:24:37,1501338,5622.000,-1737.000,6881.000,154.000,580.000,605.000,0.000,0.000,0
2026-01-30 23:24:37,1501374,999.000,1501.000,7178.000,-272.000,-670.000,-1827.000,0.000,0.000,0
2026-01-30 23:24:37,1501414,5444.000,2309.000,7436.000,-923.000,-1127.000,-306.000,0.000,0.000,0
2026-01-30 23:24:37,1501454,5890.000,906.000,5520.000,-194.000,559.000,-325.000,0.000,0.000,0
2026-01-30 23:24:37,1501494,3700.000,1692.000,8229.000,-378.000,529.000,-1731.000,0.000,0.000,0
2026-01-30 23:24:37,1501534,5833.000,3305.000,6757.000,-729.000,-1559.000,-26.000,0.000,0.000,0
2026-01-30 23:24:37,1501574,1386.000,1743.000,5209.000,-1735.000,-2633.000,-401.000,0.000,0.000,0
2026-01-30 23:24:37,1501614,4900.000,1741.000,5959.000,-1397.000,-1038.000,-213.000,0.000,0.000,0
2026-01-30 23:24:37,1501654,4203.000,1012.000,9235.000,-29.000,756.000,-567.000,0.000,0.000,0
2026-01-30 23:24:37,1501694,4086.000,1962.000,7391.000,211.000,-28.000,-762.000,0.000,0.000,0
2026-01-30 23:24:37,1501734,8141.000,2831.000,7648.000,-3.000,447.000,-357.000,0.000,0.000,0
2026-01-30 23:24:37,1501774,3430.000,2835.000,6999.000,-585.000,-1503.000,-1658.000,0.000,0.000,0
2026-01-30 23:24:37,1501814,2376.000,1907.000,6814.000,-1427.000,-1938.000,-520.000,0.000,0.000,0
2026-01-30 23:24:37,1501854,5524.000,805.000,5886.000,-1128.000,-1164.000,263.000,0.000,0.000,0
2026-01-30 23:24:37,1501894,6873.000,1627.000,9047.000,127.000,-1071.000,-417.000,0.000,0.000,0
2026-01-30 23:24:37,1501934,4268.000,2618.000,8675.000,317.000,204.000,-1380.000,0.000,0.000,0
2026-01-30 23:24:37,1501974,3381.000,766.000,3916.000,-1661.000,-344.000,-2579.000,0.000,0.000,0
2026-01-30 23:24:37,1502014,5200.000,3593.000,8095.000,845.000,-970.000,-830.000,0.000,0.000,0
2026-01-30 23:24:37,1502054,5432.000,2101.000,4451.000,-514.000,-1103.000,-689.000,0.000,0.000,0
2026-01-30 23:24:37,1502094,4567.000,1637.000,6041.000,0.000,-819.000,-1742.000,0.000,0.000,0
2026-01-30 23:24:37,1502134,6351.000,1925.000,7476.000,-19.000,343.000,-1100.000,0.000,0.000,0
2026-01-30 23:24:37,1502174,3347.000,521.000,5370.000,308.000,95.000,-1935.000,0.000,0.000,0
2026-01-30 23:24:38,1502214,4457.000,3274.000,7258.000,-298.000,-80.000,-1809.000,0.000,0.000,0
2026-01-30 23:24:38,1502254,6878.000,1486.000,7337.000,-54.000,61.000,-696.000,0.000,0.000,0
2026-01-30 23:24:38,1502294,1762.000,1229.000,6175.000,-287.000,-164.000,-2061.000,0.000,0.000,0
2026-01-30 23:24:38,1502334,3982.000,2389.000,5913.000,-605.000,-510.000,-1699.000,0.000,0.000,0
2026-01-30 23:24:38,1502374,9642.000,3526.000,7440.000,420.000,700.000,-750.000,0.000,0.000,0
2026-01-30 23:24:38,1502414,5824.000,2759.000,6915.000,-12.000,166.000,-2063.000,0.000,0.000,0
2026-01-30 23:24:38,1502454,3301.000,1285.000,6028.000,459.000,-428.000,-1289.000,0.000,0.000,0
2026-01-30 23:24:38,1502494,3276.000,1844.000,6304.000,586.000,-1381.000,-1411.000,0.000,0.000,0
2026-01-30 23:24:38,1502534,6137.000,-972.000,6060.000,1430.000,382.000,798.000,0.000,0.000,0
2026-01-30 23:24:38,1502574,1066.000,3693.000,8884.000,1205.000,-2014.000,-1369.000,0.000,0.000,0
2026-01-30 23:24:38,1502614,6294.000,-1184.000,3573.000,1838.000,818.000,896.000,0.000,0.000,0
2026-01-30 23:24:38,1502654,924.000,1781.000,6110.000,129.000,-590.000,-2076.000,0.000,0.000,0
2026-01-30 23:24:38,1502694,4487.000,5726.000,6635.000,928.000,315.000,-414.000,0.000,0.000,0
2026-01-30 23:24:38,1502734,6706.000,1836.000,8710.000,-129.000,114.000,885.000,0.000,0.000,0
2026-01-30 23:24:38,1502774,3814.000,2809.000,6704.000,-588.000,-359.000,-1075.000,0.000,0.000,0
2026-01-30 23:24:38,1502814,2525.000,4029.000,6963.000,-475.000,-965.000,-232.000,0.000,0.000,0
2026-01-30 23:24:38,1502854,3783.000,4290.000,6735.000,-1239.000,-1201.000,796.000,0.000,0.000,0
2026-01-30 23:24:38,1502894,6630.000,-24.000,4350.000,-1351.000,-153.000,1107.000,0.000,0.000,0
2026-01-30 23:24:38,1502934,2842.000,4058.000,6785.000,-194.000,997.000,-1726.000,0.000,0.000,0
2026-01-30 23:24:38,1502974,4896.000,2157.000,5945.000,-300.000,306.000,-214.000,0.000,0.000,0
2026-01-30 23:24:38,1503014,5321.000,2925.000,7347.000,-953.000,701.000,-937.000,0.000,0.000,0
2026-01-30 23:24:38,1503057,4851.000,4297.000,8124.000,-821.000,-186.000,-272.000,0.000,0.000,0
2026-01-30 23:24:38,1503094,5721.000,2231.000,5065.000,-634.000,-178.000,317.000,0.000,0.000,0
2026-01-30 23:24:38,1503134,3965.000,3360.000,5408.000,-1157.000,-1108.000,-970.000,0.000,0.000,0
2026-01-30 23:24:38,1503174,3202.000,797.000,5868.000,-147.000,-431.000,-16.000,0.000,0.000,0
2026-01-30 23:24:39,1503214,4419.000,2712.000,7708.000,214.000,377.000,83.000,0.000,0.000,0
2026-01-30 23:24:39,1503254,4166.000,1019.000,6761.000,392.000,188.000,345.000,0.000,0.000,0
2026-01-30 23:24:39,1503294,4353.000,2560.000,7272.000,220.000,775.000,-876.000,0.000,0.000,0
2026-01-30 23:24:39,1503337,4849.000,3584.000,7381.000,352.000,-26.000,-362.000,0.000,0.000,0
2026-01-30 23:24:39,1503374,3703.000,1317.000,6927.000,-132.000,-931.000,-29.000,0.000,0.000,0
2026-01-30 23:24:39,1503414,5206.000,3255.000,6108.000,488.000,-577.000,-219.000,0.000,0.000,0
2026-01-30 23:24:39,1503454,2493.000,2286.000,6556.000,-429.000,-597.000,-626.000,0.000,0.000,0
2026-01-30 23:24:39,1503494,3785.000,2260.000,5355.000,-798.000,-153.000,-264.000,0.000,0.000,0
2026-01-30 23:24:39,1503534,5491.000,3820.000,6914.000,-112.000,513.000,-647.000,0.000,0.000,0
2026-01-30 23:24:39,1503574,5118.000,4661.000,8252.000,213.000,583.000,-1174.000,0.000,0.000,0
2026-01-30 23:24:39,1503614,4905.000,1171.000,6027.000,-496.000,-119.000,-663.000,0.000,0.000,0
2026-01-30 23:24:39,1503654,4337.000,4458.000,6044.000,-363.000,-1920.000,-1219.000,0.000,0.000,0
2026-01-30 23:24:39,1503694,4668.000,717.000,6439.000,-665.000,-1326.000,-143.000,0.000,0.000,0
2026-01-30 23:24:39,1503734,2686.000,-273.000,6531.000,-389.000,-1148.000,-852.000,0.000,0.000,0
2026-01-30 23:24:39,1503774,4229.000,1662.000,5783.000,771.000,-585.000,-895.000,0.000,0.000,0
2026-01-30 23:24:39,1503814,5291.000,1219.000,5897.000,1958.000,-209.000,-733.000,0.000,0.000,0
2026-01-30 23:24:39,1503854,4498.000,1226.000,6128.000,2058.000,352.000,-1227.000,0.000,0.000,0
2026-01-30 23:24:39,1503894,5378.000,2177.000,7081.000,2018.000,218.000,-330.000,0.000,0.000,0
2026-01-30 23:24:39,1503934,4234.000,2427.000,5488.000,2617.000,-694.000,-661.000,0.000,0.000,0
2026-01-30 23:24:39,1503974,4111.000,4368.000,6840.000,2255.000,-1172.000,268.000,0.000,0.000,0
2026-01-30 23:24:39,1504014,6189.000,1891.000,6348.000,4074.000,-663.000,1139.000,0.000,0.000,0
2026-01-30 23:24:39,1504054,4287.000,3404.000,6500.000,2614.000,-435.000,-660.000,0.000,0.000,0
2026-01-30 23:24:39,1504094,5379.000,4038.000,5592.000,1986.000,412.000,-133.000,0.000,0.000,0
2026-01-30 23:24:39,1504134,8804.000,7132.000,6900.000,1433.000,1166.000,-123.000,0.000,0.000,0
2026-01-30 23:24:39,1504174,2922.000,2862.000,6561.000,952.000,576.000,-1081.000,0.000,0.000,0
2026-01-30 23:24:40,1504214,5105.000,5407.000,7008.000,942.000,1155.000,-25.000,0.000,0.000,0
2026-01-30 23:24:40,1504254,4210.000,2324.000,5421.000,1494.000,984.000,936.000,0.000,0.000,0
2026-01-30 23:24:40,1504294,3648.000,4594.000,6869.000,659.000,1272.000,-289.000,0.000,0.000,0
2026-01-30 23:24:40,1504334,3466.000,3280.000,5882.000,493.000,1649.000,-89.000,0.000,0.000,0
2026-01-30 23:24:40,1504374,4611.000,6997.000,6781.000,576.000,1200.000,395.000,0.000,0.000,0
2026-01-30 23:24:40,1504414,7160.000,2484.000,6105.000,632.000,1612.000,1160.000,0.000,0.000,0
2026-01-30 23:24:40,1504454,1633.000,-264.000,4291.000,22.000,681.000,-295.000,0.000,0.000,0
2026-01-30 23:24:40,1504494,4358.000,6342.000,7063.000,1158.000,-8.000,719.000,0.000,0.000,0
2026-01-30 23:24:40,1504534,4894.000,2529.000,5981.000,246.000,-266.000,1495.000,0.000,0.000,0
2026-01-30 23:24:40,1504574,4928.000,4416.000,5741.000,1046.000,-266.000,892.000,0.000,0.000,0
2026-01-30 23:24:40,1504614,5217.000,3150.000,6044.000,885.000,482.000,550.000,0.000,0.000,0
2026-01-30 23:24:40,1504654,5211.000,1414.000,3060.000,1188.000,503.000,338.000,0.000,0.000,0
2026-01-30 23:24:40,1504694,4090.000,1367.000,6489.000,993.000,1625.000,559.000,0.000,0.000,0
2026-01-30 23:24:40,1504734,7554.000,1924.000,5849.000,1650.000,1561.000,1435.000,0.000,0.000,0
2026-01-30 23:24:40,1504774,2743.000,4937.000,5420.000,1862.000,-195.000,740.000,0.000,0.000,0
2026-01-30 23:24:40,1504814,5495.000,4154.000,5946.000,1419.000,-227.000,2304.000,0.000,0.000,0
2026-01-30 23:24:40,1504854,4587.000,4002.000,6248.000,849.000,-163.000,1534.000,0.000,0.000,0
2026-01-30 23:24:40,1504894,4648.000,3873.000,6603.000,1144.000,997.000,283.000,0.000,0.000,0
2026-01-30 23:24:40,1504934,2644.000,3866.000,6686.000,529.000,1388.000,-37.000,0.000,0.000,0
2026-01-30 23:24:40,1504974,6853.000,2924.000,6275.000,1229.000,2134.000,971.000,0.000,0.000,0
2026-01-30 23:24:40,1505014,1601.000,1334.000,4968.000,538.000,1599.000,-160.000,0.000,0.000,0
2026-01-30 23:24:40,1505057,3511.000,3854.000,5776.000,214.000,170.000,1968.000,0.000,0.000,0
2026-01-30 23:24:40,1505097,5405.000,5075.000,6308.000,480.000,211.000,1330.000,0.000,0.000,0
2026-01-30 23:24:40,1505134,5072.000,2476.000,5588.000,207.000,1043.000,1239.000,0.000,0.000,0
2026-01-30 23:24:40,1505174,3515.000,3092.000,6029.000,-323.000,989.000,627.000,0.000,0.000,0
2026-01-30 23:24:41,1505214,3962.000,5619.000,7012.000,-266.000,824.000,1089.000,0.000,0.000,0
2026-01-30 23:24:41,1505254,5197.000,1890.000,5687.000,-92.000,1286.000,1293.000,0.000,0.000,0
2026-01-30 23:24:41,1505294,4283.000,3128.000,6048.000,126.000,1097.000,1149.000,0.000,0.000,0
2026-01-30 23:24:41,1505337,5289.000,4288.000,5602.000,-268.000,-90.000,1411.000,0.000,0.000,0
2026-01-30 23:24:41,1505374,3551.000,1241.000,4624.000,-955.000,-416.000,1282.000,0.000,0.000,0
2026-01-30 23:24:41,1505414,3902.000,3141.000,6032.000,-63.000,452.000,1032.000,0.000,0.000,0
2026-01-30 23:24:41,1505454,6566.000,2017.000,5589.000,-15.000,1090.000,402.000,0.000,0.000,0
2026-01-30 23:24:41,1505494,2827.000,3600.000,6261.000,-49.000,967.000,-688.000,0.000,0.000,0
2026-01-30 23:24:41,1505534,5314.000,2628.000,7024.000,564.000,980.000,837.000,0.000,0.000,0
2026-01-30 23:24:41,1505574,3129.000,4000.000,5820.000,415.000,70.000,1011.000,0.000,0.000,0
2026-01-30 23:24:41,1505614,4705.000,2820.000,5613.000,455.000,-203.000,1664.000,0.000,0.000,0
2026-01-30 23:24:41,1505654,6366.000,2648.000,6206.000,427.000,-104.000,1266.000,0.000,0.000,0
2026-01-30 23:24:41,1505694,4666.000,2590.000,5996.000,537.000,261.000,279.000,0.000,0.000,0
2026-01-30 23:24:41,1505734,4268.000,2923.000,6658.000,605.000,482.000,316.000,0.000,0.000,0
2026-01-30 23:24:41,1505774,6107.000,1588.000,5461.000,1112.000,1034.000,598.000,0.000,0.000,0
2026-01-30 23:24:41,1505814,5729.000,4665.000,5552.000,1757.000,919.000,499.000,0.000,0.000,0
2026-01-30 23:24:41,1505854,5850.000,780.000,5704.000,1013.000,254.000,1896.000,0.000,0.000,0
2026-01-30 23:24:41,1505894,4080.000,5881.000,7094.000,983.000,-239.000,891.000,0.000,0.000,0
2026-01-30 23:24:41,1505934,3811.000,2074.000,5561.000,-500.000,227.000,1091.000,0.000,0.000,0
2026-01-30 23:24:41,1505974,5229.000,1120.000,6586.000,1670.000,1997.000,1425.000,0.000,0.000,0
2026-01-30 23:24:41,1506014,3727.000,4180.000,7061.000,-63.000,-151.000,239.000,0.000,0.000,0
2026-01-30 23:24:41,1506054,6873.000,1785.000,4939.000,2149.000,1369.000,1120.000,0.000,0.000,0
2026-01-30 23:24:41,1506094,3342.000,3724.000,6808.000,-818.000,677.000,-480.000,0.000,0.000,0
2026-01-30 23:24:41,1506134,3342.000,5593.000,7410.000,398.000,345.000,562.000,0.000,0.000,0
2026-01-30 23:24:41,1506174,2618.000,1981.000,5984.000,-725.000,34.000,1010.000,0.000,0.000,0
2026-01-30 23:24:42,1506214,4800.000,4174.000,6230.000,-356.000,585.000,907.000,0.000,0.000,0
2026-01-30 23:24:42,1506254,5052.000,3387.000,5010.000,-836.000,1112.000,478.000,0.000,0.000,0
2026-01-30 23:24:42,1506294,2459.000,3886.000,6380.000,-1319.000,1310.000,-96.000,0.000,0.000,0
2026-01-30 23:24:42,1506334,3550.000,4285.000,6634.000,-1474.000,750.000,799.000,0.000,0.000,0
2026-01-30 23:24:42,1506374,5782.000,3444.000,5899.000,-1187.000,844.000,1126.000,0.000,0.000,0
2026-01-30 23:24:42,1506414,3655.000,3257.000,6249.000,-1405.000,536.000,293.000,0.000,0.000,0
2026-01-30 23:24:42,1506454,4223.000,3656.000,5490.000,-2098.000,-1095.000,652.000,0.000,0.000,0
2026-01-30 23:24:42,1506494,5625.000,2180.000,5542.000,-1755.000,-1061.000,1162.000,0.000,0.000,0
2026-01-30 23:24:42,1506534,4126.000,2352.000,6473.000,-909.000,-262.000,817.000,0.000,0.000,0
2026-01-30 23:24:42,1506574,3827.000,747.000,5397.000,-634.000,-197.000,948.000,0.000,0.000,0
2026-01-30 23:24:42,1506614,5074.000,2388.000,6420.000,153.000,548.000,584.000,0.000,0.000,0
2026-01-30 23:24:42,1506654,5274.000,2452.000,6662.000,79.000,-51.000,484.000,0.000,0.000,0
2026-01-30 23:24:42,1506694,4348.000,2844.000,6881.000,-192.000,-558.000,852.000,0.000,0.000,0
2026-01-30 23:24:42,1506734,4369.000,2685.000,6165.000,-479.000,-673.000,817.000,0.000,0.000,0
2026-01-30 23:24:42,1506774,5409.000,3174.000,7740.000,-594.000,539.000,540.000,0.000,0.000,0
2026-01-30 23:24:42,1506814,2487.000,3456.000,6302.000,-1301.000,363.000,-407.000,0.000,0.000,0
2026-01-30 23:24:42,1506854,4632.000,5203.000,5935.000,-1606.000,370.000,-1187.000,0.000,0.000,0
2026-01-30 23:24:42,1506894,3809.000,3258.000,6390.000,-1461.000,673.000,-933.000,0.000,0.000,0
2026-01-30 23:24:42,1506934,4606.000,927.000,5852.000,-1167.000,788.000,-796.000,0.000,0.000,0
2026-01-30 23:24:42,1506974,5530.000,2498.000,6105.000,-821.000,198.000,-1188.000,0.000,0.000,0
2026-01-30 23:24:42,1507014,4418.000,641.000,5046.000,-311.000,116.000,-1354.000,0.000,0.000,0
2026-01-30 23:24:42,1507059,5165.000,842.000,6354.000,749.000,203.000,-356.000,0.000,0.000,0
2026-01-30 23:24:42,1507094,4869.000,32.000,6321.000,730.000,-18.000,-174.000,0.000,0.000,0
2026-01-30 23:24:42,1507134,4113.000,2918.000,6965.000,1308.000,-732.000,-196.000,0.000,0.000,0
2026-01-30 23:24:42,1507174,5244.000,618.000,5527.000,786.000,-382.000,364.000,0.000,0.000,0
2026-01-30 23:24:43,1507214,5521.000,1642.000,6457.000,1620.000,199.000,-105.000,0.000,0.000,0
2026-01-30 23:24:43,1507254,4811.000,2375.000,6608.000,2264.000,512.000,-594.000,0.000,0.000,0
2026-01-30 23:24:43,1507294,3449.000,3448.000,7734.000,1327.000,-63.000,-78.000,0.000,0.000,0
2026-01-30 23:24:43,1507337,3773.000,3141.000,6751.000,1915.000,-744.000,629.000,0.000,0.000,0
2026-01-30 23:24:43,1507374,4597.000,3767.000,6085.000,1197.000,-224.000,537.000,0.000,0.000,0
2026-01-30 23:24:43,1507414,5312.000,4632.000,7179.000,620.000,230.000,238.000,0.000,0.000,0
2026-01-30 23:24:43,1507454,2772.000,2895.000,6832.000,-55.000,294.000,301.000,0.000,0.000,0
2026-01-30 23:24:43,1507494,3981.000,3432.000,6470.000,-95.000,506.000,178.000,0.000,0.000,0
2026-01-30 23:24:43,1507534,4665.000,3160.000,6760.000,-438.000,741.000,268.000,0.000,0.000,0
2026-01-30 23:24:43,1507574,4774.000,4649.000,6484.000,-645.000,444.000,88.000,0.000,0.000,0
2026-01-30 23:24:43,1507614,2746.000,3665.000,5899.000,-768.000,330.000,153.000,0.000,0.000,0
2026-01-30 23:24:43,1507654,6951.000,3721.000,6696.000,-291.000,542.000,665.000,0.000,0.000,0
2026-01-30 23:24:43,1507694,3797.000,2127.000,5757.000,-561.000,783.000,-398.000,0.000,0.000,0
2026-01-30 23:24:43,1507734,5356.000,3345.000,6790.000,-869.000,98.000,399.000,0.000,0.000,0
2026-01-30 23:24:43,1507774,4105.000,2201.000,6291.000,-1009.000,69.000,75.000,0.000,0.000,0
2026-01-30 23:24:43,1507814,3760.000,3955.000,7280.000,-843.000,-74.000,-32.000,0.000,0.000,0
2026-01-30 23:24:43,1507854,4776.000,3751.000,6686.000,-1321.000,-468.000,89.000,0.000,0.000,0
2026-01-30 23:24:43,1507894,4939.000,3491.000,5839.000,-1021.000,-214.000,34.000,0.000,0.000,0
2026-01-30 23:24:43,1507934,4125.000,2843.000,7004.000,-1487.000,-688.000,-321.000,0.000,0.000,0
2026-01-30 23:24:43,1507974,3358.000,2092.000,6310.000,-1637.000,-973.000,-304.000,0.000,0.000,0
2026-01-30 23:24:43,1508014,4367.000,2395.000,6358.000,-1390.000,-539.000,-101.000,0.000,0.000,0
2026-01-30 23:24:43,1508054,4355.000,3264.000,7000.000,-1157.000,-20.000,-110.000,0.000,0.000,0
2026-01-30 23:24:43,1508094,3884.000,3387.000,6737.000,-1305.000,-35.000,-167.000,0.000,0.000,0
2026-01-30 23:24:43,1508134,4435.000,3149.000,6022.000,-1284.000,-177.000,-232.000,0.000,0.000,0
2026-01-30 23:24:43,1508174,5124.000,1983.000,5614.000,-1125.000,324.000,-536.000,0.000,0.000,0
2026-01-30 23:24:44,1508214,4179.000,3238.000,6733.000,-1262.000,-82.000,-1028.000,0.000,0.000,0
2026-01-30 23:24:44,1508254,4598.000,2010.000,5880.000,-1107.000,-96.000,-1045.000,0.000,0.000,0
2026-01-30 23:24:44,1508294,4485.000,1404.000,5985.000,-637.000,-220.000,-968.000,0.000,0.000,0
2026-01-30 23:24:44,1508334,5020.000,2593.000,7059.000,-489.000,-236.000,-877.000,0.000,0.000,0
2026-01-30 23:24:44,1508374,5448.000,967.000,6389.000,-691.000,-199.000,-979.000,0.000,0.000,0
2026-01-30 23:24:44,1508414,3502.000,3096.000,7121.000,-555.000,-427.000,-1266.000,0.000,0.000,0
2026-01-30 23:24:44,1508454,3429.000,719.000,5848.000,-476.000,-570.000,-267.000,0.000,0.000,0
2026-01-30 23:24:44,1508494,4896.000,1195.000,6307.000,770.000,188.000,-477.000,0.000,0.000,0
2026-01-30 23:24:44,1508534,3459.000,3168.000,7574.000,-215.000,-155.000,-1131.000,0.000,0.000,0
2026-01-30 23:24:44,1508574,4870.000,1731.000,6627.000,77.000,-147.000,-40.000,0.000,0.000,0
2026-01-30 23:24:44,1508614,3209.000,1890.000,6009.000,-236.000,-441.000,-369.000,0.000,0.000,0
2026-01-30 23:24:44,1508654,5004.000,3486.000,6989.000,183.000,91.000,-193.000,0.000,0.000,0
2026-01-30 23:24:44,1508694,4465.000,1931.000,6370.000,-368.000,-16.000,-616.000,0.000,0.000,0
2026-01-30 23:24:44,1508734,3232.000,3976.000,7194.000,-367.000,-241.000,-590.000,0.000,0.000,0
2026-01-30 23:24:44,1508774,4915.000,1550.000,6467.000,-1020.000,-396.000,-468.000,0.000,0.000,0
2026-01-30 23:24:44,1508814,4268.000,3374.000,6241.000,-1119.000,-308.000,-1049.000,0.000,0.000,0
2026-01-30 23:24:44,1508854,3912.000,3556.000,7015.000,-1013.000,-197.000,-1144.000,0.000,0.000,0
2026-01-30 23:24:44,1508894,4756.000,2094.000,6428.000,10.000,677.000,-1190.000,0.000,0.000,0
2026-01-30 23:24:44,1508934,4098.000,2995.000,6793.000,-133.000,111.000,-1216.000,0.000,0.000,0
2026-01-30 23:24:44,1508974,3588.000,2641.000,6268.000,-940.000,-738.000,-974.000,0.000,0.000,0
2026-01-30 23:24:44,1509014,5774.000,2945.000,6856.000,-688.000,-813.000,-538.000,0.000,0.000,0
2026-01-30 23:24:44,1509054,4172.000,698.000,5969.000,-387.000,179.000,-1566.000,0.000,0.000,0
2026-01-30 23:24:44,1509094,4736.000,3546.000,8111.000,130.000,62.000,-1555.000,0.000,0.000,0
2026-01-30 23:24:44,1509134,4176.000,1380.000,6533.000,-318.000,-216.000,-1613.000,0.000,0.000,0
2026-01-30 23:24:44,1509174,3517.000,3483.000,7263.000,37.000,-798.000,-1112.000,0.000,0.000,0
2026-01-30 23:24:45,1509214,4971.000,687.000,6185.000,-499.000,-960.000,-369.000,0.000,0.000,0
2026-01-30 23:24:45,1509254,2800.000,2088.000,5709.000,307.000,-861.000,-656.000,0.000,0.000,0
2026-01-30 23:24:45,1509294,3934.000,1027.000,6100.000,540.000,-648.000,-306.000,0.000,0.000,0
2026-01-30 23:24:45,1509337,5208.000,2096.000,7105.000,1375.000,36.000,-678.000,0.000,0.000,0
2026-01-30 23:24:45,1509374,6118.000,1498.000,7211.000,1643.000,329.000,-679.000,0.000,0.000,0
2026-01-30 23:24:45,1509414,4465.000,2803.000,6777.000,1280.000,-332.000,-1034.000,0.000,0.000,0
2026-01-30 23:24:45,1509454,4818.000,3637.000,6915.000,1317.000,-1211.000,-124.000,0.000,0.000,0
2026-01-30 23:24:45,1509494,4202.000,1183.000,6227.000,1075.000,-1140.000,351.000,0.000,0.000,0
2026-01-30 23:24:45,1509534,4896.000,2547.000,6732.000,2010.000,-531.000,343.000,0.000,0.000,0
2026-01-30 23:24:45,1509574,4517.000,1881.000,5882.000,1177.000,-312.000,-122.000,0.000,0.000,0
2026-01-30 23:24:45,1509614,3120.000,3193.000,5832.000,1812.000,390.000,-103.000,0.000,0.000,0
2026-01-30 23:24:45,1509654,5298.000,1193.000,6267.000,1583.000,348.000,511.000,0.000,0.000,0
2026-01-30 23:24:45,1509694,5668.000,3661.000,6857.000,1876.000,593.000,-427.000,0.000,0.000,0
2026-01-30 23:24:45,1509734,2691.000,-224.000,4885.000,1575.000,517.000,-552.000,0.000,0.000,0
2026-01-30 23:24:45,1509774,5254.000,3980.000,6981.000,2933.000,1334.000,741.000,0.000,0.000,0
2026-01-30 23:24:45,1509814,5536.000,2850.000,5521.000,5238.000,1716.000,1306.000,0.000,0.000,0
2026-01-30 23:24:45,1509854,3200.000,3628.000,6893.000,3528.000,1602.000,137.000,0.000,0.000,0
2026-01-30 23:24:45,1509894,5287.000,3961.000,7267.000,1594.000,1561.000,815.000,0.000,0.000,0
2026-01-30 23:24:45,1509934,2408.000,2981.000,6499.000,1118.000,1169.000,222.000,0.000,0.000,0
2026-01-30 23:24:45,1509974,2924.000,4503.000,6891.000,1031.000,1184.000,543.000,0.000,0.000,0
2026-01-30 23:24:45,1510014,3540.000,2096.000,5594.000,578.000,1212.000,1009.000,0.000,0.000,0
2026-01-30 23:24:45,1510054,3765.000,5958.000,7539.000,870.000,565.000,629.000,0.000,0.000,0
2026-01-30 23:24:45,1510094,4531.000,1470.000,5321.000,-52.000,304.000,1148.000,0.000,0.000,0
2026-01-30 23:24:45,1510134,3906.000,5806.000,6816.000,1087.000,400.000,592.000,0.000,0.000,0
2026-01-30 23:24:45,1510174,3761.000,1641.000,6106.000,-90.000,790.000,865.000,0.000,0.000,0
2026-01-30 23:24:46,1510214,4024.000,3484.000,5832.000,1155.000,1172.000,710.000,0.000,0.000,0
2026-01-30 23:24:46,1510254,3800.000,3306.000,6361.000,825.000,847.000,643.000,0.000,0.000,0
2026-01-30 23:24:46,1510294,3409.000,3921.000,6922.000,510.000,547.000,882.000,0.000,0.000,0
2026-01-30 23:24:46,1510334,4676.000,3172.000,6017.000,808.000,265.000,1276.000,0.000,0.000,0
2026-01-30 23:24:46,1510374,3813.000,2821.000,6036.000,396.000,624.000,874.000,0.000,0.000,0
2026-01-30 23:24:46,1510414,3760.000,504.000,3753.000,203.000,827.000,589.000,0.000,0.000,0
2026-01-30 23:24:46,1510454,3817.000,6251.000,7138.000,1055.000,338.000,843.000,0.000,0.000,0
2026-01-30 23:24:46,1510494,5066.000,3205.000,6655.000,84.000,224.000,1202.000,0.000,0.000,0
2026-01-30 23:24:46,1510534,3390.000,1921.000,5008.000,343.000,1029.000,642.000,0.000,0.000,0
2026-01-30 23:24:46,1510574,4117.000,5226.000,6816.000,703.000,782.000,557.000,0.000,0.000,0
2026-01-30 23:24:46,1510614,3657.000,2407.000,5756.000,33.000,980.000,679.000,0.000,0.000,0
2026-01-30 23:24:46,1510654,5714.000,5517.000,7829.000,955.000,1126.000,868.000,0.000,0.000,0
2026-01-30 23:24:46,1510694,2596.000,2794.000,5988.000,-354.000,654.000,403.000,0.000,0.000,0
2026-01-30 23:24:46,1510734,3590.000,4054.000,6445.000,145.000,329.000,896.000,0.000,0.000,0
2026-01-30 23:24:46,1510774,5823.000,4601.000,6708.000,-178.000,-44.000,1002.000,0.000,0.000,0
2026-01-30 23:24:46,1510814,2617.000,4519.000,7298.000,-598.000,508.000,271.000,0.000,0.000,0
2026-01-30 23:24:46,1510854,4758.000,2429.000,5349.000,-540.000,259.000,601.000,0.000,0.000,0
2026-01-30 23:24:46,1510894,3632.000,3412.000,6725.000,52.000,588.000,662.000,0.000,0.000,0
2026-01-30 23:24:46,1510934,4045.000,4308.000,6292.000,-16.000,88.000,1108.000,0.000,0.000,0
2026-01-30 23:24:46,1510974,4570.000,3089.000,6306.000,-30.000,83.000,1206.000,0.000,0.000,0
2026-01-30 23:24:46,1511014,3249.000,1447.000,5709.000,-36.000,289.000,965.000,0.000,0.000,0
2026-01-30 23:24:46,1511054,5208.000,2013.000,5588.000,355.000,165.000,1277.000,0.000,0.000,0
2026-01-30 23:24:46,1511097,4720.000,3100.000,6549.000,-44.000,231.000,756.000,0.000,0.000,0
2026-01-30 23:24:46,1511139,4637.000,2460.000,6232.000,588.000,164.000,706.000,0.000,0.000,0
2026-01-30 23:24:46,1511174,2773.000,2926.000,6704.000,-525.000,-180.000,352.000,0.000,0.000,0
2026-01-30 23:24:47,1511214,5099.000,3828.000,6080.000,525.000,-99.000,836.000,0.000,0.000,0
2026-01-30 23:24:47,1511254,3068.000,3407.000,7256.000,932.000,-57.000,1169.000,0.000,0.000,0
2026-01-30 23:24:47,1511294,4350.000,1260.000,6452.000,1022.000,93.000,1537.000,0.000,0.000,0
2026-01-30 23:24:47,1511337,5366.000,4449.000,6543.000,1344.000,-147.000,1503.000,0.000,0.000,0
2026-01-30 23:24:47,1511374,3374.000,1998.000,5151.000,613.000,237.000,1383.000,0.000,0.000,0
2026-01-30 23:24:47,1511414,4356.000,2196.000,6754.000,885.000,647.000,1037.000,0.000,0.000,0
2026-01-30 23:24:47,1511454,5749.000,5692.000,8652.000,849.000,170.000,1217.000,0.000,0.000,0
2026-01-30 23:24:47,1511494,4072.000,343.000,4734.000,-190.000,482.000,707.000,0.000,0.000,0
2026-01-30 23:24:47,1511534,4869.000,5470.000,7711.000,856.000,387.000,684.000,0.000,0.000,0
2026-01-30 23:24:47,1511574,3833.000,2430.000,6366.000,7.000,539.000,751.000,0.000,0.000,0
2026-01-30 23:24:47,1511614,104.000,1658.000,3331.000,85.000,-609.000,617.000,0.000,0.000,0
2026-01-30 23:24:47,1511654,15448.000,12597.000,10946.000,2364.000,2168.000,1075.000,0.000,0.000,0
2026-01-30 23:24:47,1511694,935.000,8056.000,10072.000,-685.000,1132.000,-1599.000,0.000,0.000,0
2026-01-30 23:24:47,1511734,4019.000,4320.000,7059.000,-919.000,283.000,-470.000,0.000,0.000,0
2026-01-30 23:24:47,1511774,3231.000,1893.000,5492.000,-790.000,290.000,-656.000,0.000,0.000,0
2026-01-30 23:24:47,1511814,3386.000,1598.000,5653.000,-239.000,704.000,-376.000,0.000,0.000,0
2026-01-30 23:24:47,1511854,2157.000,1228.000,5176.000,728.000,-258.000,476.000,0.000,0.000,0
2026-01-30 23:24:47,1511894,7530.000,1029.000,5757.000,938.000,357.000,832.000,0.000,0.000,0
2026-01-30 23:24:47,1511934,859.000,-3537.000,4883.000,-180.000,63.000,-819.000,0.000,0.000,0
2026-01-30 23:24:47,1511974,6474.000,10143.000,5811.000,982.000,436.000,-28.000,0.000,0.000,0
2026-01-30 23:24:47,1512014,4392.000,700.000,5028.000,127.000,598.000,1269.000,0.000,0.000,0
2026-01-30 23:24:47,1512054,3152.000,-1296.000,4081.000,1471.000,1260.000,475.000,0.000,0.000,0
2026-01-30 23:24:47,1512094,4201.000,4204.000,8294.000,1568.000,-355.000,577.000,0.000,0.000,0
2026-01-30 23:24:47,1512134,2326.000,3357.000,6806.000,1061.000,-1736.000,566.000,0.000,0.000,0
2026-01-30 23:24:47,1512174,4299.000,1023.000,6205.000,1310.000,-259.000,1735.000,0.000,0.000,0
2026-01-30 23:24:48,1512214,5636.000,2412.000,6975.000,1066.000,1191.000,452.000,0.000,0.000,0
2026-01-30 23:24:48,1512254,3510.000,3459.000,5667.000,1287.000,278.000,-413.000,0.000,0.000,0
2026-01-30 23:24:48,1512294,4239.000,2388.000,5821.000,789.000,1094.000,387.000,0.000,0.000,0
2026-01-30 23:24:48,1512334,5824.000,5536.000,7014.000,1242.000,-31.000,1422.000,0.000,0.000,0
2026-01-30 23:24:48,1512374,3718.000,3117.000,6979.000,-81.000,-581.000,1373.000,0.000,0.000,0
2026-01-30 23:24:48,1512414,4469.000,4518.000,5978.000,609.000,265.000,1108.000,0.000,0.000,0
2026-01-30 23:24:48,1512454,3874.000,3330.000,5282.000,-8.000,1015.000,859.000,0.000,0.000,0
2026-01-30 23:24:48,1512494,4168.000,3132.000,5267.000,245.000,1370.000,692.000,0.000,0.000,0
2026-01-30 23:24:48,1512534,10194.000,9449.000,11199.000,-2406.000,284.000,1707.000,0.000,0.000,0
2026-01-30 23:24:48,1512574,3993.000,-7973.000,38.000,-2622.000,179.000,686.000,0.000,0.000,0
2026-01-30 23:24:48,1512614,4805.000,3391.000,5474.000,-224.000,-774.000,252.000,0.000,0.000,0
2026-01-30 23:24:48,1512654,5057.000,3365.000,6501.000,-774.000,-624.000,1340.000,0.000,0.000,0
2026-01-30 23:24:48,1512694,4790.000,4965.000,7025.000,91.000,1055.000,1128.000,0.000,0.000,0
2026-01-30 23:24:48,1512734,3920.000,3011.000,6766.000,799.000,1072.000,1493.000,0.000,0.000,0
2026-01-30 23:24:48,1512774,4229.000,3126.000,6058.000,452.000,1186.000,1003.000,0.000,0.000,0
2026-01-30 23:24:48,1512814,5807.000,2708.000,5035.000,205.000,1082.000,1150.000,0.000,0.000,0
2026-01-30 23:24:48,1512854,2702.000,6516.000,7732.000,156.000,-387.000,669.000,0.000,0.000,0
2026-01-30 23:24:48,1512894,4319.000,1243.000,4734.000,-1497.000,-48.000,1020.000,0.000,0.000,0
2026-01-30 23:24:48,1512934,6016.000,1710.000,6278.000,1089.000,681.000,1295.000,0.000,0.000,0
2026-01-30 23:24:48,1512974,4453.000,2524.000,6955.000,-209.000,923.000,102.000,0.000,0.000,0
2026-01-30 23:24:48,1513014,3948.000,3742.000,6219.000,-63.000,-571.000,1294.000,0.000,0.000,0
2026-01-30 23:24:48,1513057,4472.000,2128.000,5713.000,468.000,270.000,982.000,0.000,0.000,0
2026-01-30 23:24:48,1513108,3443.000,2822.000,7280.000,506.000,656.000,450.000,0.000,0.000,0
2026-01-30 23:24:48,1513134,4599.000,3352.000,7630.000,261.000,480.000,719.000,0.000,0.000,0
2026-01-30 23:24:48,1513174,4790.000,2566.000,5819.000,475.000,575.000,634.000,0.000,0.000,0
2026-01-30 23:24:49,1513214,3976.000,3880.000,7302.000,-114.000,408.000,859.000,0.000,0.000,0
2026-01-30 23:24:49,1513254,4805.000,2706.000,6204.000,-407.000,-498.000,954.000,0.000,0.000,0
2026-01-30 23:24:49,1513294,1419.000,-1206.000,4738.000,-315.000,350.000,447.000,0.000,0.000,0
2026-01-30 23:24:49,1513338,3283.000,3085.000,6637.000,11.000,320.000,892.000,0.000,0.000,0
2026-01-30 23:24:49,1513376,5489.000,2414.000,5202.000,629.000,540.000,742.000,0.000,0.000,0
2026-01-30 23:24:49,1513414,4887.000,1830.000,5937.000,583.000,810.000,492.000,0.000,0.000,0
2026-01-30 23:24:49,1513454,6931.000,1011.000,6721.000,1009.000,1574.000,151.000,0.000,0.000,0
2026-01-30 23:24:49,1513494,3458.000,4135.000,6878.000,-48.000,140.000,-786.000,0.000,0.000,0
2026-01-30 23:24:49,1513534,2915.000,3196.000,7438.000,-733.000,-239.000,-129.000,0.000,0.000,0
2026-01-30 23:24:49,1513574,5845.000,554.000,5049.000,-275.000,182.000,622.000,0.000,0.000,0
2026-01-30 23:24:49,1513614,4553.000,4370.000,5765.000,477.000,333.000,-73.000,0.000,0.000,0
2026-01-30 23:24:49,1513654,4271.000,3649.000,6350.000,-442.000,124.000,-33.000,0.000,0.000,0
2026-01-30 23:24:49,1513694,5391.000,1731.000,5874.000,-497.000,372.000,201.000,0.000,0.000,0
2026-01-30 23:24:49,1513734,3686.000,3094.000,7616.000,208.000,1014.000,-316.000,0.000,0.000,0
2026-01-30 23:24:49,1513774,4911.000,2198.000,6420.000,-621.000,465.000,-722.000,0.000,0.000,0
2026-01-30 23:24:49,1513814,5474.000,2891.000,6589.000,-111.000,346.000,-579.000,0.000,0.000,0
2026-01-30 23:24:49,1513854,4106.000,2780.000,6861.000,-375.000,-391.000,-673.000,0.000,0.000,0
2026-01-30 23:24:49,1513894,4013.000,2489.000,7010.000,-149.000,-494.000,83.000,0.000,0.000,0
2026-01-30 23:24:49,1513934,3611.000,3326.000,6951.000,-360.000,-1103.000,-85.000,0.000,0.000,0
2026-01-30 23:24:49,1513974,4139.000,2660.000,6205.000,-608.000,-892.000,300.000,0.000,0.000,0
2026-01-30 23:24:49,1514014,4445.000,2712.000,6218.000,-599.000,-102.000,329.000,0.000,0.000,0
2026-01-30 23:24:49,1514054,4365.000,2146.000,6077.000,-582.000,236.000,-279.000,0.000,0.000,0
2026-01-30 23:24:49,1514094,4186.000,1849.000,5881.000,-413.000,124.000,-345.000,0.000,0.000,0
2026-01-30 23:24:49,1514134,5104.000,2752.000,7032.000,457.000,-110.000,235.000,0.000,0.000,0
2026-01-30 23:24:49,1514174,4198.000,1728.000,6193.000,348.000,-728.000,334.000,0.000,0.000,0
2026-01-30 23:24:50,1514214,4963.000,1917.000,6576.000,645.000,-524.000,512.000,0.000,0.000,0
2026-01-30 23:24:50,1514254,5141.000,1211.000,5259.000,1867.000,-122.000,481.000,0.000,0.000,0
2026-01-30 23:24:50,1514294,5404.000,2478.000,5886.000,1820.000,132.000,192.000,0.000,0.000,0
2026-01-30 23:24:50,1514334,4602.000,1675.000,7019.000,1949.000,588.000,633.000,0.000,0.000,0
2026-01-30 23:24:50,1514374,4118.000,2774.000,6967.000,1618.000,-180.000,1375.000,0.000,0.000,0
2026-01-30 23:24:50,1514414,5198.000,2862.000,5966.000,1264.000,-155.000,1439.000,0.000,0.000,0
2026-01-30 23:24:50,1514454,4798.000,2372.000,6368.000,816.000,472.000,953.000,0.000,0.000,0
2026-01-30 23:24:50,1514494,4684.000,3252.000,7036.000,528.000,573.000,1104.000,0.000,0.000,0
2026-01-30 23:24:50,1514534,5222.000,4076.000,6314.000,555.000,482.000,952.000,0.000,0.000,0
2026-01-30 23:24:50,1514574,4255.000,2624.000,6395.000,92.000,982.000,654.000,0.000,0.000,0
2026-01-30 23:24:50,1514614,4122.000,3213.000,5920.000,-271.000,678.000,834.000,0.000,0.000,0
2026-01-30 23:24:50,1514654,4391.000,2464.000,5965.000,-504.000,547.000,953.000,0.000,0.000,0
2026-01-30 23:24:50,1514694,4481.000,3301.000,5733.000,-816.000,483.000,606.000,0.000,0.000,0
2026-01-30 23:24:50,1514734,5341.000,2867.000,5368.000,-143.000,1179.000,463.000,0.000,0.000,0
2026-01-30 23:24:50,1514774,4446.000,2903.000,5765.000,-714.000,334.000,341.000,0.000,0.000,0
2026-01-30 23:24:50,1514814,5206.000,1644.000,6947.000,54.000,179.000,1343.000,0.000,0.000,0
2026-01-30 23:24:50,1514854,4524.000,2212.000,6459.000,462.000,-261.000,1078.000,0.000,0.000,0
2026-01-30 23:24:50,1514894,4064.000,2266.000,6397.000,282.000,-44.000,496.000,0.000,0.000,0
2026-01-30 23:24:50,1514934,3938.000,2122.000,6144.000,446.000,-21.000,583.000,0.000,0.000,0
2026-01-30 23:24:50,1514974,4557.000,2508.000,6509.000,691.000,80.000,823.000,0.000,0.000,0
2026-01-30 23:24:50,1515014,4448.000,3829.000,6754.000,501.000,-119.000,616.000,0.000,0.000,0
2026-01-30 23:24:50,1515054,4915.000,2149.000,6523.000,-100.000,-16.000,177.000,0.000,0.000,0
2026-01-30 23:24:50,1515094,4477.000,3101.000,6016.000,120.000,282.000,-100.000,0.000,0.000,0
2026-01-30 23:24:50,1515134,4974.000,2622.000,6817.000,675.000,702.000,-180.000,0.000,0.000,0
2026-01-30 23:24:50,1515174,4562.000,3128.000,6871.000,718.000,447.000,-226.000,0.000,0.000,0
2026-01-30 23:24:51,1515214,4738.000,3285.000,6361.000,313.000,-30.000,242.000,0.000,0.000,0
2026-01-30 23:24:51,1515254,5359.000,2545.000,5916.000,190.000,145.000,-16.000,0.000,0.000,0
2026-01-30 23:24:51,1515294,4247.000,2363.000,6232.000,284.000,303.000,-384.000,0.000,0.000,0
2026-01-30 23:24:51,1515334,4404.000,2158.000,6471.000,15.000,163.000,-361.000,0.000,0.000,0
2026-01-30 23:24:51,1515374,4853.000,2372.000,6419.000,-264.000,296.000,-261.000,0.000,0.000,0
2026-01-30 23:24:51,1515414,4657.000,3334.000,6403.000,-267.000,-619.000,-128.000,0.000,0.000,0
2026-01-30 23:24:51,1515454,4911.000,2369.000,6786.000,-309.000,-675.000,169.000,0.000,0.000,0
2026-01-30 23:24:51,1515494,4981.000,2243.000,6950.000,623.000,-52.000,-132.000,0.000,0.000,0
2026-01-30 23:24:51,1515534,4374.000,2927.000,6970.000,224.000,-422.000,-730.000,0.000,0.000,0
2026-01-30 23:24:51,1515574,4337.000,3672.000,6185.000,184.000,-75.000,-505.000,0.000,0.000,0
2026-01-30 23:24:51,1515614,3773.000,3066.000,6498.000,-595.000,8.000,-187.000,0.000,0.000,0
2026-01-30 23:24:51,1515654,4168.000,3556.000,6184.000,-542.000,461.000,-146.000,0.000,0.000,0
2026-01-30 23:24:51,1515694,3921.000,3237.000,7352.000,-738.000,763.000,-322.000,0.000,0.000,0
2026-01-30 23:24:51,1515734,3592.000,3059.000,6378.000,-906.000,441.000,-804.000,0.000,0.000,0
2026-01-30 23:24:51,1515774,3714.000,2928.000,6234.000,-1543.000,483.000,-655.000,0.000,0.000,0
2026-01-30 23:24:51,1515814,4115.000,3236.000,7492.000,-1239.000,231.000,150.000,0.000,0.000,0
2026-01-30 23:24:51,1515854,4310.000,2202.000,6255.000,-1629.000,-340.000,94.000,0.000,0.000,0
2026-01-30 23:24:51,1515894,4203.000,2446.000,6288.000,-1288.000,-212.000,90.000,0.000,0.000,0
2026-01-30 23:24:51,1515934,5079.000,1989.000,6038.000,-1147.000,-172.000,526.000,0.000,0.000,0
2026-01-30 23:24:51,1515974,4801.000,1183.000,5799.000,-451.000,-16.000,161.000,0.000,0.000,0
2026-01-30 23:24:51,1516014,4293.000,2627.000,7197.000,183.000,-194.000,353.000,0.000,0.000,0
2026-01-30 23:24:51,1516054,5220.000,1643.000,6212.000,352.000,-720.000,735.000,0.000,0.000,0
2026-01-30 23:24:51,1516094,5554.000,1672.000,6119.000,889.000,-107.000,523.000,0.000,0.000,0
2026-01-30 23:24:51,1516134,4575.000,4118.000,7401.000,330.000,-469.000,975.000,0.000,0.000,0
2026-01-30 23:24:51,1516174,5029.000,324.000,5728.000,559.000,-118.000,1141.000,0.000,0.000,0
2026-01-30 23:24:52,1516214,4040.000,3731.000,6873.000,603.000,336.000,422.000,0.000,0.000,0
2026-01-30 23:24:52,1516254,5125.000,3022.000,5905.000,-37.000,-358.000,756.000,0.000,0.000,0
2026-01-30 23:24:52,1516294,4447.000,1876.000,6435.000,-464.000,71.000,194.000,0.000,0.000,0
2026-01-30 23:24:52,1516334,3156.000,786.000,6711.000,143.000,740.000,68.000,0.000,0.000,0
2026-01-30 23:24:52,1516374,5428.000,3150.000,6434.000,-79.000,-45.000,174.000,0.000,0.000,0
2026-01-30 23:24:52,1516414,4814.000,2839.000,5897.000,-507.000,-360.000,433.000,0.000,0.000,0
2026-01-30 23:24:52,1516454,4858.000,2378.000,6334.000,-491.000,-380.000,415.000,0.000,0.000,0
2026-01-30 23:24:52,1516494,4516.000,1956.000,6223.000,-219.000,-62.000,-312.000,0.000,0.000,0
2026-01-30 23:24:52,1516534,5435.000,3543.000,6701.000,35.000,354.000,-427.000,0.000,0.000,0
2026-01-30 23:24:52,1516574,4511.000,1869.000,6578.000,-134.000,179.000,-297.000,0.000,0.000,0
2026-01-30 23:24:52,1516614,4319.000,1855.000,6261.000,-60.000,-350.000,-212.000,0.000,0.000,0
2026-01-30 23:24:52,1516654,5074.000,2677.000,6439.000,-150.000,-499.000,-177.000,0.000,0.000,0
2026-01-30 23:24:52,1516694,4283.000,1522.000,5920.000,-366.000,-533.000,-414.000,0.000,0.000,0
2026-01-30 23:24:52,1516734,5205.000,2225.000,6500.000,140.000,-128.000,-490.000,0.000,0.000,0
2026-01-30 23:24:52,1516774,5622.000,2243.000,6656.000,140.000,-15.000,-837.000,0.000,0.000,0
2026-01-30 23:24:52,1516814,3889.000,3216.000,6353.000,110.000,-201.000,-852.000,0.000,0.000,0
2026-01-30 23:24:52,1516854,5541.000,1025.000,6382.000,261.000,7.000,-315.000,0.000,0.000,0
2026-01-30 23:24:52,1516894,4566.000,3168.000,6413.000,591.000,-220.000,-645.000,0.000,0.000,0
2026-01-30 23:24:52,1516934,5665.000,3024.000,6376.000,816.000,-338.000,-174.000,0.000,0.000,0
2026-01-30 23:24:52,1516974,4503.000,1852.000,6464.000,730.000,-76.000,-267.000,0.000,0.000,0
2026-01-30 23:24:52,1517014,4165.000,1660.000,6621.000,812.000,-113.000,-359.000,0.000,0.000,0
2026-01-30 23:24:52,1517057,5753.000,1145.000,5526.000,1197.000,207.000,59.000,0.000,0.000,0
2026-01-30 23:24:52,1517097,5382.000,3607.000,6878.000,1292.000,116.000,-86.000,0.000,0.000,0
2026-01-30 23:24:52,1517134,4669.000,2880.000,7153.000,883.000,-59.000,-177.000,0.000,0.000,0
2026-01-30 23:24:52,1517174,4709.000,2626.000,7513.000,4.000,-503.000,77.000,0.000,0.000,0
2026-01-30 23:24:53,1517214,4588.000,3940.000,7223.000,181.000,92.000,-371.000,0.000,0.000,0
2026-01-30 23:24:53,1517254,4663.000,2815.000,5956.000,744.000,564.000,-197.000,0.000,0.000,0
2026-01-30 23:24:53,1517294,3678.000,2587.000,6512.000,79.000,745.000,-418.000,0.000,0.000,0
2026-01-30 23:24:53,1517334,4910.000,4125.000,7166.000,-226.000,512.000,-298.000,0.000,0.000,0
2026-01-30 23:24:53,1517374,3470.000,1416.000,6289.000,-291.000,523.000,-287.000,0.000,0.000,0
2026-01-30 23:24:53,1517414,4158.000,2963.000,6554.000,-702.000,336.000,1.000,0.000,0.000,0
2026-01-30 23:24:53,1517454,5041.000,2268.000,5714.000,8.000,187.000,232.000,0.000,0.000,0
2026-01-30 23:24:53,1517494,4531.000,2962.000,6421.000,-240.000,245.000,26.000,0.000,0.000,0
2026-01-30 23:24:53,1517534,3692.000,2077.000,6316.000,0.000,198.000,31.000,0.000,0.000,0
2026-01-30 23:24:53,1517574,3985.000,2040.000,6042.000,248.000,-93.000,501.000,0.000,0.000,0
2026-01-30 23:24:53,1517614,4561.000,2164.000,5992.000,792.000,316.000,607.000,0.000,0.000,0
2026-01-30 23:24:53,1517654,4436.000,2588.000,7035.000,783.000,741.000,414.000,0.000,0.000,0
2026-01-30 23:24:53,1517694,3869.000,2550.000,6557.000,645.000,-275.000,843.000,0.000,0.000,0
2026-01-30 23:24:53,1517734,4726.000,1333.000,6055.000,279.000,-468.000,1315.000,0.000,0.000,0
2026-01-30 23:24:53,1517774,4025.000,2139.000,6541.000,232.000,-267.000,1162.000,0.000,0.000,0
2026-01-30 23:24:53,1517814,5452.000,2859.000,6258.000,42.000,-87.000,1284.000,0.000,0.000,0
2026-01-30 23:24:53,1517854,4554.000,1951.000,5947.000,-20.000,308.000,497.000,0.000,0.000,0
2026-01-30 23:24:53,1517894,4603.000,3713.000,7920.000,614.000,799.000,666.000,0.000,0.000,0
2026-01-30 23:24:53,1517934,3972.000,2390.000,6909.000,-203.000,13.000,561.000,0.000,0.000,0
2026-01-30 23:24:53,1517974,3907.000,2662.000,5862.000,-399.000,101.000,485.000,0.000,0.000,0
2026-01-30 23:24:53,1518014,5135.000,2388.000,5849.000,-315.000,333.000,196.000,0.000,0.000,0
2026-01-30 23:24:53,1518054,4231.000,3692.000,6239.000,-538.000,431.000,-245.000,0.000,0.000,0
2026-01-30 23:24:53,1518094,5023.000,2739.000,6863.000,-197.000,126.000,344.000,0.000,0.000,0
2026-01-30 23:24:53,1518134,4067.000,2183.000,6335.000,-243.000,107.000,28.000,0.000,0.000,0
2026-01-30 23:24:53,1518174,3977.000,2886.000,6431.000,-116.000,-216.000,31.000,0.000,0.000,0
2026-01-30 23:24:54,1518214,5746.000,2797.000,6715.000,352.000,50.000,315.000,0.000,0.000,0
2026-01-30 23:24:54,1518254,3700.000,1826.000,6705.000,393.000,172.000,-409.000,0.000,0.000,0
2026-01-30 23:24:54,1518294,5156.000,2649.000,6905.000,736.000,225.000,-16.000,0.000,0.000,0
2026-01-30 23:24:54,1518334,4494.000,3148.000,6748.000,168.000,-435.000,66.000,0.000,0.000,1
2026-01-30 23:24:54,1518374,5230.000,2906.000,6145.000,596.000,6.000,259.000,0.000,0.000,1
2026-01-30 23:24:54,1518414,5436.000,2714.000,6388.000,854.000,5.000,-198.000,0.000,0.000,0
2026-01-30 23:24:54,1518454,4651.000,3140.000,6764.000,512.000,-339.000,-111.000,0.000,0.000,0
2026-01-30 23:24:54,1518494,4759.000,1910.000,6252.000,872.000,-319.000,476.000,0.000,0.000,0
2026-01-30 23:24:54,1518534,5398.000,2682.000,7340.000,1281.000,610.000,421.000,0.000,0.000,0
2026-01-30 23:24:54,1518574,3747.000,3377.000,6839.000,716.000,33.000,-84.000,0.000,0.000,0
2026-01-30 23:24:54,1518614,4949.000,3770.000,5848.000,458.000,104.000,290.000,0.000,0.000,0
2026-01-30 23:24:54,1518654,3979.000,3068.000,6520.000,147.000,474.000,223.000,0.000,0.000,0
2026-01-30 23:24:54,1518694,3966.000,2595.000,6827.000,174.000,536.000,265.000,0.000,0.000,0
2026-01-30 23:24:54,1518734,4813.000,3967.000,5445.000,-206.000,61.000,44.000,0.000,0.000,0
2026-01-30 23:24:54,1518774,5571.000,2083.000,6118.000,-322.000,829.000,-177.000,0.000,0.000,0
2026-01-30 23:24:54,1518814,4543.000,2294.000,6740.000,470.000,436.000,-230.000,0.000,0.000,0
2026-01-30 23:24:54,1518854,4962.000,2360.000,6155.000,330.000,-55.000,-200.000,0.000,0.000,0
2026-01-30 23:24:54,1518894,5048.000,2251.000,6096.000,639.000,-187.000,45.000,0.000,0.000,0
2026-01-30 23:24:54,1518934,4338.000,2420.000,6109.000,1085.000,-19.000,400.000,0.000,0.000,0
2026-01-30 23:24:54,1518974,4001.000,2164.000,5599.000,1147.000,-26.000,262.000,0.000,0.000,0
2026-01-30 23:24:54,1519014,6171.000,2834.000,6347.000,1155.000,814.000,-21.000,0.000,0.000,0
2026-01-30 23:24:54,1519054,2170.000,2039.000,6252.000,1251.000,1335.000,-993.000,0.000,0.000,0
2026-01-30 23:24:54,1519097,4479.000,3545.000,6166.000,920.000,823.000,300.000,0.000,0.000,0
2026-01-30 23:24:54,1519136,4594.000,3041.000,6301.000,891.000,887.000,-150.000,0.000,0.000,0
2026-01-30 23:24:54,1519174,4500.000,3359.000,6440.000,214.000,1022.000,-108.000,0.000,0.000,0
2026-01-30 23:24:55,1519214,3705.000,4017.000,6589.000,159.000,478.000,-159.000,0.000,0.000,0
2026-01-30 23:24:55,1519254,3498.000,3368.000,6314.000,-33.000,335.000,35.000,0.000,0.000,0
2026-01-30 23:24:55,1519294,5149.000,3269.000,6380.000,112.000,611.000,274.000,0.000,0.000,0
2026-01-30 23:24:55,1519337,3608.000,4432.000,6775.000,-354.000,58.000,24.000,0.000,0.000,0
2026-01-30 23:24:55,1519374,4096.000,3799.000,6468.000,-235.000,54.000,211.000,0.000,0.000,0
2026-01-30 23:24:55,1519414,4097.000,2819.000,5924.000,-705.000,-140.000,214.000,0.000,0.000,0
2026-01-30 23:24:55,1519454,4090.000,3906.000,6696.000,-495.000,105.000,200.000,0.000,0.000,0
2026-01-30 23:24:55,1519494,4141.000,3297.000,6698.000,-852.000,123.000,275.000,0.000,0.000,0
2026-01-30 23:24:55,1519534,3855.000,4164.000,6198.000,-684.000,35.000,10.000,0.000,0.000,0
2026-01-30 23:24:55,1519574,4711.000,3404.000,6312.000,-696.000,192.000,192.000,0.000,0.000,0
2026-01-30 23:24:55,1519614,3596.000,3938.000,6227.000,-304.000,66.000,-101.000,0.000,0.000,0
2026-01-30 23:24:55,1519654,3893.000,3236.000,6462.000,-543.000,-129.000,102.000,0.000,0.000,0
2026-01-30 23:24:55,1519694,5179.000,2622.000,6364.000,-232.000,17.000,476.000,0.000,0.000,0
2026-01-30 23:24:55,1519734,4325.000,3631.000,6902.000,-321.000,-20.000,57.000,0.000,0.000,0
2026-01-30 23:24:55,1519774,3732.000,3151.000,6087.000,-637.000,-453.000,-21.000,0.000,0.000,0
2026-01-30 23:24:55,1519814,4707.000,3291.000,6244.000,-588.000,-107.000,29.000,0.000,0.000,0
2026-01-30 23:24:55,1519854,3813.000,3338.000,6082.000,-363.000,124.000,-247.000,0.000,0.000,0
2026-01-30 23:24:55,1519894,4546.000,2633.000,6738.000,-473.000,60.000,-157.000,0.000,0.000,0
2026-01-30 23:24:55,1519934,3458.000,2968.000,5989.000,-505.000,-212.000,-289.000,0.000,0.000,0
2026-01-30 23:24:55,1519974,5114.000,2622.000,6796.000,-763.000,-216.000,-26.000,0.000,0.000,0
2026-01-30 23:24:55,1520014,4595.000,3623.000,6709.000,-299.000,371.000,-662.000,0.000,0.000,0
2026-01-30 23:24:55,1520054,3250.000,4128.000,6806.000,-396.000,270.000,-1038.000,0.000,0.000,0
2026-01-30 23:24:55,1520094,3923.000,4547.000,6145.000,-300.000,-540.000,-159.000,0.000,0.000,0
2026-01-30 23:24:55,1520134,4598.000,3061.000,5924.000,-377.000,-52.000,-251.000,0.000,0.000,0
2026-01-30 23:24:55,1520174,3633.000,3933.000,6224.000,-510.000,-439.000,-601.000,0.000,0.000,0
2026-01-30 23:24:56,1520214,4454.000,3238.000,5850.000,-387.000,-396.000,-328.000,0.000,0.000,0
2026-01-30 23:24:56,1520254,4710.000,2655.000,5892.000,-133.000,184.000,-408.000,0.000,0.000,0
2026-01-30 23:24:56,1520294,4603.000,2897.000,6670.000,-368.000,-339.000,-266.000,0.000,0.000,0
2026-01-30 23:24:56,1520334,4387.000,3654.000,6282.000,-232.000,-326.000,-233.000,0.000,0.000,0
2026-01-30 23:24:56,1520374,2465.000,3899.000,6630.000,-488.000,-765.000,-281.000,0.000,0.000,0
2026-01-30 23:24:56,1520414,6261.000,3251.000,6482.000,-612.000,-485.000,142.000,0.000,0.000,0
2026-01-30 23:24:56,1520454,3290.000,3229.000,5705.000,-418.000,-677.000,-954.000,0.000,0.000,0
2026-01-30 23:24:56,1520494,4820.000,3801.000,6891.000,-530.000,-624.000,-294.000,0.000,0.000,0
2026-01-30 23:24:56,1520534,4318.000,1928.000,5815.000,105.000,-396.000,-198.000,0.000,0.000,0
2026-01-30 23:24:56,1520574,4636.000,3580.000,6865.000,314.000,-447.000,-123.000,0.000,0.000,0
2026-01-30 23:24:56,1520614,3756.000,3270.000,7053.000,113.000,-629.000,-224.000,0.000,0.000,0
2026-01-30 23:24:56,1520654,3456.000,1772.000,5242.000,-56.000,-186.000,-128.000,0.000,0.000,0
2026-01-30 23:24:56,1520694,3858.000,2834.000,7002.000,499.000,-714.000,312.000,0.000,0.000,0
2026-01-30 23:24:56,1520734,5080.000,2390.000,5817.000,-326.000,-841.000,-156.000,0.000,0.000,0
2026-01-30 23:24:56,1520774,3405.000,2709.000,6773.000,-578.000,-190.000,-1159.000,0.000,0.000,0
2026-01-30 23:24:56,1520814,2910.000,3305.000,6655.000,-141.000,187.000,-1191.000,0.000,0.000,0
2026-01-30 23:24:56,1520854,4057.000,2541.000,6831.000,-815.000,163.000,-702.000,0.000,0.000,0
2026-01-30 23:24:56,1520894,3711.000,2589.000,6381.000,-822.000,344.000,-746.000,0.000,0.000,0
2026-01-30 23:24:56,1520934,3709.000,3862.000,7012.000,-1006.000,277.000,-870.000,0.000,0.000,0
2026-01-30 23:24:56,1520974,2942.000,1740.000,5859.000,-1231.000,-416.000,-619.000,0.000,0.000,0
2026-01-30 23:24:56,1521014,4281.000,3437.000,6564.000,-114.000,240.000,-341.000,0.000,0.000,0
2026-01-30 23:24:56,1521057,3626.000,3076.000,6212.000,-554.000,-494.000,-288.000,0.000,0.000,0
2026-01-30 23:24:56,1521097,4542.000,2231.000,6107.000,-276.000,-90.000,-221.000,0.000,0.000,0
2026-01-30 23:24:56,1521134,4105.000,2247.000,6210.000,-262.000,33.000,-444.000,0.000,0.000,0
2026-01-30 23:24:56,1521174,4745.000,2549.000,6693.000,-243.000,-247.000,-295.000,0.000,0.000,0
2026-01-30 23:24:57,1521214,3682.000,1997.000,6403.000,-106.000,-399.000,-135.000,0.000,0.000,0
2026-01-30 23:24:57,1521254,4538.000,2524.000,6036.000,590.000,-90.000,280.000,0.000,0.000,0
2026-01-30 23:24:57,1521294,5168.000,2206.000,6849.000,311.000,-475.000,364.000,0.000,0.000,0
2026-01-30 23:24:57,1521337,4595.000,2371.000,6355.000,600.000,-122.000,229.000,0.000,0.000,0
2026-01-30 23:24:57,1521374,3759.000,3240.000,7254.000,703.000,-253.000,231.000,0.000,0.000,0
2026-01-30 23:24:57,1521414,3568.000,2429.000,6645.000,281.000,-752.000,685.000,0.000,0.000,0
2026-01-30 23:24:57,1521454,4675.000,2038.000,6412.000,273.000,335.000,469.000,0.000,0.000,0
2026-01-30 23:24:57,1521494,3844.000,3424.000,6877.000,-289.000,83.000,38.000,0.000,0.000,0
2026-01-30 23:24:57,1521534,4735.000,3333.000,6075.000,-553.000,90.000,31.000,0.000,0.000,0
2026-01-30 23:24:57,1521574,4529.000,3565.000,6740.000,-267.000,198.000,-112.000,0.000,0.000,0
2026-01-30 23:24:57,1521614,4521.000,3081.000,6647.000,-2292.000,-1253.000,-463.000,0.000,0.000,0
2026-01-30 23:24:57,1521654,4465.000,2321.000,6260.000,-1876.000,-1251.000,-56.000,0.000,0.000,0
2026-01-30 23:24:57,1521694,4696.000,2975.000,5648.000,-1160.000,-950.000,-68.000,0.000,0.000,0
2026-01-30 23:24:57,1521734,4755.000,3017.000,6327.000,-656.000,-395.000,114.000,0.000,0.000,0
2026-01-30 23:24:57,1521774,8761.000,3526.000,7908.000,548.000,764.000,300.000,0.000,0.000,0
