datetime_local,uptime_ms,acc_x,acc_y,acc_z,gyro_x,gyro_y,gyro_z,speed_mps,turn_rate_deg_s,gps_valid
2026-01-31 00:17:28,1559054,319.000,-1947.000,8031.000,830.000,264.000,-265.000,0.000,0.000,0
2026-01-31 00:17:28,1559094,-238.000,-1797.000,8092.000,1132.000,576.000,-728.000,0.000,0.000,0
2026-01-31 00:17:28,1559134,223.000,-2199.000,7924.000,861.000,-39.000,479.000,0.000,0.000,0
2026-01-31 00:17:28,1559174,570.000,-2277.000,8035.000,1250.000,97.000,780.000,0.000,0.000,0
2026-01-31 00:17:28,1559214,396.000,-1880.000,8138.000,1306.000,-246.000,1020.000,0.000,0.000,0
2026-01-31 00:17:28,1559254,450.000,-2121.000,8317.000,485.000,-391.000,1438.000,0.000,0.000,0
2026-01-31 00:17:28,1559294,524.000,-2090.000,8407.000,390.000,-652.000,1826.000,0.000,0.000,0
2026-01-31 00:17:28,1559334,687.000,-1938.000,8429.000,117.000,-766.000,2113.000,0.000,0.000,0
2026-01-31 00:17:28,1559374,678.000,-1821.000,8292.000,-21.000,-1031.000,2181.000,0.000,0.000,0
2026-01-31 00:17:28,1559414,1508.000,-2264.000,7915.000,-355.000,-1378.000,2431.000,0.000,0.000,0
2026-01-31 00:17:28,1559454,2101.000,-2568.000,7678.000,407.000,-1389.000,3059.000,0.000,0.000,0
2026-01-31 00:17:28,1559494,2321.000,-2353.000,7613.000,1015.000,-1237.000,4530.000,0.000,0.000,0
2026-01-31 00:17:28,1559534,1913.000,-2378.000,7860.000,880.000,-753.000,6516.000,0.000,0.000,0
2026-01-31 00:17:28,1559574,578.000,-1562.000,7727.000,1438.000,-577.000,7940.000,0.000,0.000,0
2026-01-31 00:17:28,1559614,-269.000,-218.000,8444.000,2146.000,-540.000,8781.000,0.000,0.000,0
2026-01-31 00:17:28,1559654,-720.000,1347.000,9544.000,1835.000,-530.000,8692.000,0.000,0.000,0
2026-01-31 00:17:28,1559694,-1159.000,1272.000,8938.000,1502.000,314.000,7633.000,0.000,0.000,0
2026-01-31 00:17:28,1559734,-1586.000,1056.000,9498.000,3556.000,777.000,6398.000,0.000,0.000,0
2026-01-31 00:17:28,1559774,-1883.000,1988.000,9182.000,3225.000,645.000,4790.000,0.000,0.000,0
2026-01-31 00:17:29,1559814,-1944.000,301.000,8227.000,722.000,-701.000,4362.000,0.000,0.000,0
2026-01-31 00:17:29,1559854,-963.000,81.000,7440.000,425.000,-1633.000,3836.000,0.000,0.000,0
2026-01-31 00:17:29,1559894,-91.000,-104.000,6789.000,1489.000,-1544.000,2355.000,0.000,0.000,0
2026-01-31 00:17:29,1559934,-231.000,934.000,7391.000,2298.000,-1820.000,1395.000,0.000,0.000,0
2026-01-31 00:17:29,1559974,946.000,1421.000,7281.000,468.000,-2424.000,944.000,0.000,0.000,0
2026-01-31 00:17:29,1560014,1370.000,1793.000,8164.000,-4005.000,-1334.000,399.000,0.000,0.000,0
2026-01-31 00:17:29,1560054,-1132.000,-4617.000,9880.000,-3941.000,585.000,1389.000,0.000,0.000,0
2026-01-31 00:17:29,1560094,-3083.000,-1461.000,10548.000,4243.000,-471.000,1400.000,0.000,0.000,0
2026-01-31 00:17:29,1560134,-754.000,361.000,8756.000,5526.000,-1424.000,2211.000,0.000,0.000,0
2026-01-31 00:17:29,1560174,2818.000,4888.000,8966.000,1703.000,-2424.000,1024.000,0.000,0.000,0
2026-01-31 00:17:29,1560214,1458.000,1238.000,9137.000,-1536.000,538.000,211.000,0.000,0.000,0
2026-01-31 00:17:29,1560254,-1160.000,366.000,7698.000,-427.000,715.000,246.000,0.000,0.000,0
2026-01-31 00:17:29,1560294,-534.000,1372.000,9506.000,-11.000,-404.000,633.000,0.000,0.000,0
2026-01-31 00:17:29,1560334,-2285.000,979.000,11275.000,-1054.000,391.000,500.000,0.000,0.000,0
2026-01-31 00:17:29,1560374,-1436.000,-998.000,9701.000,-3772.000,64.000,667.000,0.000,0.000,0
2026-01-31 00:17:29,1560414,-766.000,398.000,7501.000,-4107.000,-754.000,122.000,0.000,0.000,0
2026-01-31 00:17:29,1560454,-1165.000,-1470.000,7634.000,-3257.000,281.000,-527.000,0.000,0.000,0
2026-01-31 00:17:29,1560494,158.000,-1564.000,5549.000,-1319.000,-1099.000,-1076.000,0.000,0.000,0
2026-01-31 00:17:29,1560534,-477.000,803.000,6365.000,3429.000,-1298.000,-2166.000,0.000,0.000,0
2026-01-31 00:17:29,1560574,-63.000,1020.000,7357.000,7602.000,-1689.000,-1546.000,0.000,0.000,0
2026-01-31 00:17:29,1560614,4222.000,-26.000,12511.000,667.000,-711.000,2046.000,0.000,0.000,0
2026-01-31 00:17:29,1560654,-1488.000,1617.000,9317.000,2444.000,572.000,680.000,0.000,0.000,0
2026-01-31 00:17:29,1560694,67.000,-612.000,8355.000,963.000,-395.000,831.000,0.000,0.000,0
2026-01-31 00:17:29,1560734,509.000,1306.000,8201.000,1074.000,-288.000,57.000,0.000,0.000,0
2026-01-31 00:17:29,1560776,-1441.000,394.000,8445.000,-204.000,538.000,98.000,0.000,0.000,0
2026-01-31 00:17:30,1560816,102.000,1425.000,9839.000,507.000,87.000,568.000,0.000,0.000,0
2026-01-31 00:17:30,1560854,-448.000,857.000,8618.000,61.000,353.000,792.000,0.000,0.000,0
2026-01-31 00:17:30,1560894,898.000,1187.000,9804.000,-148.000,416.000,909.000,0.000,0.000,0
2026-01-31 00:17:30,1560934,1028.000,890.000,8594.000,-500.000,490.000,759.000,0.000,0.000,0
2026-01-31 00:17:30,1560974,206.000,875.000,8147.000,-623.000,259.000,545.000,0.000,0.000,0
2026-01-31 00:17:30,1561014,38.000,-382.000,7907.000,-692.000,2.000,831.000,0.000,0.000,0
2026-01-31 00:17:30,1561056,1346.000,-283.000,8743.000,-764.000,122.000,1022.000,0.000,0.000,0
2026-01-31 00:17:30,1561094,-826.000,-270.000,8726.000,-509.000,907.000,595.000,0.000,0.000,0
2026-01-31 00:17:30,1561134,-1172.000,-268.000,9246.000,-521.000,265.000,889.000,0.000,0.000,0
2026-01-31 00:17:30,1561174,-21.000,8.000,8927.000,-12.000,-561.000,1362.000,0.000,0.000,0
2026-01-31 00:17:30,1561214,666.000,-337.000,7869.000,-452.000,-760.000,1150.000,0.000,0.000,0
2026-01-31 00:17:30,1561254,648.000,877.000,8669.000,-700.000,-760.000,616.000,0.000,0.000,0
2026-01-31 00:17:30,1561294,2597.000,255.000,7851.000,-819.000,-716.000,610.000,0.000,0.000,0
2026-01-31 00:17:30,1561334,-334.000,637.000,8060.000,-1331.000,67.000,-346.000,0.000,0.000,0
2026-01-31 00:17:30,1561374,554.000,1373.000,9084.000,-401.000,247.000,62.000,0.000,0.000,0
2026-01-31 00:17:30,1561414,-535.000,236.000,8406.000,-195.000,-52.000,32.000,0.000,0.000,0
2026-01-31 00:17:30,1561454,1476.000,-358.000,8208.000,-853.000,-411.000,508.000,0.000,0.000,0
2026-01-31 00:17:30,1561494,1803.000,363.000,8339.000,-506.000,-160.000,-36.000,0.000,0.000,0
2026-01-31 00:17:30,1561534,1244.000,-106.000,7373.000,-1143.000,33.000,-447.000,0.000,0.000,0
2026-01-31 00:17:30,1561574,993.000,708.000,8534.000,-925.000,294.000,-598.000,0.000,0.000,0
2026-01-31 00:17:30,1561614,1827.000,-202.000,7744.000,-548.000,7.000,-175.000,0.000,0.000,0
2026-01-31 00:17:30,1561654,1553.000,-610.000,7788.000,-451.000,187.000,-78.000,0.000,0.000,0
2026-01-31 00:17:30,1561694,758.000,108.000,8219.000,-441.000,184.000,-412.000,0.000,0.000,0
2026-01-31 00:17:30,1561734,2579.000,-87.000,7536.000,-92.000,-309.000,-85.000,0.000,0.000,0
2026-01-31 00:17:30,1561774,704.000,419.000,8825.000,175.000,154.000,-553.000,0.000,0.000,0
2026-01-31 00:17:31,1561814,1571.000,280.000,8983.000,-232.000,-9.000,-318.000,0.000,0.000,0
2026-01-31 00:17:31,1561854,1850.000,-60.000,7603.000,-16.000,-241.000,-567.000,0.000,0.000,0
2026-01-31 00:17:31,1561894,1040.000,99.000,8013.000,-77.000,-293.000,-641.000,0.000,0.000,0
2026-01-31 00:17:31,1561934,1137.000,-300.000,7749.000,-180.000,20.000,-547.000,0.000,0.000,0
2026-01-31 00:17:31,1561974,1313.000,-145.000,7851.000,9.000,337.000,-537.000,0.000,0.000,0
2026-01-31 00:17:31,1562014,1122.000,-363.000,8013.000,343.000,765.000,-288.000,0.000,0.000,0
2026-01-31 00:17:31,1562054,2819.000,-244.000,7437.000,1081.000,288.000,376.000,0.000,0.000,0
2026-01-31 00:17:31,1562094,129.000,186.000,8801.000,788.000,749.000,-99.000,0.000,0.000,0
2026-01-31 00:17:31,1562134,1400.000,487.000,8787.000,680.000,327.000,-18.000,0.000,0.000,0
2026-01-31 00:17:31,1562174,2982.000,-126.000,8192.000,472.000,-161.000,227.000,0.000,0.000,0
2026-01-31 00:17:31,1562214,442.000,193.000,8525.000,494.000,725.000,-290.000,0.000,0.000,0
2026-01-31 00:17:31,1562254,798.000,268.000,8987.000,361.000,473.000,-110.000,0.000,0.000,0
2026-01-31 00:17:31,1562294,471.000,143.000,8041.000,538.000,265.000,-241.000,0.000,0.000,0
2026-01-31 00:17:31,1562334,785.000,438.000,8420.000,175.000,18.000,-80.000,0.000,0.000,0
2026-01-31 00:17:31,1562374,233.000,555.000,8729.000,305.000,-109.000,-80.000,0.000,0.000,0
2026-01-31 00:17:31,1562414,1436.000,768.000,8638.000,53.000,-432.000,-29.000,0.000,0.000,0
2026-01-31 00:17:31,1562454,693.000,128.000,8317.000,58.000,75.000,-80.000,0.000,0.000,0
2026-01-31 00:17:31,1562494,-227.000,546.000,9377.000,-81.000,613.000,-149.000,0.000,0.000,0
2026-01-31 00:17:31,1562534,750.000,625.000,8338.000,338.000,-3.000,165.000,0.000,0.000,0
2026-01-31 00:17:31,1562574,1773.000,233.000,8609.000,269.000,-797.000,605.000,0.000,0.000,0
2026-01-31 00:17:31,1562614,1192.000,-90.000,7760.000,200.000,-423.000,9.000,0.000,0.000,0
2026-01-31 00:17:31,1562654,72.000,955.000,8722.000,-184.000,-130.000,-218.000,0.000,0.000,0
2026-01-31 00:17:31,1562694,2120.000,352.000,7890.000,111.000,-630.000,265.000,0.000,0.000,0
2026-01-31 00:17:31,1562734,2524.000,582.000,8428.000,159.000,-296.000,311.000,0.000,0.000,0
2026-01-31 00:17:31,1562774,529.000,353.000,8848.000,41.000,256.000,-112.000,0.000,0.000,0
2026-01-31 00:17:32,1562816,890.000,647.000,8281.000,-161.000,-109.000,-220.000,0.000,0.000,0
2026-01-31 00:17:32,1562855,2261.000,-62.000,7948.000,-133.000,-82.000,126.000,0.000,0.000,0
2026-01-31 00:17:32,1562894,1077.000,450.000,8399.000,106.000,572.000,-226.000,0.000,0.000,0
2026-01-31 00:17:32,1562934,-647.000,644.000,8890.000,-87.000,372.000,-192.000,0.000,0.000,1
2026-01-31 00:17:32,1562974,3383.000,-24.000,7456.000,171.000,-1260.000,747.000,0.000,0.000,1
2026-01-31 00:17:32,1563014,-529.000,773.000,9551.000,-139.000,163.000,-482.000,0.000,0.000,0
2026-01-31 00:17:32,1563056,2986.000,-509.000,7393.000,-493.000,-668.000,378.000,0.000,0.000,0
2026-01-31 00:17:32,1563094,-325.000,585.000,8049.000,-71.000,531.000,-810.000,0.000,0.000,0
2026-01-31 00:17:32,1563134,-184.000,768.000,9491.000,-475.000,374.000,-297.000,0.000,0.000,0
2026-01-31 00:17:32,1563174,3387.000,817.000,7176.000,405.000,-676.000,369.000,0.000,0.000,0
2026-01-31 00:17:32,1563214,725.000,372.000,8582.000,-280.000,346.000,-480.000,0.000,0.000,0
2026-01-31 00:17:32,1563254,1530.000,885.000,8594.000,200.000,-22.000,-252.000,0.000,0.000,0
2026-01-31 00:17:32,1563294,2296.000,584.000,8430.000,-356.000,-2.000,-6.000,0.000,0.000,0
2026-01-31 00:17:32,1563334,1621.000,129.000,8151.000,-82.000,100.000,-158.000,0.000,0.000,0
2026-01-31 00:17:32,1563374,-995.000,355.000,8133.000,-362.000,218.000,-565.000,0.000,0.000,0
2026-01-31 00:17:32,1563414,1200.000,378.000,8723.000,-208.000,-719.000,200.000,0.000,0.000,0
2026-01-31 00:17:32,1563454,2267.000,209.000,7053.000,386.000,-155.000,-219.000,0.000,0.000,0
2026-01-31 00:17:32,1563494,1078.000,1144.000,9072.000,119.000,542.000,-455.000,0.000,0.000,0
2026-01-31 00:17:32,1563534,1577.000,187.000,7699.000,227.000,43.000,-27.000,0.000,0.000,0
2026-01-31 00:17:32,1563574,-535.000,797.000,9061.000,-37.000,-118.000,-447.000,0.000,0.000,0
2026-01-31 00:17:32,1563614,2932.000,-259.000,7882.000,201.000,-1136.000,203.000,0.000,0.000,0
2026-01-31 00:17:32,1563654,1158.000,453.000,8226.000,-171.000,316.000,-677.000,0.000,0.000,0
2026-01-31 00:17:32,1563694,1321.000,172.000,8404.000,-60.000,131.000,-379.000,0.000,0.000,0
2026-01-31 00:17:32,1563734,1397.000,576.000,7194.000,645.000,1.000,-325.000,0.000,0.000,0
2026-01-31 00:17:32,1563774,672.000,1019.000,8875.000,189.000,-329.000,-154.000,0.000,0.000,0
2026-01-31 00:17:33,1563814,2011.000,59.000,8259.000,257.000,-498.000,-6.000,0.000,0.000,0
2026-01-31 00:17:33,1563854,2376.000,-12.000,8313.000,-181.000,185.000,-281.000,0.000,0.000,0
2026-01-31 00:17:33,1563894,1119.000,47.000,7810.000,75.000,911.000,-578.000,0.000,0.000,0
2026-01-31 00:17:33,1563934,947.000,772.000,8929.000,130.000,609.000,-350.000,0.000,0.000,1
2026-01-31 00:17:33,1563974,911.000,302.000,8323.000,249.000,107.000,-192.000,0.000,0.000,1
2026-01-31 00:17:33,1564014,540.000,348.000,9276.000,-55.000,81.000,-37.000,0.000,0.000,0
2026-01-31 00:17:33,1564054,4025.000,-258.000,7128.000,275.000,-553.000,463.000,0.000,0.000,0
2026-01-31 00:17:33,1564094,-1180.000,1057.000,8633.000,681.000,1141.000,-747.000,0.000,0.000,0
2026-01-31 00:17:33,1564134,521.000,560.000,8112.000,212.000,-984.000,526.000,0.000,0.000,0
2026-01-31 00:17:33,1564174,4231.000,-529.000,7734.000,329.000,-1089.000,530.000,0.000,0.000,0
2026-01-31 00:17:33,1564214,1228.000,467.000,8929.000,38.000,712.000,-304.000,0.000,0.000,0
2026-01-31 00:17:33,1564254,1247.000,54.000,8331.000,235.000,863.000,-168.000,0.000,0.000,0
2026-01-31 00:17:33,1564294,363.000,138.000,8773.000,180.000,889.000,-46.000,0.000,0.000,0
2026-01-31 00:17:33,1564334,-1949.000,503.000,9789.000,329.000,1001.000,-121.000,0.000,0.000,0
2026-01-31 00:17:33,1564374,910.000,156.000,8263.000,75.000,-497.000,476.000,0.000,0.000,0
2026-01-31 00:17:33,1564414,4452.000,291.000,6150.000,207.000,-1022.000,514.000,0.000,0.000,0
2026-01-31 00:17:33,1564454,-505.000,1573.000,9663.000,-115.000,1158.000,-803.000,0.000,0.000,0
2026-01-31 00:17:33,1564494,1810.000,-874.000,5055.000,-249.000,-1.000,305.000,0.000,0.000,0
2026-01-31 00:17:33,1564534,-1501.000,3306.000,11468.000,274.000,855.000,-583.000,0.000,0.000,0
2026-01-31 00:17:33,1564574,4032.000,-1031.000,7299.000,-302.000,-255.000,1249.000,0.000,0.000,0
2026-01-31 00:17:33,1564614,100.000,1726.000,10310.000,379.000,660.000,53.000,0.000,0.000,0
2026-01-31 00:17:33,1564654,52.000,-673.000,9050.000,-274.000,-110.000,511.000,0.000,0.000,0
2026-01-31 00:17:33,1564694,616.000,532.000,7806.000,-248.000,-1011.000,299.000,0.000,0.000,0
2026-01-31 00:17:33,1564734,1018.000,326.000,6915.000,-475.000,-1080.000,68.000,0.000,0.000,0
2026-01-31 00:17:33,1564774,1307.000,844.000,8978.000,-351.000,-581.000,-151.000,0.000,0.000,0
2026-01-31 00:17:34,1564814,3188.000,-30.000,6516.000,-468.000,-166.000,20.000,0.000,0.000,0
2026-01-31 00:17:34,1564854,-489.000,1282.000,8681.000,181.000,905.000,-570.000,0.000,0.000,0
2026-01-31 00:17:34,1564894,2947.000,-125.000,7783.000,-383.000,116.000,593.000,0.000,0.000,0
2026-01-31 00:17:34,1564934,854.000,601.000,8098.000,83.000,1072.000,-192.000,0.000,0.000,1
2026-01-31 00:17:34,1564974,-772.000,455.000,8836.000,-204.000,842.000,-107.000,0.000,0.000,1
2026-01-31 00:17:34,1565014,1495.000,635.000,7825.000,-31.000,-387.000,465.000,0.000,0.000,0
2026-01-31 00:17:34,1565056,3412.000,112.000,8085.000,-285.000,-676.000,539.000,0.000,0.000,0
2026-01-31 00:17:34,1565094,-18.000,745.000,8658.000,-15.000,893.000,-618.000,0.000,0.000,0
2026-01-31 00:17:34,1565134,592.000,696.000,8876.000,-297.000,-300.000,157.000,0.000,0.000,0
2026-01-31 00:17:34,1565174,1702.000,745.000,7832.000,85.000,-671.000,488.000,0.000,0.000,0
2026-01-31 00:17:34,1565214,502.000,792.000,9246.000,-83.000,-270.000,123.000,0.000,0.000,0
2026-01-31 00:17:34,1565254,3306.000,-79.000,8051.000,-294.000,-601.000,441.000,0.000,0.000,0
2026-01-31 00:17:34,1565294,1408.000,363.000,7513.000,19.000,209.000,-444.000,0.000,0.000,0
2026-01-31 00:17:34,1565334,-551.000,674.000,8036.000,-369.000,121.000,-504.000,0.000,0.000,0
2026-01-31 00:17:34,1565374,3241.000,93.000,7909.000,-87.000,-876.000,583.000,0.000,0.000,0
2026-01-31 00:17:34,1565414,39.000,1188.000,9406.000,213.000,1237.000,-748.000,0.000,0.000,0
2026-01-31 00:17:34,1565454,4009.000,300.000,5989.000,147.000,138.000,305.000,0.000,0.000,0
2026-01-31 00:17:34,1565494,-1481.000,1365.000,9019.000,478.000,993.000,-835.000,0.000,0.000,0
2026-01-31 00:17:34,1565534,2416.000,103.000,7085.000,126.000,-402.000,62.000,0.000,0.000,0
2026-01-31 00:17:34,1565574,383.000,891.000,8485.000,-457.000,528.000,-671.000,0.000,0.000,0
2026-01-31 00:17:34,1565614,776.000,941.000,9015.000,-112.000,254.000,-252.000,0.000,0.000,0
2026-01-31 00:17:34,1565654,2198.000,1076.000,8448.000,206.000,-393.000,438.000,0.000,0.000,0
2026-01-31 00:17:34,1565694,1888.000,66.000,7847.000,19.000,-214.000,377.000,0.000,0.000,0
2026-01-31 00:17:34,1565734,-575.000,629.000,9212.000,-177.000,77.000,-300.000,0.000,0.000,0
2026-01-31 00:17:34,1565774,2304.000,249.000,7887.000,-19.000,-858.000,224.000,0.000,0.000,0
2026-01-31 00:17:35,1565814,1164.000,635.000,8647.000,-128.000,-240.000,-167.000,0.000,0.000,0
2026-01-31 00:17:35,1565854,821.000,174.000,7952.000,-40.000,-114.000,-261.000,0.000,0.000,0
2026-01-31 00:17:35,1565894,2434.000,524.000,7512.000,-265.000,-227.000,13.000,0.000,0.000,0
2026-01-31 00:17:35,1565934,104.000,1174.000,8456.000,152.000,275.000,-517.000,0.000,0.000,1
2026-01-31 00:17:35,1565974,1913.000,9.000,8786.000,-301.000,-390.000,244.000,0.000,0.000,1
2026-01-31 00:17:35,1566014,1834.000,446.000,7157.000,366.000,447.000,-419.000,0.000,0.000,0
2026-01-31 00:17:35,1566054,1642.000,1173.000,8373.000,181.000,352.000,-297.000,0.000,0.000,0
2026-01-31 00:17:35,1566094,-430.000,963.000,9567.000,367.000,767.000,-501.000,0.000,0.000,0
2026-01-31 00:17:35,1566134,2391.000,882.000,8312.000,15.000,-455.000,467.000,0.000,0.000,0
2026-01-31 00:17:35,1566174,622.000,1059.000,9064.000,321.000,324.000,-479.000,0.000,0.000,0
2026-01-31 00:17:35,1566214,1121.000,441.000,7932.000,-280.000,-210.000,-30.000,0.000,0.000,0
2026-01-31 00:17:35,1566254,442.000,716.000,7616.000,340.000,-217.000,-173.000,0.000,0.000,0
2026-01-31 00:17:35,1566294,3670.000,47.000,7375.000,222.000,-802.000,498.000,0.000,0.000,0
2026-01-31 00:17:35,1566334,-494.000,1262.000,9971.000,295.000,1402.000,-778.000,0.000,0.000,0
2026-01-31 00:17:35,1566374,714.000,130.000,7744.000,383.000,521.000,-54.000,0.000,0.000,0
2026-01-31 00:17:35,1566414,-570.000,1328.000,8674.000,559.000,-699.000,366.000,0.000,0.000,0
2026-01-31 00:17:35,1566454,3245.000,-393.000,7304.000,193.000,-1526.000,964.000,0.000,0.000,0
2026-01-31 00:17:35,1566494,2331.000,1131.000,8644.000,117.000,-77.000,-219.000,0.000,0.000,0
2026-01-31 00:17:35,1566534,1924.000,149.000,7436.000,169.000,709.000,-671.000,0.000,0.000,0
2026-01-31 00:17:35,1566574,-1617.000,1898.000,8575.000,224.000,500.000,-831.000,0.000,0.000,0
2026-01-31 00:17:35,1566614,3744.000,247.000,7786.000,-88.000,-1131.000,1020.000,0.000,0.000,0
2026-01-31 00:17:35,1566654,2946.000,1378.000,7841.000,-29.000,-4.000,299.000,0.000,0.000,0
2026-01-31 00:17:35,1566694,-514.000,719.000,8698.000,-84.000,766.000,-462.000,0.000,0.000,0
2026-01-31 00:17:35,1566734,-174.000,602.000,7677.000,-250.000,-282.000,142.000,0.000,0.000,0
2026-01-31 00:17:35,1566774,-1068.000,1548.000,8508.000,33.000,-591.000,-165.000,0.000,0.000,0
2026-01-31 00:17:36,1566816,6221.000,386.000,7437.000,-310.000,-2409.000,1270.000,0.000,0.000,0
2026-01-31 00:17:36,1566854,-1572.000,934.000,8745.000,244.000,2215.000,-1328.000,0.000,0.000,0
2026-01-31 00:17:36,1566894,2249.000,388.000,7400.000,-126.000,324.000,188.000,0.000,0.000,0
2026-01-31 00:17:36,1566934,-2083.000,1967.000,9318.000,687.000,431.000,-603.000,0.000,0.000,1
2026-01-31 00:17:36,1566974,3442.000,15.000,7277.000,-54.000,-1643.000,1172.000,0.000,0.000,1
2026-01-31 00:17:36,1567014,1425.000,904.000,7971.000,298.000,-223.000,-154.000,0.000,0.000,0
2026-01-31 00:17:36,1567057,660.000,1249.000,8085.000,399.000,1401.000,-1116.000,0.000,0.000,0
2026-01-31 00:17:36,1567094,516.000,912.000,6328.000,17.000,741.000,-506.000,0.000,0.000,0
2026-01-31 00:17:36,1567134,-5411.000,2741.000,11707.000,-110.000,1233.000,-1337.000,0.000,0.000,0
2026-01-31 00:17:36,1567174,10887.000,-973.000,5859.000,-146.000,-2583.000,2769.000,0.000,0.000,0
2026-01-31 00:17:36,1567214,-6028.000,2286.000,10915.000,1672.000,3955.000,-1969.000,0.000,0.000,0
2026-01-31 00:17:36,1567254,1698.000,-768.000,7183.000,-598.000,-532.000,1388.000,0.000,0.000,0
2026-01-31 00:17:36,1567294,2931.000,1356.000,8172.000,1305.000,-1128.000,598.000,0.000,0.000,0
2026-01-31 00:17:36,1567334,-1382.000,549.000,9424.000,-626.000,1357.000,-429.000,0.000,0.000,0
2026-01-31 00:17:36,1567374,-821.000,1702.000,9239.000,431.000,286.000,140.000,0.000,0.000,0
2026-01-31 00:17:36,1567414,1058.000,-284.000,7834.000,60.000,-2435.000,1565.000,0.000,0.000,0
2026-01-31 00:17:36,1567454,7802.000,1075.000,7642.000,1040.000,-1679.000,869.000,0.000,0.000,0
2026-01-31 00:17:36,1567494,-263.000,1157.000,7045.000,-58.000,2343.000,-1350.000,0.000,0.000,0
2026-01-31 00:17:36,1567534,-1453.000,1316.000,7863.000,674.000,1453.000,-966.000,0.000,0.000,0
2026-01-31 00:17:36,1567574,-2226.000,723.000,10130.000,209.000,751.000,322.000,0.000,0.000,0
2026-01-31 00:17:36,1567614,4911.000,1014.000,8430.000,497.000,-750.000,2042.000,0.000,0.000,0
2026-01-31 00:17:36,1567654,-781.000,819.000,8454.000,-315.000,2184.000,-668.000,0.000,0.000,0
2026-01-31 00:17:36,1567694,189.000,133.000,6993.000,-1090.000,86.000,-99.000,0.000,0.000,0
2026-01-31 00:17:36,1567734,-307.000,944.000,9066.000,-330.000,99.000,-154.000,0.000,0.000,0
2026-01-31 00:17:36,1567774,2905.000,1671.000,8493.000,-150.000,101.000,750.000,0.000,0.000,0
2026-01-31 00:17:37,1567814,-2720.000,872.000,10265.000,124.000,1445.000,-16.000,0.000,0.000,0
2026-01-31 00:17:37,1567854,826.000,174.000,9178.000,7.000,-608.000,1002.000,0.000,0.000,0
2026-01-31 00:17:37,1567894,1339.000,1034.000,8092.000,-308.000,-846.000,370.000,0.000,0.000,0
2026-01-31 00:17:37,1567934,-1377.000,308.000,8043.000,-748.000,-396.000,-201.000,0.000,0.000,1
2026-01-31 00:17:37,1567974,2287.000,313.000,7933.000,-99.000,-2085.000,997.000,0.000,0.000,1
2026-01-31 00:17:37,1568014,188.000,1502.000,8859.000,-1.000,-514.000,124.000,0.000,0.000,0
2026-01-31 00:17:37,1568054,2409.000,567.000,6376.000,358.000,-722.000,341.000,0.000,0.000,0
2026-01-31 00:17:37,1568094,3081.000,1289.000,7909.000,31.000,-654.000,222.000,0.000,0.000,0
2026-01-31 00:17:37,1568134,1797.000,767.000,8065.000,-418.000,543.000,-337.000,0.000,0.000,0
2026-01-31 00:17:37,1568174,1854.000,1292.000,8012.000,-402.000,741.000,-282.000,0.000,0.000,0
2026-01-31 00:17:37,1568214,2275.000,-256.000,7580.000,-992.000,-380.000,351.000,0.000,0.000,0
2026-01-31 00:17:37,1568254,1606.000,2097.000,10603.000,-79.000,520.000,-476.000,0.000,0.000,0
2026-01-31 00:17:37,1568294,2702.000,648.000,5863.000,-91.000,83.000,-110.000,0.000,0.000,0
2026-01-31 00:17:37,1568334,-867.000,1535.000,9406.000,297.000,115.000,-587.000,0.000,0.000,0
2026-01-31 00:17:37,1568374,3441.000,863.000,8209.000,-554.000,-956.000,806.000,0.000,0.000,0
2026-01-31 00:17:37,1568414,1807.000,1970.000,8793.000,160.000,11.000,-169.000,0.000,0.000,0
2026-01-31 00:17:37,1568454,493.000,853.000,7951.000,-96.000,255.000,-18.000,0.000,0.000,0
2026-01-31 00:17:37,1568494,3164.000,623.000,7546.000,-75.000,-790.000,683.000,0.000,0.000,0
2026-01-31 00:17:37,1568534,1903.000,906.000,8416.000,-799.000,87.000,-64.000,0.000,0.000,0
2026-01-31 00:17:37,1568574,1594.000,680.000,8040.000,-342.000,-114.000,178.000,0.000,0.000,0
2026-01-31 00:17:37,1568614,1010.000,1270.000,8220.000,-376.000,-669.000,126.000,0.000,0.000,0
2026-01-31 00:17:37,1568654,1696.000,552.000,8479.000,-919.000,-1206.000,323.000,0.000,0.000,0
2026-01-31 00:17:37,1568694,3117.000,1013.000,7781.000,-288.000,-630.000,-247.000,0.000,0.000,0
2026-01-31 00:17:37,1568734,4188.000,721.000,6390.000,-933.000,-85.000,-444.000,0.000,0.000,0
2026-01-31 00:17:37,1568776,-2447.000,2006.000,10430.000,63.000,1612.000,-1622.000,0.000,0.000,0
2026-01-31 00:17:38,1568816,2756.000,1086.000,8560.000,-1.000,-839.000,969.000,0.000,0.000,0
2026-01-31 00:17:38,1568854,3588.000,413.000,8445.000,-119.000,-649.000,534.000,0.000,0.000,0
2026-01-31 00:17:38,1568894,2839.000,1140.000,8775.000,-379.000,561.000,-610.000,0.000,0.000,0
2026-01-31 00:17:38,1568934,-501.000,1257.000,7987.000,-135.000,430.000,-994.000,0.000,0.000,1
2026-01-31 00:17:38,1568974,2139.000,392.000,7499.000,29.000,-888.000,469.000,0.000,0.000,1
2026-01-31 00:17:38,1569014,3920.000,215.000,7512.000,265.000,-392.000,390.000,0.000,0.000,0
2026-01-31 00:17:38,1569056,4131.000,-306.000,6177.000,-310.000,648.000,-462.000,0.000,0.000,0
2026-01-31 00:17:38,1569094,-1051.000,835.000,8981.000,46.000,1271.000,-1815.000,0.000,0.000,0
2026-01-31 00:17:38,1569134,332.000,925.000,8345.000,-100.000,-379.000,-249.000,0.000,0.000,0
2026-01-31 00:17:38,1569174,3054.000,848.000,9186.000,116.000,-379.000,378.000,0.000,0.000,0
2026-01-31 00:17:38,1569214,4156.000,121.000,7361.000,223.000,633.000,-105.000,0.000,0.000,0
2026-01-31 00:17:38,1569254,177.000,554.000,7913.000,684.000,1117.000,-1003.000,0.000,0.000,0
2026-01-31 00:17:38,1569294,1941.000,-168.000,8015.000,309.000,-365.000,-360.000,0.000,0.000,0
2026-01-31 00:17:38,1569334,1295.000,1173.000,8590.000,-358.000,-170.000,-337.000,0.000,0.000,0
2026-01-31 00:17:38,1569374,2006.000,139.000,7768.000,232.000,-100.000,212.000,0.000,0.000,0
2026-01-31 00:17:38,1569414,3686.000,843.000,7962.000,341.000,-193.000,349.000,0.000,0.000,0
2026-01-31 00:17:38,1569454,1313.000,930.000,7632.000,407.000,736.000,-923.000,0.000,0.000,0
2026-01-31 00:17:38,1569494,-527.000,1194.000,8267.000,-596.000,76.000,-1009.000,0.000,0.000,0
2026-01-31 00:17:38,1569534,2639.000,38.000,8924.000,-612.000,-1834.000,353.000,0.000,0.000,0
2026-01-31 00:17:38,1569574,2388.000,572.000,6931.000,262.000,-795.000,29.000,0.000,0.000,0
2026-01-31 00:17:38,1569614,5232.000,1146.000,8974.000,-382.000,-1072.000,295.000,0.000,0.000,0
2026-01-31 00:17:38,1569654,2240.000,-267.000,7479.000,312.000,1354.000,-560.000,0.000,0.000,0
2026-01-31 00:17:38,1569694,-3885.000,1552.000,9050.000,813.000,1627.000,-1287.000,0.000,0.000,0
2026-01-31 00:17:38,1569734,4033.000,-230.000,7829.000,272.000,-375.000,570.000,0.000,0.000,0
2026-01-31 00:17:38,1569774,3126.000,451.000,8121.000,-180.000,458.000,-146.000,0.000,0.000,0
2026-01-31 00:17:39,1569814,929.000,-550.000,6118.000,182.000,444.000,-431.000,0.000,0.000,0
2026-01-31 00:17:39,1569854,-12.000,1381.000,9463.000,815.000,-11.000,-278.000,0.000,0.000,0
2026-01-31 00:17:39,1569894,7754.000,663.000,5319.000,-507.000,-1221.000,1125.000,0.000,0.000,0
2026-01-31 00:17:39,1569934,-5353.000,2681.000,12281.000,2103.000,3137.000,-1793.000,0.000,0.000,1
2026-01-31 00:17:39,1569974,4368.000,-552.000,7932.000,-1061.000,-60.000,1741.000,0.000,0.000,1
2026-01-31 00:17:39,1570014,98.000,42.000,8394.000,1205.000,186.000,360.000,0.000,0.000,0
2026-01-31 00:17:39,1570054,358.000,1269.000,9177.000,-631.000,-708.000,582.000,0.000,0.000,0
2026-01-31 00:17:39,1570094,1749.000,440.000,6784.000,379.000,-614.000,-142.000,0.000,0.000,0
2026-01-31 00:17:39,1570134,3355.000,550.000,7136.000,-695.000,-635.000,217.000,0.000,0.000,0
2026-01-31 00:17:39,1570174,624.000,1262.000,8614.000,746.000,787.000,-447.000,0.000,0.000,0
2026-01-31 00:17:39,1570214,2902.000,668.000,8307.000,-485.000,54.000,349.000,0.000,0.000,0
2026-01-31 00:17:39,1570254,713.000,563.000,8757.000,-7.000,486.000,-84.000,0.000,0.000,0
2026-01-31 00:17:39,1570294,2311.000,-55.000,7957.000,-613.000,-132.000,379.000,0.000,0.000,0
2026-01-31 00:17:39,1570334,1194.000,1072.000,8354.000,-140.000,170.000,-186.000,0.000,0.000,0
2026-01-31 00:17:39,1570374,1748.000,331.000,7409.000,-602.000,-85.000,-1.000,0.000,0.000,0
2026-01-31 00:17:39,1570414,1480.000,1110.000,8250.000,-326.000,-299.000,71.000,0.000,0.000,0
2026-01-31 00:17:39,1570454,3870.000,-212.000,7666.000,-663.000,-566.000,544.000,0.000,0.000,0
2026-01-31 00:17:39,1570494,2616.000,881.000,8106.000,-525.000,-440.000,448.000,0.000,0.000,0
2026-01-31 00:17:39,1570534,2496.000,571.000,8431.000,82.000,-93.000,195.000,0.000,0.000,0
2026-01-31 00:17:39,1570574,1731.000,639.000,8878.000,-245.000,343.000,-83.000,0.000,0.000,0
2026-01-31 00:17:39,1570614,1252.000,1048.000,8687.000,39.000,147.000,-370.000,0.000,0.000,0
2026-01-31 00:17:39,1570654,2530.000,651.000,7916.000,-352.000,-383.000,107.000,0.000,0.000,0
2026-01-31 00:17:39,1570694,-422.000,723.000,7819.000,273.000,13.000,-316.000,0.000,0.000,0
2026-01-31 00:17:39,1570734,1934.000,1608.000,8498.000,-510.000,-1250.000,944.000,0.000,0.000,0
2026-01-31 00:17:39,1570774,5003.000,3.000,6685.000,-595.000,-875.000,725.000,0.000,0.000,0
2026-01-31 00:17:40,1570814,1685.000,-109.000,7201.000,-991.000,674.000,-484.000,0.000,0.000,0
2026-01-31 00:17:40,1570854,931.000,-109.000,8685.000,-40.000,-197.000,77.000,0.000,0.000,0
2026-01-31 00:17:40,1570894,2906.000,-81.000,8020.000,228.000,-464.000,386.000,0.000,0.000,0
2026-01-31 00:17:40,1570934,1769.000,635.000,8405.000,272.000,27.000,-314.000,0.000,0.000,1
2026-01-31 00:17:40,1570974,2698.000,456.000,8435.000,386.000,-330.000,99.000,0.000,0.000,1
2026-01-31 00:17:40,1571014,3430.000,-368.000,7485.000,176.000,-363.000,208.000,0.000,0.000,0
2026-01-31 00:17:40,1571056,-126.000,547.000,8682.000,307.000,391.000,-650.000,0.000,0.000,0
2026-01-31 00:17:40,1571094,2852.000,37.000,7677.000,326.000,-544.000,412.000,0.000,0.000,0
2026-01-31 00:17:40,1571134,3921.000,66.000,8361.000,387.000,235.000,171.000,0.000,0.000,0
2026-01-31 00:17:40,1571174,898.000,1009.000,7483.000,736.000,1141.000,-661.000,0.000,0.000,0
2026-01-31 00:17:40,1571214,-439.000,917.000,9428.000,276.000,313.000,-145.000,0.000,0.000,0
2026-01-31 00:17:40,1571254,2900.000,-41.000,7456.000,570.000,-426.000,246.000,0.000,0.000,0
2026-01-31 00:17:40,1571294,2402.000,45.000,6709.000,95.000,200.000,-132.000,0.000,0.000,0
2026-01-31 00:17:40,1571334,931.000,1200.000,8360.000,438.000,612.000,-397.000,0.000,0.000,0
2026-01-31 00:17:40,1571374,2618.000,373.000,8864.000,445.000,370.000,245.000,0.000,0.000,0
2026-01-31 00:17:40,1571414,3171.000,523.000,7755.000,1088.000,391.000,438.000,0.000,0.000,0
2026-01-31 00:17:40,1571454,511.000,1179.000,10094.000,521.000,581.000,-72.000,0.000,0.000,0
2026-01-31 00:17:40,1571494,1982.000,320.000,8756.000,186.000,170.000,316.000,0.000,0.000,0
2026-01-31 00:17:40,1571534,1870.000,751.000,8466.000,519.000,78.000,298.000,0.000,0.000,0
2026-01-31 00:17:40,1571574,1564.000,173.000,8756.000,493.000,-69.000,461.000,0.000,0.000,0
2026-01-31 00:17:40,1571614,1660.000,429.000,8044.000,181.000,378.000,-75.000,0.000,0.000,0
2026-01-31 00:17:40,1571654,786.000,973.000,7762.000,236.000,437.000,-130.000,0.000,0.000,0
2026-01-31 00:17:40,1571694,1934.000,593.000,7985.000,352.000,-10.000,489.000,0.000,0.000,0
2026-01-31 00:17:40,1571734,3703.000,366.000,7558.000,574.000,483.000,514.000,0.000,0.000,0
2026-01-31 00:17:40,1571774,-70.000,1493.000,8763.000,797.000,1575.000,-236.000,0.000,0.000,0
2026-01-31 00:17:41,1571814,736.000,555.000,8622.000,455.000,392.000,677.000,0.000,0.000,0
2026-01-31 00:17:41,1571854,2675.000,149.000,8381.000,602.000,-356.000,1364.000,0.000,0.000,0
2026-01-31 00:17:41,1571894,3145.000,306.000,8110.000,336.000,73.000,869.000,0.000,0.000,0
2026-01-31 00:17:41,1571934,256.000,1017.000,8505.000,203.000,424.000,13.000,0.000,0.000,1
2026-01-31 00:17:41,1571974,1101.000,1098.000,8466.000,194.000,-340.000,571.000,0.000,0.000,1
2026-01-31 00:17:41,1572014,1389.000,1280.000,8586.000,293.000,-322.000,660.000,0.000,0.000,0
2026-01-31 00:17:41,1572054,3822.000,-169.000,8298.000,-417.000,-112.000,951.000,0.000,0.000,0
2026-01-31 00:17:41,1572094,1602.000,944.000,7408.000,449.000,1041.000,-157.000,0.000,0.000,0
2026-01-31 00:17:41,1572134,-1031.000,1823.000,10526.000,-254.000,1268.000,-147.000,0.000,0.000,0
2026-01-31 00:17:41,1572174,1915.000,196.000,7395.000,506.000,-381.000,1351.000,0.000,0.000,0
2026-01-31 00:17:41,1572214,2926.000,1116.000,7876.000,322.000,-806.000,1073.000,0.000,0.000,0
2026-01-31 00:17:41,1572254,2913.000,358.000,7906.000,-232.000,-36.000,480.000,0.000,0.000,0
2026-01-31 00:17:41,1572294,2071.000,1048.000,7468.000,-130.000,412.000,126.000,0.000,0.000,0
2026-01-31 00:17:41,1572334,1442.000,384.000,7505.000,122.000,131.000,696.000,0.000,0.000,0
2026-01-31 00:17:41,1572374,3474.000,424.000,7427.000,416.000,209.000,1369.000,0.000,0.000,0
2026-01-31 00:17:41,1572414,1388.000,978.000,8829.000,319.000,847.000,93.000,0.000,0.000,0
2026-01-31 00:17:41,1572454,1562.000,997.000,7890.000,-163.000,784.000,413.000,0.000,0.000,0
2026-01-31 00:17:41,1572494,-305.000,1875.000,9954.000,694.000,476.000,523.000,0.000,0.000,0
2026-01-31 00:17:41,1572534,3351.000,-105.000,7465.000,-83.000,-890.000,1812.000,0.000,0.000,0
2026-01-31 00:17:41,1572574,2997.000,826.000,7520.000,181.000,-308.000,826.000,0.000,0.000,0
2026-01-31 00:17:41,1572614,753.000,822.000,8138.000,59.000,474.000,74.000,0.000,0.000,0
2026-01-31 00:17:41,1572654,2116.000,1384.000,7301.000,-16.000,-133.000,598.000,0.000,0.000,0
2026-01-31 00:17:41,1572694,1841.000,1101.000,8099.000,28.000,91.000,721.000,0.000,0.000,0
2026-01-31 00:17:41,1572734,2360.000,760.000,9985.000,-397.000,708.000,709.000,0.000,0.000,0
2026-01-31 00:17:41,1572774,-2018.000,340.000,8909.000,-167.000,1895.000,-238.000,0.000,0.000,0
2026-01-31 00:17:42,1572814,3426.000,1477.000,7816.000,655.000,106.000,1016.000,0.000,0.000,0
2026-01-31 00:17:42,1572854,-96.000,1522.000,8296.000,184.000,-342.000,546.000,0.000,0.000,0
2026-01-31 00:17:42,1572894,2689.000,524.000,7525.000,-497.000,-306.000,746.000,0.000,0.000,0
2026-01-31 00:17:42,1572934,2361.000,720.000,7977.000,-58.000,-641.000,336.000,0.000,0.000,1
2026-01-31 00:17:42,1572974,996.000,740.000,7312.000,-680.000,-385.000,371.000,0.000,0.000,1
2026-01-31 00:17:42,1573014,3535.000,-612.000,6981.000,-707.000,-966.000,987.000,0.000,0.000,0
2026-01-31 00:17:42,1573056,2255.000,1900.000,8061.000,-234.000,-277.000,514.000,0.000,0.000,0
2026-01-31 00:17:42,1573094,1906.000,176.000,8938.000,-535.000,940.000,82.000,0.000,0.000,0
2026-01-31 00:17:42,1573134,-539.000,1658.000,9091.000,-229.000,1191.000,-179.000,0.000,0.000,0
2026-01-31 00:17:42,1573174,4371.000,-2479.000,4730.000,-437.000,-708.000,1753.000,0.000,0.000,0
2026-01-31 00:17:42,1573214,-954.000,3811.000,12774.000,819.000,1277.000,-630.000,0.000,0.000,0
2026-01-31 00:17:42,1573254,2973.000,-3810.000,4517.000,-835.000,-878.000,1622.000,0.000,0.000,0
2026-01-31 00:17:42,1573294,972.000,1653.000,7734.000,50.000,-616.000,-77.000,0.000,0.000,0
2026-01-31 00:17:42,1573334,-221.000,-1421.000,8505.000,-398.000,-163.000,802.000,0.000,0.000,0
2026-01-31 00:17:42,1573374,4499.000,1709.000,8362.000,406.000,-257.000,769.000,0.000,0.000,0
2026-01-31 00:17:42,1573414,-1052.000,-1865.000,6270.000,202.000,481.000,95.000,0.000,0.000,0
2026-01-31 00:17:42,1573454,2310.000,490.000,7937.000,-272.000,57.000,820.000,0.000,0.000,0
2026-01-31 00:17:42,1573494,605.000,1567.000,9025.000,1470.000,756.000,-47.000,0.000,0.000,0
2026-01-31 00:17:42,1573534,-305.000,175.000,8355.000,99.000,823.000,480.000,0.000,0.000,0
2026-01-31 00:17:42,1573574,1227.000,1760.000,9103.000,1074.000,-369.000,656.000,0.000,0.000,0
2026-01-31 00:17:42,1573614,4423.000,28.000,7932.000,-14.000,-790.000,1117.000,0.000,0.000,0
2026-01-31 00:17:42,1573654,1561.000,1113.000,7260.000,754.000,362.000,-97.000,0.000,0.000,0
2026-01-31 00:17:42,1573694,-647.000,1351.000,10123.000,-201.000,434.000,0.000,0.000,0.000,0
2026-01-31 00:17:42,1573734,3304.000,35.000,7004.000,266.000,-643.000,1201.000,0.000,0.000,0
2026-01-31 00:17:42,1573774,1872.000,1517.000,8983.000,161.000,282.000,399.000,0.000,0.000,0
2026-01-31 00:17:43,1573814,1321.000,845.000,8774.000,-68.000,298.000,555.000,0.000,0.000,0
2026-01-31 00:17:43,1573854,2238.000,1064.000,7928.000,-131.000,-16.000,487.000,0.000,0.000,0
2026-01-31 00:17:43,1573894,-1632.000,802.000,7556.000,-58.000,112.000,311.000,0.000,0.000,0
2026-01-31 00:17:43,1573934,1852.000,554.000,7806.000,-126.000,-2148.000,1472.000,0.000,0.000,1
2026-01-31 00:17:43,1573974,10781.000,-557.000,3893.000,-365.000,-2200.000,1348.000,0.000,0.000,1
2026-01-31 00:17:43,1574014,-930.000,606.000,8917.000,-1916.000,3386.000,-1701.000,0.000,0.000,0
2026-01-31 00:17:43,1574054,-5972.000,3653.000,11168.000,-910.000,4135.000,-2679.000,0.000,0.000,0
2026-01-31 00:17:43,1574094,-4064.000,1483.000,9917.000,891.000,1858.000,-600.000,0.000,0.000,0
2026-01-31 00:17:43,1574134,6720.000,146.000,4238.000,983.000,-3455.000,2898.000,0.000,0.000,0
2026-01-31 00:17:43,1574174,5980.000,-1704.000,3374.000,-508.000,-3037.000,1737.000,0.000,0.000,0
2026-01-31 00:17:43,1574214,-1455.000,-955.000,7206.000,-1155.000,-182.000,-60.000,0.000,0.000,0
2026-01-31 00:17:43,1574254,10201.000,793.000,3456.000,1409.000,-3555.000,1743.000,0.000,0.000,0
2026-01-31 00:17:43,1574294,4790.000,27.000,3946.000,-1505.000,4605.000,-2644.000,0.000,0.000,0
2026-01-31 00:17:43,1574334,3628.000,140.000,5572.000,1235.000,-3326.000,1728.000,0.000,0.000,0
2026-01-31 00:17:43,1574374,-18.000,-1552.000,7488.000,-279.000,-1563.000,1015.000,0.000,0.000,0
2026-01-31 00:17:43,1574414,14081.000,356.000,-1476.000,2320.000,-5347.000,2114.000,0.000,0.000,0
2026-01-31 00:17:43,1574454,-6714.000,-2808.000,6290.000,-4513.000,1377.000,-1622.000,0.000,0.000,0
2026-01-31 00:17:43,1574494,5223.000,1521.000,6499.000,-427.000,-1563.000,1284.000,0.000,0.000,0
2026-01-31 00:17:43,1574534,807.000,2499.000,10009.000,663.000,946.000,-185.000,0.000,0.000,0
2026-01-31 00:17:43,1574574,8770.000,-3209.000,6133.000,1352.000,-3072.000,3356.000,0.000,0.000,0
2026-01-31 00:17:43,1574614,4489.000,35.000,3570.000,1501.000,-3177.000,1181.000,0.000,0.000,0
2026-01-31 00:17:43,1574654,-8770.000,-368.000,6039.000,-2526.000,1310.000,-1478.000,0.000,0.000,0
2026-01-31 00:17:43,1574694,-1309.000,3775.000,9144.000,1399.000,880.000,-1952.000,0.000,0.000,0
2026-01-31 00:17:43,1574734,2066.000,191.000,7799.000,1147.000,-1750.000,1245.000,0.000,0.000,0
2026-01-31 00:17:43,1574778,10703.000,678.000,3569.000,1203.000,-3190.000,1115.000,0.000,0.000,0
2026-01-31 00:17:44,1574814,-2960.000,-246.000,11937.000,-1763.000,934.000,65.000,0.000,0.000,0
2026-01-31 00:17:44,1574854,13135.000,-52.000,2433.000,1443.000,-851.000,227.000,0.000,0.000,0
2026-01-31 00:17:44,1574894,-813.000,1418.000,14274.000,157.000,4319.000,-2011.000,0.000,0.000,0
2026-01-31 00:17:44,1574934,-2892.000,-79.000,10533.000,1012.000,2605.000,-444.000,0.000,0.000,1
2026-01-31 00:17:44,1574974,3499.000,8296.000,17119.000,3687.000,1108.000,502.000,0.000,0.000,1
2026-01-31 00:17:44,1575014,2266.000,1048.000,15165.000,-279.000,4082.000,1089.000,0.000,0.000,0
2026-01-31 00:17:44,1575057,5702.000,-2159.000,2961.000,-484.000,3463.000,975.000,0.000,0.000,0
2026-01-31 00:17:44,1575094,-2250.000,1838.000,9347.000,247.000,4554.000,-1357.000,0.000,0.000,0
2026-01-31 00:17:44,1575134,-3685.000,-2822.000,7174.000,-988.000,1940.000,1637.000,0.000,0.000,0
2026-01-31 00:17:44,1575174,-1085.000,-3734.000,3652.000,-824.000,822.000,1796.000,0.000,0.000,0
2026-01-31 00:17:44,1575214,2731.000,4841.000,5358.000,1795.000,839.000,-860.000,0.000,0.000,0
2026-01-31 00:17:44,1575254,-11309.000,3195.000,15038.000,-2230.000,4993.000,-1700.000,0.000,0.000,0
2026-01-31 00:17:44,1575294,10562.000,2256.000,9821.000,832.000,-1576.000,3189.000,0.000,0.000,0
2026-01-31 00:17:44,1575334,3121.000,1380.000,2546.000,1897.000,-531.000,795.000,0.000,0.000,0
2026-01-31 00:17:44,1575374,-19822.000,488.000,17178.000,-5553.000,3912.000,-3227.000,0.000,0.000,0
2026-01-31 00:17:44,1575414,5387.000,2556.000,9395.000,314.000,-4444.000,2200.000,0.000,0.000,0
2026-01-31 00:17:44,1575454,-795.000,154.000,12655.000,-4152.000,-1458.000,1230.000,0.000,0.000,0
2026-01-31 00:17:44,1575494,4592.000,655.000,8150.000,-572.000,-2447.000,1375.000,0.000,0.000,0
2026-01-31 00:17:44,1575534,-920.000,1074.000,7246.000,-1536.000,-1009.000,-556.000,0.000,0.000,0
2026-01-31 00:17:44,1575574,1232.000,620.000,6048.000,-1989.000,-1699.000,-295.000,0.000,0.000,0
2026-01-31 00:17:44,1575614,-158.000,447.000,5290.000,-1980.000,-213.000,-1073.000,0.000,0.000,0
2026-01-31 00:17:44,1575654,2834.000,434.000,5637.000,-1611.000,-646.000,-323.000,0.000,0.000,0
2026-01-31 00:17:44,1575694,1926.000,871.000,6889.000,-1177.000,1204.000,-197.000,0.000,0.000,0
2026-01-31 00:17:44,1575734,2153.000,88.000,6240.000,-351.000,1621.000,13.000,0.000,0.000,0
2026-01-31 00:17:44,1575774,2101.000,-473.000,6418.000,-1623.000,440.000,-416.000,0.000,0.000,0
2026-01-31 00:17:45,1575814,-2969.000,46.000,11208.000,-1901.000,956.000,-2313.000,0.000,0.000,0
2026-01-31 00:17:45,1575854,1882.000,348.000,8972.000,-976.000,-967.000,-778.000,0.000,0.000,0
2026-01-31 00:17:45,1575894,623.000,274.000,10597.000,-1077.000,-209.000,-542.000,0.000,0.000,0
2026-01-31 00:17:45,1575934,2403.000,-426.000,8613.000,-166.000,-490.000,-256.000,0.000,0.000,1
2026-01-31 00:17:45,1575974,-1180.000,700.000,9356.000,-481.000,843.000,-1718.000,0.000,0.000,1
2026-01-31 00:17:45,1576014,324.000,389.000,7453.000,-286.000,-478.000,-1180.000,0.000,0.000,0
2026-01-31 00:17:45,1576054,1016.000,326.000,8001.000,-684.000,-1212.000,-744.000,0.000,0.000,0
2026-01-31 00:17:45,1576094,1849.000,468.000,9855.000,276.000,-544.000,-790.000,0.000,0.000,0
2026-01-31 00:17:45,1576134,4377.000,-272.000,6231.000,-166.000,-591.000,-222.000,0.000,0.000,0
2026-01-31 00:17:45,1576174,-3536.000,-289.000,9025.000,-288.000,2079.000,-2608.000,0.000,0.000,0
2026-01-31 00:17:45,1576214,-618.000,-978.000,8507.000,-1766.000,298.000,-1706.000,0.000,0.000,0
2026-01-31 00:17:45,1576254,3715.000,-1191.000,7456.000,-676.000,-798.000,-434.000,0.000,0.000,0
2026-01-31 00:17:45,1576294,1076.000,-860.000,7836.000,146.000,840.000,-1302.000,0.000,0.000,0
2026-01-31 00:17:45,1576334,661.000,-19.000,8980.000,436.000,689.000,-1212.000,0.000,0.000,0
2026-01-31 00:17:45,1576374,2845.000,-440.000,9103.000,700.000,-26.000,-492.000,0.000,0.000,0
2026-01-31 00:17:45,1576414,885.000,-490.000,7430.000,576.000,96.000,-1220.000,0.000,0.000,0
2026-01-31 00:17:45,1576454,700.000,445.000,9949.000,451.000,422.000,-1405.000,0.000,0.000,0
2026-01-31 00:17:45,1576494,757.000,428.000,9351.000,591.000,179.000,-1201.000,0.000,0.000,0
2026-01-31 00:17:45,1576534,2543.000,-362.000,7515.000,204.000,-767.000,-399.000,0.000,0.000,0
2026-01-31 00:17:45,1576574,3885.000,12.000,5890.000,850.000,-880.000,-845.000,0.000,0.000,0
2026-01-31 00:17:45,1576614,-3224.000,-364.000,9736.000,-533.000,2154.000,-2114.000,0.000,0.000,0
2026-01-31 00:17:45,1576654,7670.000,52.000,6439.000,1636.000,-685.000,43.000,0.000,0.000,0
2026-01-31 00:17:45,1576694,-1772.000,-35.000,8875.000,140.000,2976.000,-1506.000,0.000,0.000,0
2026-01-31 00:17:45,1576734,-2506.000,292.000,8990.000,669.000,991.000,-834.000,0.000,0.000,0
2026-01-31 00:17:45,1576776,3346.000,24.000,8779.000,1504.000,-1581.000,616.000,0.000,0.000,0
2026-01-31 00:17:46,1576816,2165.000,65.000,8595.000,524.000,-379.000,-397.000,0.000,0.000,0
2026-01-31 00:17:46,1576854,410.000,43.000,8853.000,305.000,153.000,-959.000,0.000,0.000,0
2026-01-31 00:17:46,1576894,2140.000,1078.000,8791.000,785.000,-923.000,-609.000,0.000,0.000,0
2026-01-31 00:17:46,1576934,1611.000,-46.000,8099.000,-195.000,-540.000,-461.000,0.000,0.000,1
2026-01-31 00:17:46,1576974,1231.000,688.000,8270.000,233.000,515.000,-540.000,0.000,0.000,1
2026-01-31 00:17:46,1577014,-607.000,-79.000,8815.000,-160.000,764.000,-470.000,0.000,0.000,0
2026-01-31 00:17:46,1577058,2071.000,261.000,7934.000,677.000,-586.000,178.000,0.000,0.000,0
2026-01-31 00:17:46,1577094,2359.000,-253.000,7421.000,184.000,-493.000,-155.000,0.000,0.000,0
2026-01-31 00:17:46,1577134,770.000,526.000,7571.000,193.000,588.000,-991.000,0.000,0.000,0
2026-01-31 00:17:46,1577174,1764.000,601.000,7379.000,234.000,553.000,-805.000,0.000,0.000,0
2026-01-31 00:17:46,1577214,581.000,1552.000,9350.000,281.000,1289.000,-919.000,0.000,0.000,0
2026-01-31 00:17:46,1577254,765.000,508.000,8113.000,-74.000,838.000,-104.000,0.000,0.000,0
2026-01-31 00:17:46,1577294,641.000,1310.000,9672.000,292.000,712.000,-71.000,0.000,0.000,0
2026-01-31 00:17:46,1577334,823.000,562.000,8407.000,-198.000,682.000,-465.000,0.000,0.000,0
2026-01-31 00:17:46,1577374,969.000,767.000,8457.000,-160.000,441.000,-551.000,0.000,0.000,0
2026-01-31 00:17:46,1577414,648.000,1063.000,9010.000,-503.000,345.000,-672.000,0.000,0.000,0
2026-01-31 00:17:46,1577454,983.000,527.000,7470.000,-426.000,158.000,-778.000,0.000,0.000,0
2026-01-31 00:17:46,1577494,784.000,1068.000,7339.000,-200.000,105.000,-1031.000,0.000,0.000,0
2026-01-31 00:17:46,1577534,502.000,1767.000,9013.000,-194.000,143.000,-1242.000,0.000,0.000,0
2026-01-31 00:17:46,1577574,2198.000,701.000,7518.000,-748.000,-534.000,-465.000,0.000,0.000,0
2026-01-31 00:17:46,1577614,628.000,740.000,7871.000,-461.000,168.000,-1014.000,0.000,0.000,0
2026-01-31 00:17:46,1577654,2229.000,595.000,8797.000,-681.000,306.000,-830.000,0.000,0.000,0
2026-01-31 00:17:46,1577694,-1411.000,1315.000,7579.000,-628.000,1184.000,-1618.000,0.000,0.000,0
2026-01-31 00:17:46,1577734,2748.000,322.000,9523.000,-90.000,-1741.000,667.000,0.000,0.000,0
2026-01-31 00:17:46,1577774,2762.000,429.000,8788.000,61.000,-849.000,236.000,0.000,0.000,0
2026-01-31 00:17:47,1577814,781.000,100.000,7685.000,-46.000,-214.000,-611.000,0.000,0.000,0
2026-01-31 00:17:47,1577854,342.000,491.000,8713.000,154.000,-876.000,-741.000,0.000,0.000,0
2026-01-31 00:17:47,1577894,2020.000,841.000,7638.000,265.000,-1628.000,-421.000,0.000,0.000,0
2026-01-31 00:17:47,1577934,1761.000,515.000,7670.000,-199.000,-937.000,-585.000,0.000,0.000,1
2026-01-31 00:17:47,1577974,941.000,299.000,7208.000,-171.000,-248.000,-904.000,0.000,0.000,1
2026-01-31 00:17:47,1578014,2563.000,727.000,8355.000,104.000,-340.000,-666.000,0.000,0.000,0
2026-01-31 00:17:47,1578054,4231.000,433.000,5518.000,446.000,-359.000,-735.000,0.000,0.000,0
2026-01-31 00:17:47,1578094,890.000,439.000,9461.000,-339.000,2319.000,-847.000,0.000,0.000,0
2026-01-31 00:17:47,1578134,3127.000,356.000,8193.000,558.000,435.000,-758.000,0.000,0.000,0
2026-01-31 00:17:47,1578174,-1216.000,789.000,9204.000,-65.000,1472.000,-1179.000,0.000,0.000,0
2026-01-31 00:17:47,1578214,1832.000,172.000,8450.000,475.000,-190.000,108.000,0.000,0.000,0
2026-01-31 00:17:47,1578254,-1.000,229.000,9093.000,19.000,541.000,-523.000,0.000,0.000,0
2026-01-31 00:17:47,1578294,2363.000,453.000,8020.000,458.000,-118.000,-449.000,0.000,0.000,0
2026-01-31 00:17:47,1578334,713.000,1431.000,7934.000,588.000,350.000,-1129.000,0.000,0.000,0
2026-01-31 00:17:47,1578374,256.000,786.000,7860.000,192.000,-178.000,-733.000,0.000,0.000,0
2026-01-31 00:17:47,1578414,1956.000,839.000,8293.000,201.000,-955.000,-263.000,0.000,0.000,0
2026-01-31 00:17:47,1578454,1331.000,567.000,8384.000,286.000,-150.000,-599.000,0.000,0.000,0
2026-01-31 00:17:47,1578494,-210.000,676.000,9071.000,-105.000,295.000,-642.000,0.000,0.000,0
2026-01-31 00:17:47,1578534,3362.000,303.000,7859.000,112.000,-695.000,265.000,0.000,0.000,0
2026-01-31 00:17:47,1578574,-184.000,688.000,8543.000,103.000,643.000,-428.000,0.000,0.000,0
2026-01-31 00:17:47,1578614,692.000,470.000,8840.000,143.000,-138.000,-136.000,0.000,0.000,0
2026-01-31 00:17:47,1578654,2854.000,609.000,8060.000,347.000,-656.000,48.000,0.000,0.000,0
2026-01-31 00:17:47,1578694,637.000,460.000,7607.000,161.000,25.000,-514.000,0.000,0.000,0
2026-01-31 00:17:47,1578734,1335.000,919.000,7931.000,495.000,-749.000,-308.000,0.000,0.000,0
2026-01-31 00:17:47,1578774,1692.000,281.000,7824.000,179.000,-563.000,-122.000,0.000,0.000,0
2026-01-31 00:17:48,1578814,1887.000,308.000,7880.000,563.000,178.000,-478.000,0.000,0.000,0
2026-01-31 00:17:48,1578854,852.000,783.000,8651.000,1019.000,708.000,-520.000,0.000,0.000,0
2026-01-31 00:17:48,1578894,1179.000,1283.000,8638.000,517.000,-58.000,219.000,0.000,0.000,0
2026-01-31 00:17:48,1578934,1977.000,451.000,8146.000,361.000,-209.000,252.000,0.000,0.000,1
2026-01-31 00:17:48,1578974,1375.000,919.000,8537.000,42.000,179.000,-173.000,0.000,0.000,1
2026-01-31 00:17:48,1579014,454.000,933.000,8365.000,93.000,149.000,-315.000,0.000,0.000,0
2026-01-31 00:17:48,1579056,2772.000,736.000,7753.000,7.000,-676.000,295.000,0.000,0.000,0
2026-01-31 00:17:48,1579094,756.000,767.000,7674.000,291.000,310.000,-308.000,0.000,0.000,0
2026-01-31 00:17:48,1579134,-1080.000,1556.000,9574.000,242.000,697.000,-722.000,0.000,0.000,0
2026-01-31 00:17:48,1579174,4366.000,818.000,7272.000,-17.000,-858.000,724.000,0.000,0.000,0
2026-01-31 00:17:48,1579214,249.000,528.000,8223.000,223.000,556.000,-388.000,0.000,0.000,0
2026-01-31 00:17:48,1579254,787.000,1021.000,8552.000,265.000,524.000,-98.000,0.000,0.000,0
2026-01-31 00:17:48,1579294,322.000,1052.000,8211.000,-369.000,-79.000,-207.000,0.000,0.000,0
2026-01-31 00:17:48,1579334,1199.000,889.000,8401.000,-314.000,-271.000,-24.000,0.000,0.000,0
2026-01-31 00:17:48,1579374,2288.000,1050.000,7665.000,270.000,-227.000,29.000,0.000,0.000,0
2026-01-31 00:17:48,1579414,313.000,1533.000,7997.000,-125.000,170.000,-426.000,0.000,0.000,0
2026-01-31 00:17:48,1579454,2062.000,686.000,9213.000,-96.000,187.000,-20.000,0.000,0.000,0
2026-01-31 00:17:48,1579494,1619.000,686.000,7283.000,-9.000,457.000,-86.000,0.000,0.000,0
2026-01-31 00:17:48,1579534,-2325.000,1667.000,9041.000,4.000,573.000,-845.000,0.000,0.000,0
2026-01-31 00:17:48,1579574,2814.000,429.000,7902.000,-24.000,-1419.000,923.000,0.000,0.000,0
2026-01-31 00:17:48,1579614,1294.000,376.000,7259.000,23.000,-432.000,82.000,0.000,0.000,0
2026-01-31 00:17:48,1579654,-464.000,1664.000,8198.000,277.000,403.000,-914.000,0.000,0.000,0
2026-01-31 00:17:48,1579694,2441.000,530.000,8322.000,-153.000,-144.000,171.000,0.000,0.000,0
2026-01-31 00:17:48,1579734,626.000,1942.000,8088.000,383.000,167.000,-189.000,0.000,0.000,0
2026-01-31 00:17:48,1579774,4.000,1330.000,9124.000,-50.000,61.000,-106.000,0.000,0.000,0
2026-01-31 00:17:49,1579814,2777.000,371.000,8668.000,-151.000,7.000,285.000,0.000,0.000,0
2026-01-31 00:17:49,1579854,-498.000,854.000,8420.000,114.000,729.000,-551.000,0.000,0.000,0
2026-01-31 00:17:49,1579894,864.000,1276.000,8220.000,-63.000,-625.000,-98.000,0.000,0.000,0
2026-01-31 00:17:49,1579934,1109.000,1029.000,7830.000,83.000,-504.000,-334.000,0.000,0.000,1
2026-01-31 00:17:49,1579974,1405.000,875.000,7740.000,-366.000,-266.000,-226.000,0.000,0.000,1
2026-01-31 00:17:49,1580014,1169.000,1164.000,7966.000,101.000,513.000,-530.000,0.000,0.000,0
2026-01-31 00:17:49,1580054,111.000,1081.000,8160.000,80.000,503.000,-487.000,0.000,0.000,0
2026-01-31 00:17:49,1580094,1250.000,1105.000,8547.000,-80.000,140.000,-34.000,0.000,0.000,0
2026-01-31 00:17:49,1580134,1633.000,709.000,8655.000,216.000,24.000,100.000,0.000,0.000,0
2026-01-31 00:17:49,1580174,1507.000,821.000,8509.000,7.000,132.000,-134.000,0.000,0.000,0
2026-01-31 00:17:49,1580214,-744.000,1424.000,9432.000,47.000,340.000,-828.000,0.000,0.000,0
2026-01-31 00:17:49,1580254,2035.000,752.000,7092.000,-328.000,-1118.000,250.000,0.000,0.000,0
2026-01-31 00:17:49,1580294,1149.000,1407.000,8420.000,124.000,-727.000,-355.000,0.000,0.000,0
2026-01-31 00:17:49,1580334,3860.000,14.000,8147.000,-394.000,149.000,-203.000,0.000,0.000,0
2026-01-31 00:17:49,1580374,-953.000,2095.000,10677.000,393.000,1376.000,-1169.000,0.000,0.000,0
2026-01-31 00:17:49,1580414,3722.000,809.000,7474.000,273.000,-2396.000,1712.000,0.000,0.000,0
2026-01-31 00:17:49,1580454,3455.000,159.000,7927.000,-78.000,-328.000,505.000,0.000,0.000,0
2026-01-31 00:17:49,1580494,1314.000,1615.000,8330.000,7.000,1406.000,-889.000,0.000,0.000,0
2026-01-31 00:17:49,1580534,2766.000,1724.000,8390.000,59.000,808.000,-853.000,0.000,0.000,0
2026-01-31 00:17:49,1580574,591.000,879.000,7623.000,-277.000,484.000,-509.000,0.000,0.000,0
2026-01-31 00:17:49,1580614,61.000,750.000,7742.000,244.000,-165.000,74.000,0.000,0.000,0
2026-01-31 00:17:49,1580654,-113.000,944.000,9920.000,211.000,542.000,-294.000,0.000,0.000,0
2026-01-31 00:17:49,1580694,3009.000,506.000,8010.000,91.000,160.000,117.000,0.000,0.000,0
2026-01-31 00:17:49,1580734,1729.000,894.000,6892.000,741.000,-176.000,100.000,0.000,0.000,0
2026-01-31 00:17:49,1580774,-735.000,1867.000,9112.000,998.000,-582.000,-95.000,0.000,0.000,0
2026-01-31 00:17:50,1580816,2955.000,732.000,7940.000,-280.000,-1006.000,650.000,0.000,0.000,0
2026-01-31 00:17:50,1580856,823.000,660.000,7867.000,608.000,155.000,-180.000,0.000,0.000,0
2026-01-31 00:17:50,1580894,961.000,1844.000,8783.000,518.000,-283.000,357.000,0.000,0.000,0
2026-01-31 00:17:50,1580934,3467.000,992.000,7800.000,821.000,-909.000,974.000,0.000,0.000,1
2026-01-31 00:17:50,1580974,-2051.000,1086.000,8556.000,220.000,528.000,-165.000,0.000,0.000,1
2026-01-31 00:17:50,1581014,1094.000,559.000,9001.000,-218.000,-620.000,536.000,0.000,0.000,0
2026-01-31 00:17:50,1581057,4593.000,626.000,6746.000,812.000,-1057.000,728.000,0.000,0.000,0
2026-01-31 00:17:50,1581094,-1991.000,1667.000,8768.000,207.000,889.000,-404.000,0.000,0.000,0
2026-01-31 00:17:50,1581134,1638.000,447.000,7919.000,52.000,-1109.000,799.000,0.000,0.000,0
2026-01-31 00:17:50,1581174,2667.000,1104.000,7824.000,131.000,280.000,204.000,0.000,0.000,0
2026-01-31 00:17:50,1581214,34.000,1240.000,9082.000,466.000,1290.000,-209.000,0.000,0.000,0
2026-01-31 00:17:50,1581254,1478.000,1373.000,8849.000,934.000,482.000,390.000,0.000,0.000,0
2026-01-31 00:17:50,1581294,-123.000,763.000,8293.000,87.000,208.000,449.000,0.000,0.000,0
2026-01-31 00:17:50,1581334,2119.000,1188.000,8673.000,387.000,-430.000,518.000,0.000,0.000,0
2026-01-31 00:17:50,1581374,2429.000,822.000,8503.000,784.000,110.000,-56.000,0.000,0.000,0
2026-01-31 00:17:50,1581414,372.000,1297.000,7292.000,550.000,804.000,-348.000,0.000,0.000,0
2026-01-31 00:17:50,1581454,188.000,2066.000,8234.000,461.000,201.000,-106.000,0.000,0.000,0
2026-01-31 00:17:50,1581494,757.000,1556.000,7909.000,-35.000,-383.000,646.000,0.000,0.000,0
2026-01-31 00:17:50,1581534,3233.000,1337.000,8424.000,-46.000,-608.000,974.000,0.000,0.000,0
2026-01-31 00:17:50,1581574,-934.000,1328.000,8222.000,1096.000,1713.000,-373.000,0.000,0.000,0
2026-01-31 00:17:50,1581614,-1867.000,2033.000,10099.000,7.000,400.000,353.000,0.000,0.000,0
2026-01-31 00:17:50,1581654,3283.000,414.000,7748.000,59.000,-1327.000,1685.000,0.000,0.000,0
2026-01-31 00:17:50,1581694,344.000,1306.000,8842.000,-97.000,238.000,516.000,0.000,0.000,0
2026-01-31 00:17:50,1581734,1279.000,462.000,7864.000,-529.000,-4.000,546.000,0.000,0.000,0
2026-01-31 00:17:50,1581774,2323.000,1422.000,7600.000,41.000,-159.000,298.000,0.000,0.000,0
2026-01-31 00:17:51,1581814,-700.000,1603.000,8652.000,-313.000,453.000,252.000,0.000,0.000,0
2026-01-31 00:17:51,1581854,1955.000,1549.000,8861.000,-1.000,-254.000,739.000,0.000,0.000,0
2026-01-31 00:17:51,1581894,1395.000,1161.000,7427.000,299.000,137.000,538.000,0.000,0.000,0
2026-01-31 00:17:51,1581934,2272.000,1668.000,8308.000,-404.000,-8.000,759.000,0.000,0.000,1
2026-01-31 00:17:51,1581974,89.000,1496.000,8450.000,43.000,404.000,249.000,0.000,0.000,1
2026-01-31 00:17:51,1582014,2581.000,965.000,7737.000,-892.000,-341.000,800.000,0.000,0.000,0
2026-01-31 00:17:51,1582054,152.000,1672.000,8049.000,-317.000,341.000,-57.000,0.000,0.000,0
2026-01-31 00:17:51,1582094,-324.000,1326.000,8565.000,-748.000,-201.000,165.000,0.000,0.000,0
2026-01-31 00:17:51,1582134,3611.000,906.000,7411.000,-816.000,-1365.000,1015.000,0.000,0.000,0
2026-01-31 00:17:51,1582174,1487.000,1181.000,8195.000,-214.000,132.000,-3.000,0.000,0.000,0
2026-01-31 00:17:51,1582214,-1678.000,1501.000,8777.000,-317.000,816.000,-539.000,0.000,0.000,0
2026-01-31 00:17:51,1582254,1294.000,1280.000,7604.000,-560.000,-1238.000,929.000,0.000,0.000,0
2026-01-31 00:17:51,1582294,2763.000,1499.000,8236.000,-555.000,-247.000,445.000,0.000,0.000,0
2026-01-31 00:17:51,1582334,1244.000,1821.000,9250.000,-117.000,856.000,-443.000,0.000,0.000,0
2026-01-31 00:17:51,1582374,515.000,802.000,7457.000,-673.000,230.000,-214.000,0.000,0.000,0
2026-01-31 00:17:51,1582414,2378.000,1398.000,9089.000,-427.000,-568.000,196.000,0.000,0.000,0
2026-01-31 00:17:51,1582454,1258.000,496.000,6994.000,-173.000,413.000,-442.000,0.000,0.000,0
2026-01-31 00:17:51,1582494,-1134.000,2249.000,9693.000,-319.000,755.000,-951.000,0.000,0.000,0
2026-01-31 00:17:51,1582534,4941.000,483.000,6958.000,-551.000,-946.000,670.000,0.000,0.000,0
2026-01-31 00:17:51,1582574,-2110.000,1328.000,7853.000,200.000,840.000,-1174.000,0.000,0.000,0
2026-01-31 00:17:51,1582614,372.000,894.000,8928.000,-1137.000,-894.000,-51.000,0.000,0.000,0
2026-01-31 00:17:51,1582654,3138.000,1521.000,7638.000,-94.000,-1071.000,-165.000,0.000,0.000,0
2026-01-31 00:17:51,1582694,2225.000,722.000,7725.000,-527.000,-455.000,-49.000,0.000,0.000,0
2026-01-31 00:17:51,1582734,1418.000,1475.000,9577.000,173.000,321.000,-498.000,0.000,0.000,0
2026-01-31 00:17:51,1582774,1683.000,594.000,7825.000,-377.000,65.000,-122.000,0.000,0.000,0
2026-01-31 00:17:52,1582818,1482.000,1631.000,9508.000,-7.000,-53.000,-292.000,0.000,0.000,0
2026-01-31 00:17:52,1582854,1519.000,265.000,8220.000,81.000,-333.000,-50.000,0.000,0.000,0
2026-01-31 00:17:52,1582894,2228.000,488.000,7729.000,-426.000,-780.000,33.000,0.000,0.000,0
2026-01-31 00:17:52,1582934,2200.000,1254.000,7260.000,244.000,-773.000,-433.000,0.000,0.000,1
2026-01-31 00:17:52,1582974,2559.000,573.000,6846.000,-405.000,-757.000,-307.000,0.000,0.000,1
2026-01-31 00:17:52,1583014,3554.000,860.000,8209.000,-107.000,-59.000,-411.000,0.000,0.000,0
2026-01-31 00:17:52,1583056,297.000,915.000,7339.000,150.000,1219.000,-831.000,0.000,0.000,0
2026-01-31 00:17:52,1583094,99.000,1442.000,10733.000,233.000,449.000,-184.000,0.000,0.000,0
2026-01-31 00:17:52,1583134,3027.000,-243.000,7978.000,310.000,-270.000,775.000,0.000,0.000,0
2026-01-31 00:17:52,1583174,2585.000,971.000,9177.000,265.000,-38.000,61.000,0.000,0.000,0
2026-01-31 00:17:52,1583214,2250.000,806.000,8623.000,289.000,-95.000,-351.000,0.000,0.000,0
2026-01-31 00:17:52,1583254,840.000,944.000,8252.000,39.000,19.000,-397.000,0.000,0.000,0
2026-01-31 00:17:52,1583294,1829.000,825.000,7342.000,440.000,-591.000,39.000,0.000,0.000,0
2026-01-31 00:17:52,1583334,2854.000,1216.000,8443.000,257.000,-156.000,201.000,0.000,0.000,0
2026-01-31 00:17:52,1583374,2620.000,96.000,6377.000,488.000,472.000,57.000,0.000,0.000,0
2026-01-31 00:17:52,1583414,-345.000,2329.000,8186.000,873.000,898.000,-464.000,0.000,0.000,0
2026-01-31 00:17:52,1583454,1311.000,1006.000,7503.000,1077.000,916.000,-273.000,0.000,0.000,0
2026-01-31 00:17:52,1583494,-570.000,830.000,8641.000,60.000,532.000,-157.000,0.000,0.000,0
2026-01-31 00:17:52,1583534,3433.000,1485.000,8508.000,491.000,-1181.000,854.000,0.000,0.000,0
2026-01-31 00:17:52,1583574,2939.000,768.000,8064.000,131.000,-499.000,551.000,0.000,0.000,0
2026-01-31 00:17:52,1583614,3901.000,93.000,7776.000,-204.000,-101.000,187.000,0.000,0.000,0
2026-01-31 00:17:52,1583654,1226.000,762.000,7405.000,428.000,903.000,-831.000,0.000,0.000,0
2026-01-31 00:17:52,1583694,-2544.000,1958.000,9449.000,52.000,641.000,-726.000,0.000,0.000,0
2026-01-31 00:17:52,1583734,5057.000,518.000,7545.000,-367.000,-1334.000,1409.000,0.000,0.000,0
2026-01-31 00:17:52,1583774,-74.000,815.000,8534.000,992.000,1058.000,-271.000,0.000,0.000,0
2026-01-31 00:17:53,1583814,4487.000,-565.000,6609.000,-465.000,-461.000,609.000,0.000,0.000,0
2026-01-31 00:17:53,1583854,79.000,1438.000,8107.000,83.000,651.000,-455.000,0.000,0.000,0
2026-01-31 00:17:53,1583894,-1194.000,987.000,8331.000,-465.000,35.000,259.000,0.000,0.000,0
2026-01-31 00:17:53,1583934,2981.000,632.000,7100.000,17.000,-1113.000,1106.000,0.000,0.000,1
2026-01-31 00:17:53,1583974,2007.000,1018.000,8194.000,-137.000,-132.000,458.000,0.000,0.000,1
2026-01-31 00:17:53,1584014,3333.000,379.000,8421.000,197.000,290.000,79.000,0.000,0.000,0
2026-01-31 00:17:53,1584054,2228.000,492.000,6858.000,-66.000,-113.000,-334.000,0.000,0.000,0
2026-01-31 00:17:53,1584094,-1772.000,2815.000,11117.000,-416.000,-22.000,-944.000,0.000,0.000,0
2026-01-31 00:17:53,1584134,6209.000,184.000,7051.000,-1089.000,-1538.000,972.000,0.000,0.000,0
2026-01-31 00:17:53,1584174,1592.000,2643.000,9783.000,471.000,707.000,-1024.000,0.000,0.000,0
2026-01-31 00:17:53,1584214,1800.000,-17.000,7234.000,-414.000,755.000,-176.000,0.000,0.000,0
2026-01-31 00:17:53,1584254,1496.000,1182.000,8178.000,-774.000,175.000,49.000,0.000,0.000,0
2026-01-31 00:17:53,1584294,1722.000,723.000,7930.000,-564.000,-92.000,-235.000,0.000,0.000,0
2026-01-31 00:17:53,1584334,1486.000,183.000,6660.000,-973.000,58.000,-557.000,0.000,0.000,0
2026-01-31 00:17:53,1584374,288.000,2385.000,8820.000,-550.000,674.000,-819.000,0.000,0.000,0
2026-01-31 00:17:53,1584414,2608.000,548.000,7409.000,-1159.000,169.000,426.000,0.000,0.000,0
2026-01-31 00:17:53,1584454,-288.000,1625.000,9499.000,-132.000,640.000,236.000,0.000,0.000,0
2026-01-31 00:17:53,1584494,-824.000,976.000,8940.000,-257.000,-57.000,617.000,0.000,0.000,0
2026-01-31 00:17:53,1584534,876.000,1466.000,9540.000,-485.000,-385.000,670.000,0.000,0.000,0
2026-01-31 00:17:53,1584574,688.000,1095.000,9456.000,-221.000,-1029.000,853.000,0.000,0.000,0
2026-01-31 00:17:53,1584614,1019.000,300.000,7340.000,-482.000,-1277.000,169.000,0.000,0.000,0
2026-01-31 00:17:53,1584654,945.000,1462.000,7898.000,-135.000,-1744.000,-133.000,0.000,0.000,0
2026-01-31 00:17:53,1584694,4055.000,-89.000,7059.000,-825.000,-1710.000,179.000,0.000,0.000,0
2026-01-31 00:17:53,1584734,2890.000,965.000,7183.000,-399.000,-182.000,-772.000,0.000,0.000,0
2026-01-31 00:17:53,1584774,1793.000,622.000,7647.000,-116.000,406.000,-799.000,0.000,0.000,0
2026-01-31 00:17:54,1584816,1829.000,854.000,8712.000,-239.000,558.000,-675.000,0.000,0.000,0
2026-01-31 00:17:54,1584856,4612.000,602.000,7615.000,-484.000,212.000,-405.000,0.000,0.000,0
2026-01-31 00:17:54,1584894,1373.000,1169.000,7853.000,-119.000,1374.000,-1363.000,0.000,0.000,0
2026-01-31 00:17:54,1584934,1204.000,467.000,8246.000,211.000,1188.000,-1033.000,0.000,0.000,1
2026-01-31 00:17:54,1584974,2700.000,963.000,8699.000,591.000,985.000,-370.000,0.000,0.000,1
2026-01-31 00:17:54,1585014,56.000,696.000,8359.000,624.000,1210.000,-1130.000,0.000,0.000,0
2026-01-31 00:17:54,1585056,-233.000,701.000,8990.000,286.000,396.000,-859.000,0.000,0.000,0
2026-01-31 00:17:54,1585094,3342.000,382.000,7815.000,103.000,-513.000,-83.000,0.000,0.000,0
2026-01-31 00:17:54,1585134,1517.000,522.000,8109.000,406.000,196.000,-627.000,0.000,0.000,0
2026-01-31 00:17:54,1585174,1011.000,985.000,8796.000,134.000,448.000,-665.000,0.000,0.000,0
2026-01-31 00:17:54,1585214,2661.000,719.000,7860.000,886.000,-176.000,-140.000,0.000,0.000,0
2026-01-31 00:17:54,1585254,440.000,776.000,8541.000,584.000,-11.000,-37.000,0.000,0.000,0
2026-01-31 00:17:54,1585294,1867.000,705.000,8459.000,735.000,-460.000,208.000,0.000,0.000,0
2026-01-31 00:17:54,1585334,1202.000,461.000,7489.000,905.000,-363.000,-59.000,0.000,0.000,0
2026-01-31 00:17:54,1585374,1064.000,796.000,8491.000,543.000,-176.000,-167.000,0.000,0.000,0
2026-01-31 00:17:54,1585414,3476.000,834.000,7509.000,760.000,-378.000,273.000,0.000,0.000,0
2026-01-31 00:17:54,1585454,83.000,1124.000,8591.000,589.000,593.000,-191.000,0.000,0.000,0
2026-01-31 00:17:54,1585494,554.000,264.000,8330.000,345.000,-103.000,471.000,0.000,0.000,0
2026-01-31 00:17:54,1585534,2629.000,935.000,8126.000,541.000,-183.000,585.000,0.000,0.000,0
2026-01-31 00:17:54,1585574,-238.000,1473.000,8865.000,340.000,897.000,-265.000,0.000,0.000,0
2026-01-31 00:17:54,1585614,1655.000,381.000,8209.000,109.000,-40.000,420.000,0.000,0.000,0
2026-01-31 00:17:54,1585654,1413.000,1205.000,9199.000,759.000,257.000,317.000,0.000,0.000,0
2026-01-31 00:17:54,1585694,2236.000,326.000,7957.000,-47.000,112.000,386.000,0.000,0.000,0
2026-01-31 00:17:54,1585734,-368.000,1684.000,8319.000,337.000,327.000,-253.000,0.000,0.000,0
2026-01-31 00:17:54,1585774,3318.000,896.000,7651.000,223.000,-390.000,500.000,0.000,0.000,0
2026-01-31 00:17:55,1585814,1268.000,789.000,7764.000,135.000,577.000,55.000,0.000,0.000,0
2026-01-31 00:17:55,1585854,492.000,1162.000,8365.000,533.000,463.000,-23.000,0.000,0.000,0
2026-01-31 00:17:55,1585894,1677.000,828.000,7822.000,342.000,-155.000,501.000,0.000,0.000,0
2026-01-31 00:17:55,1585934,649.000,1695.000,8883.000,-21.000,349.000,254.000,0.000,0.000,1
2026-01-31 00:17:55,1585974,3405.000,531.000,7784.000,77.000,-117.000,387.000,0.000,0.000,1
2026-01-31 00:17:55,1586014,984.000,1813.000,8298.000,-39.000,602.000,-77.000,0.000,0.000,0
2026-01-31 00:17:55,1586054,-325.000,1724.000,8753.000,324.000,563.000,-16.000,0.000,0.000,0
2026-01-31 00:17:55,1586094,-299.000,1220.000,8321.000,-316.000,7.000,507.000,0.000,0.000,0
2026-01-31 00:17:55,1586134,1484.000,334.000,7916.000,-68.000,-89.000,521.000,0.000,0.000,0
2026-01-31 00:17:55,1586174,850.000,1370.000,8123.000,-67.000,116.000,97.000,0.000,0.000,0
2026-01-31 00:17:55,1586214,1443.000,1400.000,7915.000,-16.000,-118.000,191.000,0.000,0.000,0
2026-01-31 00:17:55,1586254,946.000,1284.000,8380.000,-139.000,151.000,192.000,0.000,0.000,0
2026-01-31 00:17:55,1586294,1438.000,1058.000,8306.000,-81.000,155.000,365.000,0.000,0.000,0
2026-01-31 00:17:55,1586334,1927.000,1456.000,7993.000,-23.000,309.000,240.000,0.000,0.000,0
2026-01-31 00:17:55,1586374,248.000,1230.000,8364.000,88.000,460.000,55.000,0.000,0.000,0
2026-01-31 00:17:55,1586414,1021.000,1148.000,9036.000,-157.000,-242.000,554.000,0.000,0.000,0
2026-01-31 00:17:55,1586454,2877.000,815.000,8149.000,-331.000,-152.000,573.000,0.000,0.000,0
2026-01-31 00:17:55,1586494,-841.000,1812.000,8483.000,-99.000,521.000,-476.000,0.000,0.000,0
2026-01-31 00:17:55,1586534,2359.000,1056.000,8009.000,-491.000,-492.000,398.000,0.000,0.000,0
2026-01-31 00:17:55,1586574,1033.000,1121.000,7927.000,-194.000,-29.000,101.000,0.000,0.000,0
2026-01-31 00:17:55,1586614,994.000,1001.000,7994.000,-456.000,-199.000,298.000,0.000,0.000,0
2026-01-31 00:17:55,1586654,2456.000,1364.000,8508.000,-192.000,-223.000,286.000,0.000,0.000,0
2026-01-31 00:17:55,1586694,1810.000,645.000,8349.000,-531.000,215.000,112.000,0.000,0.000,0
2026-01-31 00:17:55,1586734,509.000,980.000,7589.000,-311.000,270.000,-161.000,0.000,0.000,0
2026-01-31 00:17:55,1586774,-82.000,1885.000,9354.000,-192.000,-73.000,-238.000,0.000,0.000,0
2026-01-31 00:17:56,1586814,3481.000,699.000,7866.000,-945.000,-696.000,414.000,0.000,0.000,0
2026-01-31 00:17:56,1586854,2264.000,945.000,7788.000,-614.000,5.000,-168.000,0.000,0.000,0
2026-01-31 00:17:56,1586894,1268.000,1441.000,8004.000,-435.000,-437.000,-300.000,0.000,0.000,0
2026-01-31 00:17:56,1586934,1978.000,1002.000,7401.000,-697.000,-538.000,-62.000,0.000,0.000,1
2026-01-31 00:17:56,1586974,2394.000,848.000,8061.000,-657.000,-231.000,-64.000,0.000,0.000,1
2026-01-31 00:17:56,1587014,2152.000,1097.000,7788.000,-374.000,277.000,-411.000,0.000,0.000,0
2026-01-31 00:17:56,1587057,-820.000,1332.000,9500.000,-423.000,895.000,-745.000,0.000,0.000,0
2026-01-31 00:17:56,1587095,1662.000,759.000,8046.000,-400.000,-128.000,196.000,0.000,0.000,0
2026-01-31 00:17:56,1587134,1907.000,938.000,7804.000,-441.000,-199.000,71.000,0.000,0.000,0
2026-01-31 00:17:56,1587174,-91.000,1035.000,9032.000,59.000,76.000,-555.000,0.000,0.000,0
2026-01-31 00:17:56,1587214,3199.000,180.000,8411.000,-883.000,-785.000,189.000,0.000,0.000,0
2026-01-31 00:17:56,1587254,610.000,1318.000,8279.000,-110.000,950.000,-1112.000,0.000,0.000,0
2026-01-31 00:17:56,1587294,-393.000,1005.000,8011.000,-250.000,378.000,-656.000,0.000,0.000,0
2026-01-31 00:17:56,1587334,2394.000,542.000,8041.000,1.000,-645.000,198.000,0.000,0.000,0
2026-01-31 00:17:56,1587374,1358.000,549.000,8197.000,-83.000,19.000,-436.000,0.000,0.000,0
2026-01-31 00:17:56,1587414,2241.000,243.000,6853.000,-5.000,69.000,-513.000,0.000,0.000,0
2026-01-31 00:17:56,1587454,-139.000,1561.000,8524.000,296.000,543.000,-926.000,0.000,0.000,0
2026-01-31 00:17:56,1587494,3080.000,96.000,7302.000,19.000,-636.000,261.000,0.000,0.000,0
2026-01-31 00:17:56,1587534,1051.000,852.000,8415.000,260.000,-96.000,-350.000,0.000,0.000,0
2026-01-31 00:17:56,1587574,-101.000,739.000,8520.000,169.000,-105.000,-481.000,0.000,0.000,0
2026-01-31 00:17:56,1587614,1984.000,537.000,8327.000,-155.000,-524.000,16.000,0.000,0.000,0
2026-01-31 00:17:56,1587654,2319.000,851.000,8278.000,148.000,1.000,-115.000,0.000,0.000,0
2026-01-31 00:17:56,1587694,872.000,603.000,8403.000,164.000,188.000,-394.000,0.000,0.000,0
2026-01-31 00:17:56,1587734,753.000,520.000,7853.000,-16.000,-34.000,-528.000,0.000,0.000,0
2026-01-31 00:17:56,1587774,686.000,517.000,8266.000,-14.000,-87.000,-486.000,0.000,0.000,0
2026-01-31 00:17:57,1587814,2461.000,556.000,8070.000,195.000,-279.000,-100.000,0.000,0.000,0
2026-01-31 00:17:57,1587854,2347.000,295.000,7427.000,155.000,-46.000,-250.000,0.000,0.000,0
2026-01-31 00:17:57,1587894,1627.000,546.000,7970.000,230.000,474.000,-639.000,0.000,0.000,0
2026-01-31 00:17:57,1587934,1535.000,832.000,7571.000,434.000,620.000,-791.000,0.000,0.000,1
2026-01-31 00:17:57,1587974,345.000,914.000,8245.000,258.000,779.000,-729.000,0.000,0.000,1
2026-01-31 00:17:57,1588014,2656.000,829.000,8564.000,246.000,-54.000,139.000,0.000,0.000,0
2026-01-31 00:17:57,1588054,1688.000,841.000,8480.000,417.000,412.000,-331.000,0.000,0.000,0
2026-01-31 00:17:57,1588094,51.000,776.000,8760.000,76.000,479.000,-424.000,0.000,0.000,0
2026-01-31 00:17:57,1588134,516.000,1051.000,8630.000,673.000,-198.000,-300.000,0.000,0.000,0
2026-01-31 00:17:57,1588174,2787.000,355.000,7453.000,-233.000,-606.000,311.000,0.000,0.000,0
2026-01-31 00:17:57,1588214,960.000,936.000,8115.000,724.000,248.000,-430.000,0.000,0.000,0
2026-01-31 00:17:57,1588254,936.000,914.000,8552.000,85.000,180.000,-180.000,0.000,0.000,0
2026-01-31 00:17:57,1588294,1617.000,1281.000,8011.000,467.000,-35.000,53.000,0.000,0.000,0
2026-01-31 00:17:57,1588334,1134.000,899.000,8013.000,434.000,59.000,259.000,0.000,0.000,0
2026-01-31 00:17:57,1588374,1889.000,828.000,8700.000,668.000,-112.000,359.000,0.000,0.000,0
2026-01-31 00:17:57,1588414,-369.000,967.000,8515.000,535.000,1065.000,-595.000,0.000,0.000,0
2026-01-31 00:17:57,1588454,1537.000,1092.000,7935.000,410.000,-80.000,157.000,0.000,0.000,0
2026-01-31 00:17:57,1588494,1307.000,1467.000,8926.000,679.000,-87.000,329.000,0.000,0.000,0
2026-01-31 00:17:57,1588534,1349.000,-317.000,7914.000,-72.000,56.000,669.000,0.000,0.000,0
2026-01-31 00:17:57,1588574,547.000,2187.000,9032.000,631.000,57.000,-203.000,0.000,0.000,0
2026-01-31 00:17:57,1588614,72.000,902.000,8899.000,-277.000,-339.000,-134.000,0.000,0.000,0
2026-01-31 00:17:57,1588654,2952.000,630.000,7923.000,-847.000,-961.000,157.000,0.000,0.000,0
2026-01-31 00:17:57,1588694,583.000,1085.000,7771.000,99.000,-305.000,-485.000,0.000,0.000,0
2026-01-31 00:17:57,1588734,1683.000,1154.000,8149.000,-432.000,-748.000,221.000,0.000,0.000,0
2026-01-31 00:17:57,1588774,1096.000,1988.000,8826.000,271.000,-76.000,-29.000,0.000,0.000,0
2026-01-31 00:17:58,1588816,985.000,-41.000,7765.000,119.000,348.000,640.000,0.000,0.000,0
2026-01-31 00:17:58,1588856,853.000,1334.000,8674.000,467.000,196.000,581.000,0.000,0.000,0
2026-01-31 00:17:58,1588894,3906.000,-225.000,6949.000,490.000,-251.000,816.000,0.000,0.000,0
2026-01-31 00:17:58,1588934,-1192.000,2307.000,8991.000,530.000,887.000,-616.000,0.000,0.000,1
2026-01-31 00:17:58,1588974,3283.000,783.000,7639.000,232.000,-740.000,682.000,0.000,0.000,1
2026-01-31 00:17:58,1589014,2594.000,1551.000,7438.000,449.000,100.000,92.000,0.000,0.000,0
2026-01-31 00:17:58,1589057,-25.000,585.000,8182.000,-222.000,806.000,367.000,0.000,0.000,0
2026-01-31 00:17:58,1589094,1150.000,434.000,8105.000,1016.000,465.000,228.000,0.000,0.000,0
2026-01-31 00:17:58,1589134,-297.000,782.000,8666.000,473.000,703.000,47.000,0.000,0.000,0
2026-01-31 00:17:58,1589174,-618.000,1320.000,9586.000,439.000,903.000,-354.000,0.000,0.000,0
2026-01-31 00:17:58,1589214,162.000,882.000,8009.000,-571.000,-266.000,188.000,0.000,0.000,0
2026-01-31 00:17:58,1589254,1522.000,1550.000,9086.000,-189.000,-596.000,180.000,0.000,0.000,0
2026-01-31 00:17:58,1589294,4438.000,929.000,7836.000,-1318.000,-138.000,561.000,0.000,0.000,0
2026-01-31 00:17:58,1589334,-892.000,1486.000,7544.000,659.000,1227.000,-507.000,0.000,0.000,0
2026-01-31 00:17:58,1589374,-728.000,1717.000,7968.000,-696.000,215.000,89.000,0.000,0.000,0
2026-01-31 00:17:58,1589414,2278.000,143.000,8155.000,-445.000,-555.000,1007.000,0.000,0.000,0
2026-01-31 00:17:58,1589454,1729.000,76.000,7658.000,-703.000,170.000,255.000,0.000,0.000,0
2026-01-31 00:17:58,1589494,-939.000,1279.000,8436.000,133.000,589.000,-932.000,0.000,0.000,0
2026-01-31 00:17:58,1589534,1600.000,1516.000,8228.000,-620.000,-206.000,471.000,0.000,0.000,0
2026-01-31 00:17:58,1589574,1495.000,79.000,6803.000,-599.000,-714.000,690.000,0.000,0.000,0
2026-01-31 00:17:58,1589614,1161.000,1700.000,9391.000,-134.000,109.000,132.000,0.000,0.000,0
2026-01-31 00:17:58,1589654,4039.000,976.000,8286.000,-392.000,585.000,318.000,0.000,0.000,0
2026-01-31 00:17:58,1589694,-2288.000,1529.000,8793.000,326.000,1554.000,-577.000,0.000,0.000,0
2026-01-31 00:17:58,1589734,-2138.000,636.000,8078.000,-271.000,-952.000,725.000,0.000,0.000,0
2026-01-31 00:17:58,1589774,2134.000,475.000,7525.000,325.000,-2635.000,1687.000,0.000,0.000,0
2026-01-31 00:17:59,1589814,4552.000,-436.000,7469.000,-215.000,-1701.000,708.000,0.000,0.000,0
2026-01-31 00:17:59,1589854,5317.000,413.000,7174.000,-145.000,290.000,-697.000,0.000,0.000,0
2026-01-31 00:17:59,1589894,14.000,1624.000,7894.000,411.000,1965.000,-1568.000,0.000,0.000,0
2026-01-31 00:17:59,1589934,3138.000,1038.000,8521.000,-400.000,23.000,698.000,0.000,0.000,1
2026-01-31 00:17:59,1589974,2245.000,1082.000,9419.000,-191.000,1486.000,158.000,0.000,0.000,1
2026-01-31 00:17:59,1590014,-1653.000,173.000,9020.000,176.000,2530.000,-440.000,0.000,0.000,0
2026-01-31 00:17:59,1590054,420.000,1019.000,7919.000,194.000,423.000,285.000,0.000,0.000,0
2026-01-31 00:17:59,1590094,1979.000,112.000,7334.000,362.000,-811.000,716.000,0.000,0.000,0
2026-01-31 00:17:59,1590134,688.000,-52.000,6777.000,65.000,-314.000,-211.000,0.000,0.000,0
2026-01-31 00:17:59,1590174,-2148.000,408.000,8115.000,134.000,63.000,-1199.000,0.000,0.000,0
2026-01-31 00:17:59,1590214,1218.000,1751.000,7790.000,-412.000,-711.000,-100.000,0.000,0.000,0
2026-01-31 00:17:59,1590254,2842.000,692.000,8182.000,-54.000,-430.000,838.000,0.000,0.000,0
2026-01-31 00:17:59,1590294,-2133.000,1389.000,11030.000,537.000,-74.000,886.000,0.000,0.000,0
2026-01-31 00:17:59,1590334,896.000,841.000,9460.000,348.000,-1675.000,1211.000,0.000,0.000,0
2026-01-31 00:17:59,1590374,3017.000,673.000,8347.000,9.000,-2239.000,1041.000,0.000,0.000,0
2026-01-31 00:17:59,1590414,2433.000,-649.000,7268.000,-551.000,-1799.000,657.000,0.000,0.000,0
2026-01-31 00:17:59,1590454,1161.000,934.000,7690.000,472.000,-904.000,-511.000,0.000,0.000,0
2026-01-31 00:17:59,1590494,2411.000,628.000,6635.000,-662.000,-653.000,-382.000,0.000,0.000,0
2026-01-31 00:17:59,1590534,2599.000,787.000,5975.000,-125.000,81.000,-449.000,0.000,0.000,0
2026-01-31 00:17:59,1590574,926.000,920.000,7585.000,395.000,1207.000,-363.000,0.000,0.000,0
2026-01-31 00:17:59,1590614,2714.000,1157.000,7771.000,549.000,976.000,485.000,0.000,0.000,0
2026-01-31 00:17:59,1590654,1424.000,617.000,8277.000,526.000,1715.000,330.000,0.000,0.000,0
2026-01-31 00:17:59,1590694,822.000,559.000,8769.000,504.000,1569.000,508.000,0.000,0.000,0
2026-01-31 00:17:59,1590734,495.000,1094.000,9321.000,635.000,954.000,127.000,0.000,0.000,0
2026-01-31 00:17:59,1590774,717.000,690.000,9118.000,347.000,494.000,235.000,0.000,0.000,0
2026-01-31 00:18:00,1590816,-356.000,1058.000,8340.000,502.000,172.000,45.000,0.000,0.000,0
2026-01-31 00:18:00,1590856,120.000,1399.000,9178.000,542.000,-532.000,138.000,0.000,0.000,0
2026-01-31 00:18:00,1590894,1928.000,686.000,7868.000,36.000,-972.000,472.000,0.000,0.000,0
2026-01-31 00:18:00,1590934,670.000,1502.000,7806.000,67.000,-343.000,-22.000,0.000,0.000,1
2026-01-31 00:18:00,1590974,2338.000,875.000,7617.000,76.000,-437.000,194.000,0.000,0.000,1
2026-01-31 00:18:00,1591014,1429.000,1001.000,7757.000,-35.000,231.000,192.000,0.000,0.000,0
2026-01-31 00:18:00,1591056,-241.000,1574.000,8240.000,300.000,614.000,97.000,0.000,0.000,0
2026-01-31 00:18:00,1591094,1133.000,1245.000,8447.000,167.000,-760.000,1097.000,0.000,0.000,0
2026-01-31 00:18:00,1591134,1483.000,67.000,7958.000,-228.000,-638.000,1193.000,0.000,0.000,0
2026-01-31 00:18:00,1591174,2208.000,868.000,7106.000,711.000,-786.000,506.000,0.000,0.000,0
2026-01-31 00:18:00,1591214,397.000,1615.000,8855.000,-27.000,-489.000,-81.000,0.000,0.000,0
2026-01-31 00:18:00,1591254,4480.000,1477.000,8416.000,-45.000,-581.000,231.000,0.000,0.000,0
2026-01-31 00:18:00,1591294,3207.000,1435.000,7891.000,-104.000,645.000,-40.000,0.000,0.000,0
2026-01-31 00:18:00,1591334,852.000,1843.000,9971.000,276.000,1939.000,-426.000,0.000,0.000,0
2026-01-31 00:18:00,1591374,-624.000,1257.000,9444.000,-809.000,1771.000,-50.000,0.000,0.000,0
2026-01-31 00:18:00,1591414,752.000,995.000,8528.000,-241.000,880.000,265.000,0.000,0.000,0
2026-01-31 00:18:00,1591454,-1024.000,1072.000,8643.000,-27.000,1077.000,-34.000,0.000,0.000,0
2026-01-31 00:18:00,1591494,2262.000,476.000,7010.000,-793.000,220.000,338.000,0.000,0.000,0
2026-01-31 00:18:00,1591534,-604.000,1374.000,7533.000,-99.000,1246.000,-455.000,0.000,0.000,0
2026-01-31 00:18:00,1591574,146.000,755.000,7741.000,-629.000,1050.000,194.000,0.000,0.000,0
2026-01-31 00:18:00,1591614,377.000,2258.000,9203.000,76.000,1331.000,190.000,0.000,0.000,0
2026-01-31 00:18:00,1591654,-2214.000,961.000,9480.000,-38.000,1086.000,447.000,0.000,0.000,0
2026-01-31 00:18:00,1591694,-113.000,1764.000,9791.000,-284.000,-572.000,1218.000,0.000,0.000,0
2026-01-31 00:18:00,1591734,539.000,504.000,10557.000,253.000,-1298.000,1189.000,0.000,0.000,0
2026-01-31 00:18:00,1591774,3388.000,897.000,8637.000,-519.000,-1929.000,838.000,0.000,0.000,0
2026-01-31 00:18:01,1591814,330.000,2054.000,7210.000,-70.000,-911.000,-789.000,0.000,0.000,0
2026-01-31 00:18:01,1591854,-601.000,893.000,8689.000,-1297.000,-872.000,-631.000,0.000,0.000,0
2026-01-31 00:18:01,1591894,2056.000,1150.000,5945.000,-982.000,-1120.000,81.000,0.000,0.000,0
2026-01-31 00:18:01,1591934,139.000,2428.000,7499.000,-416.000,-176.000,-398.000,0.000,0.000,1
2026-01-31 00:18:01,1591974,3139.000,263.000,7553.000,-1247.000,-198.000,774.000,0.000,0.000,1
2026-01-31 00:18:01,1592014,4181.000,908.000,7535.000,-730.000,1092.000,109.000,0.000,0.000,0
2026-01-31 00:18:01,1592054,-2476.000,1336.000,8566.000,-217.000,2447.000,-1358.000,0.000,0.000,0
2026-01-31 00:18:01,1592094,-1140.000,563.000,8398.000,-987.000,684.000,-427.000,0.000,0.000,0
2026-01-31 00:18:01,1592134,1546.000,771.000,9293.000,-703.000,-488.000,448.000,0.000,0.000,0
2026-01-31 00:18:01,1592174,700.000,-350.000,8444.000,-1167.000,124.000,-80.000,0.000,0.000,0
2026-01-31 00:18:01,1592214,463.000,1666.000,9376.000,-1016.000,-988.000,-434.000,0.000,0.000,0
2026-01-31 00:18:01,1592254,2188.000,806.000,8108.000,-1215.000,-2021.000,24.000,0.000,0.000,0
2026-01-31 00:18:01,1592294,3001.000,20.000,7367.000,-1405.000,-1387.000,-491.000,0.000,0.000,0
2026-01-31 00:18:01,1592334,-212.000,412.000,8023.000,-857.000,125.000,-1450.000,0.000,0.000,0
2026-01-31 00:18:01,1592374,2446.000,815.000,6595.000,-951.000,-504.000,-605.000,0.000,0.000,0
2026-01-31 00:18:01,1592414,249.000,1420.000,7728.000,30.000,41.000,-1028.000,0.000,0.000,0
2026-01-31 00:18:01,1592454,1959.000,-141.000,9377.000,-622.000,248.000,-179.000,0.000,0.000,0
2026-01-31 00:18:01,1592494,791.000,371.000,8378.000,155.000,844.000,-846.000,0.000,0.000,0
2026-01-31 00:18:01,1592534,296.000,1200.000,8712.000,-176.000,320.000,-958.000,0.000,0.000,0
2026-01-31 00:18:01,1592574,-383.000,783.000,8922.000,307.000,-453.000,-795.000,0.000,0.000,0
2026-01-31 00:18:01,1592614,5975.000,-127.000,7020.000,468.000,-932.000,-365.000,0.000,0.000,0
2026-01-31 00:18:01,1592654,-82.000,1569.000,9040.000,85.000,1521.000,-1862.000,0.000,0.000,0
2026-01-31 00:18:01,1592694,597.000,5.000,6321.000,203.000,214.000,-406.000,0.000,0.000,0
2026-01-31 00:18:01,1592734,-1596.000,-442.000,7596.000,509.000,-305.000,-381.000,0.000,0.000,0
2026-01-31 00:18:01,1592776,6120.000,-601.000,8084.000,1412.000,-2232.000,687.000,0.000,0.000,0
2026-01-31 00:18:02,1592814,3047.000,1081.000,8641.000,988.000,725.000,-1262.000,0.000,0.000,0
2026-01-31 00:18:02,1592854,-2154.000,-206.000,7879.000,-293.000,2172.000,-1901.000,0.000,0.000,0
2026-01-31 00:18:02,1592894,136.000,403.000,7974.000,860.000,3.000,-317.000,0.000,0.000,0
2026-01-31 00:18:02,1592934,5211.000,523.000,6491.000,1868.000,-1944.000,1074.000,0.000,0.000,0
2026-01-31 00:18:02,1592974,3480.000,2063.000,8540.000,1325.000,952.000,-630.000,0.000,0.000,0
2026-01-31 00:18:02,1593014,1625.000,241.000,7374.000,713.000,1519.000,-790.000,0.000,0.000,0
2026-01-31 00:18:02,1593056,-3357.000,1272.000,8750.000,924.000,1337.000,-1132.000,0.000,0.000,0
2026-01-31 00:18:02,1593094,5213.000,-394.000,7330.000,1366.000,-1802.000,985.000,0.000,0.000,0
2026-01-31 00:18:02,1593134,-1024.000,2862.000,9183.000,1535.000,1076.000,-1783.000,0.000,0.000,0
2026-01-31 00:18:02,1593174,2019.000,-212.000,9890.000,-664.000,366.000,-657.000,0.000,0.000,0
2026-01-31 00:18:02,1593214,4359.000,-1282.000,5909.000,521.000,-467.000,310.000,0.000,0.000,0
2026-01-31 00:18:02,1593254,-432.000,3488.000,9451.000,1972.000,95.000,-373.000,0.000,0.000,0
2026-01-31 00:18:02,1593294,-2459.000,75.000,11353.000,231.000,367.000,509.000,0.000,0.000,0
2026-01-31 00:18:02,1593334,4035.000,588.000,8779.000,-447.000,-517.000,1425.000,0.000,0.000,0
2026-01-31 00:18:02,1593374,742.000,1254.000,8302.000,1325.000,471.000,518.000,0.000,0.000,0
2026-01-31 00:18:02,1593414,2091.000,1703.000,6913.000,1205.000,-851.000,927.000,0.000,0.000,0
2026-01-31 00:18:02,1593454,-2223.000,1208.000,9930.000,647.000,196.000,91.000,0.000,0.000,0
2026-01-31 00:18:02,1593494,4959.000,1969.000,8139.000,-738.000,-796.000,737.000,0.000,0.000,0
2026-01-31 00:18:02,1593534,-177.000,-1136.000,8490.000,749.000,372.000,854.000,0.000,0.000,0
2026-01-31 00:18:02,1593574,354.000,4213.000,8152.000,1040.000,-140.000,216.000,0.000,0.000,0
2026-01-31 00:18:02,1593614,183.000,-1519.000,9650.000,-340.000,-35.000,1367.000,0.000,0.000,0
2026-01-31 00:18:02,1593654,3031.000,3663.000,7790.000,682.000,-1258.000,1142.000,0.000,0.000,0
2026-01-31 00:18:02,1593694,939.000,-1002.000,8386.000,-164.000,324.000,789.000,0.000,0.000,0
2026-01-31 00:18:02,1593734,1568.000,-205.000,7657.000,148.000,-392.000,1124.000,0.000,0.000,0
2026-01-31 00:18:02,1593774,2072.000,2193.000,8025.000,529.000,-55.000,317.000,0.000,0.000,0
2026-01-31 00:18:03,1593814,783.000,251.000,7975.000,-496.000,583.000,602.000,0.000,0.000,0
2026-01-31 00:18:03,1593854,607.000,1400.000,8317.000,194.000,556.000,427.000,0.000,0.000,0
2026-01-31 00:18:03,1593894,661.000,2118.000,9027.000,-183.000,496.000,577.000,0.000,0.000,0
2026-01-31 00:18:03,1593934,2624.000,411.000,7566.000,-581.000,-55.000,916.000,0.000,0.000,0
2026-01-31 00:18:03,1593974,-1011.000,1806.000,9581.000,-291.000,548.000,45.000,0.000,0.000,0
2026-01-31 00:18:03,1594014,2108.000,557.000,7935.000,-927.000,-355.000,651.000,0.000,0.000,0
2026-01-31 00:18:03,1594054,-871.000,1926.000,7615.000,-247.000,-223.000,-9.000,0.000,0.000,0
2026-01-31 00:18:03,1594094,2318.000,1038.000,9132.000,-958.000,-1038.000,832.000,0.000,0.000,0
2026-01-31 00:18:03,1594134,1640.000,231.000,8018.000,-947.000,833.000,90.000,0.000,0.000,0
2026-01-31 00:18:03,1594174,-611.000,2226.000,9047.000,-411.000,1305.000,-616.000,0.000,0.000,0
2026-01-31 00:18:03,1594214,-1027.000,1775.000,9330.000,-379.000,351.000,196.000,0.000,0.000,0
2026-01-31 00:18:03,1594254,1119.000,939.000,7911.000,-829.000,-761.000,904.000,0.000,0.000,0
2026-01-31 00:18:03,1594294,1567.000,924.000,7620.000,-499.000,-801.000,380.000,0.000,0.000,0
2026-01-31 00:18:03,1594334,1653.000,864.000,7478.000,-615.000,-597.000,103.000,0.000,0.000,0
2026-01-31 00:18:03,1594374,1655.000,1335.000,7372.000,-556.000,-370.000,-19.000,0.000,0.000,0
2026-01-31 00:18:03,1594414,2663.000,1020.000,7045.000,-369.000,-268.000,306.000,0.000,0.000,0
2026-01-31 00:18:03,1594454,1019.000,1441.000,8741.000,45.000,969.000,-82.000,0.000,0.000,0
2026-01-31 00:18:03,1594494,-2171.000,1235.000,8508.000,-314.000,1489.000,31.000,0.000,0.000,0
2026-01-31 00:18:03,1594534,2084.000,485.000,10283.000,120.000,-444.000,1385.000,0.000,0.000,0
2026-01-31 00:18:03,1594574,3256.000,652.000,8695.000,158.000,-551.000,1130.000,0.000,0.000,0
2026-01-31 00:18:03,1594614,226.000,102.000,7562.000,6.000,-6.000,-233.000,0.000,0.000,0
2026-01-31 00:18:03,1594654,171.000,29.000,7290.000,-384.000,-607.000,-660.000,0.000,0.000,0
2026-01-31 00:18:03,1594694,1642.000,1204.000,7435.000,-229.000,-797.000,-725.000,0.000,0.000,0
2026-01-31 00:18:03,1594734,1623.000,1168.000,7189.000,-260.000,-278.000,-498.000,0.000,0.000,0
2026-01-31 00:18:03,1594776,1859.000,1481.000,8643.000,-53.000,672.000,-403.000,0.000,0.000,0
2026-01-31 00:18:04,1594816,747.000,891.000,8682.000,-133.000,1318.000,-238.000,0.000,0.000,0
2026-01-31 00:18:04,1594854,379.000,1032.000,8310.000,7.000,695.000,129.000,0.000,0.000,0
2026-01-31 00:18:04,1594894,1910.000,736.000,9046.000,-373.000,-324.000,483.000,0.000,0.000,0
2026-01-31 00:18:04,1594934,1309.000,284.000,9011.000,-322.000,-8.000,-122.000,0.000,0.000,0
2026-01-31 00:18:04,1594974,962.000,1397.000,7949.000,-418.000,-196.000,-527.000,0.000,0.000,0
2026-01-31 00:18:04,1595014,201.000,1483.000,8637.000,39.000,-404.000,-625.000,0.000,0.000,0
2026-01-31 00:18:04,1595056,1597.000,725.000,7713.000,-672.000,-972.000,155.000,0.000,0.000,0
2026-01-31 00:18:04,1595094,2594.000,928.000,7964.000,203.000,-372.000,-212.000,0.000,0.000,0
2026-01-31 00:18:04,1595134,-323.000,976.000,8573.000,-199.000,627.000,-835.000,0.000,0.000,0
2026-01-31 00:18:04,1595174,1488.000,348.000,7549.000,-65.000,-55.000,-130.000,0.000,0.000,0
2026-01-31 00:18:04,1595214,149.000,1029.000,9139.000,-43.000,323.000,-338.000,0.000,0.000,0
2026-01-31 00:18:04,1595254,-820.000,1058.000,8727.000,-287.000,-33.000,-531.000,0.000,0.000,0
2026-01-31 00:18:04,1595294,-906.000,980.000,7427.000,-136.000,-1227.000,106.000,0.000,0.000,0
2026-01-31 00:18:04,1595334,453.000,370.000,7138.000,238.000,-2253.000,495.000,0.000,0.000,0
2026-01-31 00:18:04,1595374,9260.000,288.000,9188.000,-21.000,-1423.000,548.000,0.000,0.000,0
2026-01-31 00:18:04,1595414,3970.000,1132.000,6059.000,586.000,1250.000,-1472.000,0.000,0.000,0
2026-01-31 00:18:04,1595454,-104.000,1728.000,9856.000,-210.000,2175.000,-2025.000,0.000,0.000,0
2026-01-31 00:18:04,1595494,32.000,697.000,10567.000,-247.000,1358.000,-412.000,0.000,0.000,0
2026-01-31 00:18:04,1595534,2640.000,585.000,10094.000,-63.000,1369.000,239.000,0.000,0.000,0
2026-01-31 00:18:04,1595574,1566.000,1057.000,8641.000,223.000,1024.000,-252.000,0.000,0.000,0
2026-01-31 00:18:04,1595614,842.000,310.000,8126.000,230.000,201.000,-91.000,0.000,0.000,0
2026-01-31 00:18:04,1595654,2864.000,260.000,4500.000,33.000,-44.000,-796.000,0.000,0.000,0
2026-01-31 00:18:04,1595694,-2387.000,508.000,6466.000,437.000,899.000,-1896.000,0.000,0.000,0
2026-01-31 00:18:04,1595734,-2640.000,3050.000,7974.000,504.000,854.000,-1698.000,0.000,0.000,0
2026-01-31 00:18:04,1595774,9044.000,-767.000,4865.000,-1739.000,-755.000,1269.000,0.000,0.000,0
2026-01-31 00:18:05,1595814,-7815.000,4294.000,11599.000,3092.000,3051.000,-1837.000,0.000,0.000,0
2026-01-31 00:18:05,1595854,-2264.000,-187.000,13426.000,-309.000,-612.000,2761.000,0.000,0.000,0
2026-01-31 00:18:05,1595894,8112.000,457.000,8453.000,2412.000,-3819.000,3546.000,0.000,0.000,0
2026-01-31 00:18:05,1595934,-3225.000,248.000,11564.000,856.000,-199.000,-5.000,0.000,0.000,1
2026-01-31 00:18:05,1595974,4982.000,518.000,7139.000,-181.000,-2738.000,348.000,0.000,0.000,1
2026-01-31 00:18:05,1596014,2790.000,2741.000,6025.000,455.000,-2400.000,-365.000,0.000,0.000,0
2026-01-31 00:18:05,1596054,-210.000,-846.000,6694.000,-2012.000,-816.000,-411.000,0.000,0.000,0
2026-01-31 00:18:05,1596094,1716.000,2275.000,6461.000,454.000,-401.000,-350.000,0.000,0.000,0
2026-01-31 00:18:05,1596134,2487.000,430.000,6569.000,229.000,867.000,551.000,0.000,0.000,0
2026-01-31 00:18:05,1596174,1805.000,807.000,6869.000,996.000,1837.000,426.000,0.000,0.000,0
2026-01-31 00:18:05,1596214,40.000,2118.000,9460.000,1037.000,2281.000,135.000,0.000,0.000,0
2026-01-31 00:18:05,1596254,837.000,361.000,8930.000,583.000,1345.000,937.000,0.000,0.000,0
2026-01-31 00:18:05,1596294,-487.000,921.000,10108.000,767.000,813.000,616.000,0.000,0.000,0
2026-01-31 00:18:05,1596334,2255.000,547.000,8889.000,412.000,-466.000,412.000,0.000,0.000,0
2026-01-31 00:18:05,1596374,849.000,705.000,9354.000,-509.000,-217.000,-99.000,0.000,0.000,0
2026-01-31 00:18:05,1596414,-1053.000,1337.000,7774.000,51.000,-999.000,-494.000,0.000,0.000,0
2026-01-31 00:18:05,1596454,1630.000,1249.000,7096.000,-162.000,-2243.000,472.000,0.000,0.000,0
2026-01-31 00:18:05,1596494,250.000,120.000,7191.000,-286.000,-842.000,197.000,0.000,0.000,0
2026-01-31 00:18:05,1596534,5787.000,1301.000,6783.000,-433.000,-332.000,114.000,0.000,0.000,0
2026-01-31 00:18:05,1596574,-306.000,2112.000,7628.000,1201.000,1742.000,-1122.000,0.000,0.000,0
2026-01-31 00:18:05,1596614,1491.000,1450.000,7884.000,-468.000,514.000,-60.000,0.000,0.000,0
2026-01-31 00:18:05,1596654,172.000,1057.000,8516.000,532.000,386.000,167.000,0.000,0.000,0
2026-01-31 00:18:05,1596694,4003.000,916.000,7441.000,-154.000,-208.000,876.000,0.000,0.000,0
2026-01-31 00:18:05,1596734,2627.000,2201.000,8477.000,590.000,1006.000,-169.000,0.000,0.000,0
2026-01-31 00:18:05,1596778,-1804.000,883.000,7270.000,154.000,1075.000,-240.000,0.000,0.000,0
2026-01-31 00:18:06,1596814,-5816.000,1231.000,10662.000,156.000,958.000,-547.000,0.000,0.000,0
2026-01-31 00:18:06,1596854,5871.000,957.000,5587.000,-91.000,-2337.000,1956.000,0.000,0.000,0
2026-01-31 00:18:06,1596894,-1831.000,3320.000,9367.000,1191.000,593.000,-246.000,0.000,0.000,0
2026-01-31 00:18:06,1596934,3609.000,-1337.000,7258.000,-885.000,-411.000,1721.000,0.000,0.000,0
2026-01-31 00:18:06,1596974,-252.000,2612.000,8522.000,2515.000,255.000,140.000,0.000,0.000,0
2026-01-31 00:18:06,1597014,525.000,660.000,9763.000,518.000,-783.000,943.000,0.000,0.000,0
2026-01-31 00:18:06,1597057,1744.000,2209.000,8141.000,825.000,-1010.000,514.000,0.000,0.000,0
2026-01-31 00:18:06,1597094,-322.000,274.000,10558.000,505.000,-298.000,477.000,0.000,0.000,0
2026-01-31 00:18:06,1597134,4977.000,512.000,5979.000,215.000,-1667.000,1295.000,0.000,0.000,0
2026-01-31 00:18:06,1597174,1614.000,2573.000,6876.000,1238.000,-756.000,-54.000,0.000,0.000,0
2026-01-31 00:18:06,1597214,2320.000,-86.000,7092.000,-126.000,-226.000,195.000,0.000,0.000,0
2026-01-31 00:18:06,1597254,1714.000,2697.000,7238.000,692.000,403.000,-141.000,0.000,0.000,0
2026-01-31 00:18:06,1597294,2291.000,1278.000,8308.000,595.000,749.000,556.000,0.000,0.000,0
2026-01-31 00:18:06,1597334,2412.000,1042.000,8071.000,311.000,975.000,984.000,0.000,0.000,0
2026-01-31 00:18:06,1597374,240.000,1498.000,9087.000,1044.000,1256.000,735.000,0.000,0.000,0
2026-01-31 00:18:06,1597414,940.000,1526.000,9378.000,632.000,569.000,890.000,0.000,0.000,0
2026-01-31 00:18:06,1597454,2488.000,1072.000,8363.000,326.000,-136.000,1001.000,0.000,0.000,0
2026-01-31 00:18:06,1597494,1980.000,2028.000,8497.000,488.000,-138.000,579.000,0.000,0.000,0
2026-01-31 00:18:06,1597534,1933.000,1349.000,8209.000,425.000,-155.000,548.000,0.000,0.000,0
2026-01-31 00:18:06,1597574,2324.000,1414.000,7632.000,188.000,-231.000,914.000,0.000,0.000,0
2026-01-31 00:18:06,1597614,1749.000,1937.000,7751.000,934.000,-94.000,751.000,0.000,0.000,0
2026-01-31 00:18:06,1597654,3273.000,1363.000,7905.000,-80.000,182.000,1157.000,0.000,0.000,0
2026-01-31 00:18:06,1597694,1988.000,979.000,7454.000,603.000,913.000,776.000,0.000,0.000,0
2026-01-31 00:18:06,1597734,-920.000,2164.000,9651.000,863.000,1096.000,509.000,0.000,0.000,0
2026-01-31 00:18:06,1597774,2184.000,1021.000,7886.000,88.000,23.000,1517.000,0.000,0.000,0
2026-01-31 00:18:07,1597814,2179.000,2832.000,8796.000,684.000,195.000,1195.000,0.000,0.000,0
2026-01-31 00:18:07,1597854,2794.000,-39.000,8309.000,-337.000,580.000,1500.000,0.000,0.000,0
2026-01-31 00:18:07,1597894,-642.000,2456.000,9033.000,926.000,1037.000,548.000,0.000,0.000,0
2026-01-31 00:18:07,1597934,1042.000,1684.000,8528.000,390.000,-188.000,1551.000,0.000,0.000,0
2026-01-31 00:18:07,1597974,3091.000,1149.000,7584.000,-423.000,-409.000,1839.000,0.000,0.000,0
2026-01-31 00:18:07,1598014,1389.000,825.000,8270.000,614.000,395.000,1111.000,0.000,0.000,0
2026-01-31 00:18:07,1598054,446.000,1589.000,7827.000,407.000,321.000,933.000,0.000,0.000,0
2026-01-31 00:18:07,1598094,1798.000,2065.000,7857.000,265.000,-73.000,1323.000,0.000,0.000,0
2026-01-31 00:18:07,1598134,1626.000,1793.000,8790.000,-22.000,410.000,1406.000,0.000,0.000,0
2026-01-31 00:18:07,1598174,2518.000,748.000,7965.000,-209.000,612.000,1231.000,0.000,0.000,0
2026-01-31 00:18:07,1598214,-492.000,2477.000,8631.000,431.000,1018.000,669.000,0.000,0.000,0
2026-01-31 00:18:07,1598254,981.000,902.000,7902.000,-276.000,232.000,1450.000,0.000,0.000,0
2026-01-31 00:18:07,1598294,549.000,1833.000,7958.000,135.000,-57.000,1239.000,0.000,0.000,0
2026-01-31 00:18:07,1598334,3377.000,529.000,7747.000,-577.000,240.000,838.000,0.000,0.000,0
2026-01-31 00:18:07,1598374,369.000,1921.000,7568.000,154.000,833.000,156.000,0.000,0.000,0
2026-01-31 00:18:07,1598414,113.000,2199.000,8025.000,130.000,303.000,732.000,0.000,0.000,0
2026-01-31 00:18:07,1598454,499.000,1679.000,8995.000,-204.000,-16.000,1444.000,0.000,0.000,0
2026-01-31 00:18:07,1598494,4653.000,1093.000,7364.000,-673.000,-10.000,1581.000,0.000,0.000,0
2026-01-31 00:18:07,1598534,548.000,1103.000,8571.000,527.000,1016.000,546.000,0.000,0.000,0
2026-01-31 00:18:07,1598574,-28.000,1531.000,8098.000,216.000,277.000,643.000,0.000,0.000,0
2026-01-31 00:18:07,1598614,1655.000,1361.000,7536.000,221.000,-660.000,1279.000,0.000,0.000,0
2026-01-31 00:18:07,1598654,3623.000,632.000,7451.000,-486.000,-471.000,1247.000,0.000,0.000,0
2026-01-31 00:18:07,1598694,1175.000,2010.000,8109.000,331.000,848.000,172.000,0.000,0.000,0
2026-01-31 00:18:07,1598734,711.000,2144.000,8244.000,299.000,506.000,868.000,0.000,0.000,0
2026-01-31 00:18:07,1598774,909.000,1007.000,8834.000,262.000,-2.000,1363.000,0.000,0.000,0
2026-01-31 00:18:08,1598816,2773.000,798.000,7616.000,-40.000,-260.000,1091.000,0.000,0.000,0
2026-01-31 00:18:08,1598856,771.000,970.000,8036.000,773.000,222.000,404.000,0.000,0.000,0
2026-01-31 00:18:08,1598894,2719.000,1540.000,7465.000,20.000,-25.000,729.000,0.000,0.000,0
2026-01-31 00:18:08,1598934,1612.000,1435.000,7463.000,556.000,193.000,733.000,0.000,0.000,0
2026-01-31 00:18:08,1598974,2364.000,1244.000,8392.000,-302.000,351.000,865.000,0.000,0.000,0
2026-01-31 00:18:08,1599014,2800.000,866.000,8535.000,1.000,1191.000,476.000,0.000,0.000,0
2026-01-31 00:18:08,1599058,-724.000,2085.000,9931.000,450.000,1443.000,-30.000,0.000,0.000,0
2026-01-31 00:18:08,1599094,1825.000,439.000,7553.000,17.000,-443.000,1538.000,0.000,0.000,0
2026-01-31 00:18:08,1599134,2102.000,2401.000,7346.000,353.000,-531.000,990.000,0.000,0.000,0
2026-01-31 00:18:08,1599174,2576.000,-108.000,7190.000,-54.000,-273.000,1014.000,0.000,0.000,0
2026-01-31 00:18:08,1599214,1881.000,1914.000,7568.000,514.000,181.000,530.000,0.000,0.000,0
2026-01-31 00:18:08,1599254,1005.000,1403.000,7884.000,576.000,347.000,796.000,0.000,0.000,0
2026-01-31 00:18:08,1599294,2040.000,1677.000,8311.000,216.000,284.000,1023.000,0.000,0.000,0
2026-01-31 00:18:08,1599334,2529.000,635.000,8448.000,400.000,597.000,1047.000,0.000,0.000,0
2026-01-31 00:18:08,1599374,-1827.000,3047.000,11486.000,1058.000,1039.000,385.000,0.000,0.000,0
2026-01-31 00:18:08,1599414,4013.000,1486.000,7307.000,130.000,-516.000,2025.000,0.000,0.000,0
2026-01-31 00:18:08,1599454,553.000,3765.000,8061.000,1242.000,252.000,694.000,0.000,0.000,0
2026-01-31 00:18:08,1599494,2693.000,-29.000,6940.000,-17.000,-560.000,1678.000,0.000,0.000,0
2026-01-31 00:18:08,1599534,2375.000,1935.000,6997.000,356.000,38.000,738.000,0.000,0.000,0
2026-01-31 00:18:08,1599574,1767.000,777.000,7311.000,98.000,637.000,619.000,0.000,0.000,0
2026-01-31 00:18:08,1599614,1702.000,1930.000,8233.000,233.000,772.000,402.000,0.000,0.000,0
2026-01-31 00:18:08,1599654,2108.000,817.000,8181.000,38.000,725.000,719.000,0.000,0.000,0
2026-01-31 00:18:08,1599694,-106.000,1840.000,9068.000,29.000,930.000,563.000,0.000,0.000,0
2026-01-31 00:18:08,1599734,1572.000,2061.000,8894.000,221.000,544.000,846.000,0.000,0.000,0
2026-01-31 00:18:08,1599774,1208.000,1550.000,8872.000,-64.000,446.000,1047.000,0.000,0.000,0
2026-01-31 00:18:09,1599814,2283.000,517.000,7640.000,-334.000,189.000,1147.000,0.000,0.000,0
2026-01-31 00:18:09,1599854,172.000,2929.000,8301.000,412.000,411.000,335.000,0.000,0.000,0
2026-01-31 00:18:09,1599894,2570.000,788.000,7219.000,-415.000,62.000,1077.000,0.000,0.000,0
2026-01-31 00:18:09,1599934,889.000,2131.000,8273.000,309.000,262.000,738.000,0.000,0.000,0
2026-01-31 00:18:09,1599974,1787.000,1436.000,8201.000,185.000,141.000,1211.000,0.000,0.000,0
2026-01-31 00:18:09,1600014,881.000,1070.000,8136.000,11.000,399.000,1083.000,0.000,0.000,0
2026-01-31 00:18:09,1600054,1734.000,1838.000,8397.000,76.000,527.000,847.000,0.000,0.000,0
2026-01-31 00:18:09,1600094,2272.000,1451.000,9026.000,64.000,734.000,993.000,0.000,0.000,0
2026-01-31 00:18:09,1600134,-548.000,618.000,9528.000,-119.000,1107.000,823.000,0.000,0.000,0
2026-01-31 00:18:09,1600174,-1988.000,1378.000,9089.000,343.000,170.000,1059.000,0.000,0.000,0
2026-01-31 00:18:09,1600214,913.000,1169.000,7978.000,421.000,-787.000,1788.000,0.000,0.000,0
2026-01-31 00:18:09,1600254,7600.000,-56.000,7171.000,-1510.000,-474.000,1404.000,0.000,0.000,0
2026-01-31 00:18:09,1600294,-54.000,1448.000,6827.000,1933.000,1177.000,-667.000,0.000,0.000,0
2026-01-31 00:18:09,1600334,-4701.000,2589.000,8735.000,24.000,617.000,-482.000,0.000,0.000,0
2026-01-31 00:18:09,1600374,5682.000,2203.000,7509.000,-666.000,-1745.000,2433.000,0.000,0.000,0
2026-01-31 00:18:09,1600414,1913.000,277.000,8622.000,-416.000,905.000,1191.000,0.000,0.000,0
2026-01-31 00:18:09,1600454,639.000,717.000,9664.000,-462.000,1627.000,478.000,0.000,0.000,0
2026-01-31 00:18:09,1600494,3340.000,1413.000,7576.000,-84.000,529.000,486.000,0.000,0.000,0
2026-01-31 00:18:09,1600534,-1797.000,1174.000,8800.000,-64.000,1060.000,295.000,0.000,0.000,0
2026-01-31 00:18:09,1600574,1249.000,1454.000,8252.000,-475.000,104.000,799.000,0.000,0.000,0
2026-01-31 00:18:09,1600614,4333.000,1087.000,6354.000,-1760.000,938.000,670.000,0.000,0.000,0
2026-01-31 00:18:09,1600654,-4383.000,1456.000,10237.000,625.000,1743.000,-433.000,0.000,0.000,0
2026-01-31 00:18:09,1600694,-467.000,959.000,8914.000,-925.000,-641.000,944.000,0.000,0.000,0
2026-01-31 00:18:09,1600734,4796.000,4289.000,6488.000,-798.000,-629.000,601.000,0.000,0.000,0
2026-01-31 00:18:09,1600774,-620.000,-790.000,6721.000,-906.000,924.000,505.000,0.000,0.000,0
2026-01-31 00:18:10,1600816,-3384.000,2593.000,11068.000,656.000,299.000,-3.000,0.000,0.000,0
2026-01-31 00:18:10,1600855,-1756.000,1570.000,3857.000,1220.000,-2945.000,1896.000,0.000,0.000,0
2026-01-31 00:18:10,1600895,9188.000,609.000,10709.000,-1559.000,-3010.000,3127.000,0.000,0.000,0
2026-01-31 00:18:10,1600934,8947.000,-151.000,8195.000,-1321.000,958.000,512.000,0.000,0.000,1
2026-01-31 00:18:10,1600974,4115.000,4594.000,12199.000,1520.000,4025.000,-2841.000,0.000,0.000,1
2026-01-31 00:18:10,1601014,-4601.000,-1014.000,11093.000,79.000,2205.000,-447.000,0.000,0.000,0
2026-01-31 00:18:10,1601057,-5385.000,2560.000,8638.000,1395.000,572.000,-85.000,0.000,0.000,0
2026-01-31 00:18:10,1601095,5087.000,-18.000,8793.000,-2346.000,-549.000,2572.000,0.000,0.000,0
2026-01-31 00:18:10,1601134,2138.000,-1920.000,5017.000,-265.000,221.000,1051.000,0.000,0.000,0
2026-01-31 00:18:10,1601174,1910.000,839.000,4049.000,31.000,316.000,-468.000,0.000,0.000,0
2026-01-31 00:18:10,1601214,-5757.000,144.000,11847.000,2004.000,1033.000,-1217.000,0.000,0.000,0
2026-01-31 00:18:10,1601254,635.000,2226.000,4337.000,-710.000,-1613.000,554.000,0.000,0.000,0
2026-01-31 00:18:10,1601294,4177.000,2799.000,7364.000,-1313.000,-111.000,1376.000,0.000,0.000,0
2026-01-31 00:18:10,1601334,1978.000,914.000,9363.000,906.000,583.000,3141.000,0.000,0.000,0
2026-01-31 00:18:10,1601374,1850.000,-2372.000,10456.000,693.000,-2102.000,3452.000,0.000,0.000,0
2026-01-31 00:18:10,1601414,2413.000,722.000,8581.000,739.000,-1785.000,-75.000,0.000,0.000,0
2026-01-31 00:18:10,1601454,2489.000,48.000,7885.000,-1389.000,-1104.000,-1571.000,0.000,0.000,0
2026-01-31 00:18:10,1601494,761.000,1481.000,7976.000,-189.000,-638.000,-1648.000,0.000,0.000,0
2026-01-31 00:18:10,1601534,3617.000,1458.000,5068.000,-910.000,-1334.000,-723.000,0.000,0.000,0
2026-01-31 00:18:10,1601574,-3091.000,1691.000,9700.000,-29.000,1466.000,-1280.000,0.000,0.000,0
2026-01-31 00:18:10,1601614,6875.000,1953.000,4426.000,-2005.000,36.000,914.000,0.000,0.000,0
2026-01-31 00:18:10,1601654,-1854.000,-347.000,7223.000,1917.000,3319.000,-369.000,0.000,0.000,0
2026-01-31 00:18:10,1601694,3110.000,2948.000,8534.000,-782.000,2383.000,918.000,0.000,0.000,0
2026-01-31 00:18:10,1601734,-2878.000,2512.000,10548.000,619.000,2691.000,1185.000,0.000,0.000,0
2026-01-31 00:18:10,1601774,-201.000,-530.000,9453.000,-925.000,1378.000,1140.000,0.000,0.000,0
2026-01-31 00:18:11,1601814,298.000,1566.000,10603.000,210.000,645.000,465.000,0.000,0.000,0
2026-01-31 00:18:11,1601854,1330.000,871.000,9370.000,-286.000,-341.000,662.000,0.000,0.000,0
2026-01-31 00:18:11,1601894,-241.000,1495.000,9084.000,376.000,-481.000,51.000,0.000,0.000,0
2026-01-31 00:18:11,1601934,347.000,1392.000,9025.000,-205.000,-854.000,-132.000,0.000,0.000,1
2026-01-31 00:18:11,1601974,2030.000,254.000,7386.000,-695.000,-1148.000,220.000,0.000,0.000,1
2026-01-31 00:18:11,1602014,1298.000,1774.000,7574.000,57.000,-520.000,-148.000,0.000,0.000,0
2026-01-31 00:18:11,1602054,204.000,1313.000,8139.000,-61.000,19.000,10.000,0.000,0.000,0
2026-01-31 00:18:11,1602094,1516.000,572.000,6795.000,-903.000,134.000,276.000,0.000,0.000,0
2026-01-31 00:18:11,1602134,208.000,1276.000,8052.000,-606.000,684.000,-71.000,0.000,0.000,0
2026-01-31 00:18:11,1602174,48.000,1476.000,8324.000,-1.000,1307.000,202.000,0.000,0.000,0
2026-01-31 00:18:11,1602214,316.000,568.000,8991.000,-627.000,879.000,514.000,0.000,0.000,0
2026-01-31 00:18:11,1602254,502.000,1172.000,8790.000,45.000,667.000,293.000,0.000,0.000,0
2026-01-31 00:18:11,1602294,-357.000,1025.000,8989.000,-391.000,451.000,76.000,0.000,0.000,0
2026-01-31 00:18:11,1602334,511.000,950.000,9370.000,-307.000,-28.000,130.000,0.000,0.000,0
2026-01-31 00:18:11,1602374,652.000,950.000,8282.000,-367.000,-274.000,31.000,0.000,0.000,0
2026-01-31 00:18:11,1602414,96.000,1212.000,8178.000,-407.000,-201.000,-240.000,0.000,0.000,0
2026-01-31 00:18:11,1602454,389.000,1059.000,8478.000,-342.000,-366.000,-186.000,0.000,0.000,0
2026-01-31 00:18:11,1602494,849.000,617.000,7451.000,-619.000,-363.000,66.000,0.000,0.000,0
2026-01-31 00:18:11,1602534,250.000,1022.000,7793.000,-331.000,-46.000,-205.000,0.000,0.000,0
2026-01-31 00:18:11,1602574,1690.000,348.000,7967.000,-407.000,-20.000,58.000,0.000,0.000,0
2026-01-31 00:18:11,1602614,364.000,1127.000,8694.000,-227.000,647.000,-421.000,0.000,0.000,0
2026-01-31 00:18:11,1602654,245.000,846.000,8536.000,-305.000,584.000,-379.000,0.000,0.000,0
2026-01-31 00:18:11,1602694,-87.000,1113.000,9022.000,-220.000,232.000,-309.000,0.000,0.000,0
2026-01-31 00:18:11,1602734,-10.000,627.000,8643.000,-418.000,-79.000,-162.000,0.000,0.000,0
2026-01-31 00:18:11,1602774,984.000,981.000,8847.000,-309.000,-401.000,-241.000,0.000,0.000,0
2026-01-31 00:18:12,1602816,866.000,765.000,7750.000,-271.000,-575.000,-325.000,0.000,0.000,0
2026-01-31 00:18:12,1602856,458.000,637.000,7834.000,-368.000,-519.000,-448.000,0.000,0.000,0
2026-01-31 00:18:12,1602894,1020.000,912.000,7764.000,-92.000,-630.000,-331.000,0.000,0.000,0
2026-01-31 00:18:12,1602934,1715.000,534.000,7989.000,-150.000,-416.000,-338.000,0.000,0.000,1
2026-01-31 00:18:12,1602974,1001.000,582.000,8233.000,-54.000,287.000,-560.000,0.000,0.000,1
2026-01-31 00:18:12,1603014,-203.000,904.000,8355.000,-237.000,528.000,-812.000,0.000,0.000,0
2026-01-31 00:18:12,1603057,290.000,614.000,8117.000,80.000,-213.000,-389.000,0.000,0.000,0
2026-01-31 00:18:12,1603094,1900.000,286.000,8374.000,-48.000,-493.000,-41.000,0.000,0.000,0
2026-01-31 00:18:12,1603134,429.000,433.000,8866.000,-140.000,265.000,-545.000,0.000,0.000,0
2026-01-31 00:18:12,1603174,2332.000,419.000,8188.000,-171.000,-75.000,-545.000,0.000,0.000,0
2026-01-31 00:18:12,1603214,-773.000,798.000,7643.000,96.000,168.000,-954.000,0.000,0.000,0
2026-01-31 00:18:12,1603254,1309.000,600.000,8265.000,151.000,-720.000,-269.000,0.000,0.000,0
2026-01-31 00:18:12,1603294,1716.000,551.000,7485.000,11.000,26.000,-384.000,0.000,0.000,0
2026-01-31 00:18:12,1603334,-515.000,918.000,8286.000,294.000,553.000,-973.000,0.000,0.000,0
2026-01-31 00:18:12,1603374,2431.000,467.000,8901.000,115.000,-287.000,-28.000,0.000,0.000,0
2026-01-31 00:18:12,1603414,837.000,1107.000,8755.000,357.000,267.000,-289.000,0.000,0.000,0
2026-01-31 00:18:12,1603454,552.000,526.000,8982.000,209.000,164.000,-301.000,0.000,0.000,0
2026-01-31 00:18:12,1603494,-140.000,511.000,8564.000,139.000,-29.000,-314.000,0.000,0.000,0
2026-01-31 00:18:12,1603534,967.000,369.000,7589.000,148.000,-392.000,-173.000,0.000,0.000,0
2026-01-31 00:18:12,1603574,-341.000,990.000,8432.000,309.000,11.000,-537.000,0.000,0.000,0
2026-01-31 00:18:12,1603614,2518.000,376.000,8417.000,229.000,-29.000,-64.000,0.000,0.000,0
2026-01-31 00:18:12,1603654,-867.000,158.000,8087.000,117.000,1000.000,-383.000,0.000,0.000,0
2026-01-31 00:18:12,1603694,-282.000,792.000,9258.000,615.000,576.000,-307.000,0.000,0.000,0
2026-01-31 00:18:12,1603734,-785.000,757.000,8233.000,281.000,236.000,-253.000,0.000,0.000,0
2026-01-31 00:18:12,1603774,-638.000,646.000,7933.000,229.000,-363.000,-134.000,0.000,0.000,0
2026-01-31 00:18:13,1603814,2458.000,638.000,8145.000,548.000,-1014.000,390.000,0.000,0.000,0
2026-01-31 00:18:13,1603854,1231.000,932.000,7727.000,432.000,-265.000,100.000,0.000,0.000,0
2026-01-31 00:18:13,1603894,180.000,967.000,8819.000,612.000,249.000,-195.000,0.000,0.000,0
2026-01-31 00:18:13,1603934,783.000,709.000,8441.000,469.000,20.000,368.000,0.000,0.000,1
2026-01-31 00:18:13,1603974,712.000,704.000,8639.000,581.000,260.000,317.000,0.000,0.000,1
2026-01-31 00:18:13,1604014,192.000,824.000,8761.000,520.000,528.000,118.000,0.000,0.000,0
2026-01-31 00:18:13,1604054,331.000,911.000,8168.000,475.000,-383.000,342.000,0.000,0.000,0
2026-01-31 00:18:13,1604094,482.000,920.000,8694.000,341.000,-562.000,391.000,0.000,0.000,0
2026-01-31 00:18:13,1604134,1606.000,835.000,8448.000,491.000,-567.000,550.000,0.000,0.000,0
2026-01-31 00:18:13,1604174,-572.000,1117.000,9325.000,140.000,401.000,236.000,0.000,0.000,0
2026-01-31 00:18:13,1604214,526.000,1002.000,8082.000,354.000,-221.000,522.000,0.000,0.000,0
2026-01-31 00:18:13,1604254,-253.000,503.000,8259.000,296.000,-244.000,590.000,0.000,0.000,0
2026-01-31 00:18:13,1604294,-565.000,977.000,8020.000,300.000,180.000,383.000,0.000,0.000,0
2026-01-31 00:18:13,1604334,-197.000,1267.000,8104.000,50.000,286.000,152.000,0.000,0.000,0
2026-01-31 00:18:13,1604374,-954.000,1193.000,8652.000,-216.000,557.000,270.000,0.000,0.000,0
2026-01-31 00:18:13,1604414,-787.000,1071.000,8977.000,403.000,241.000,750.000,0.000,0.000,0
2026-01-31 00:18:13,1604454,-139.000,1314.000,9002.000,208.000,-166.000,789.000,0.000,0.000,0
2026-01-31 00:18:13,1604494,1336.000,395.000,8074.000,-314.000,-676.000,904.000,0.000,0.000,0
2026-01-31 00:18:13,1604534,-801.000,1041.000,8069.000,-10.000,147.000,141.000,0.000,0.000,0
2026-01-31 00:18:13,1604574,-521.000,948.000,8383.000,-210.000,-64.000,262.000,0.000,0.000,0
2026-01-31 00:18:13,1604614,316.000,1049.000,7908.000,-265.000,-178.000,597.000,0.000,0.000,0
2026-01-31 00:18:13,1604654,424.000,1468.000,8509.000,291.000,199.000,487.000,0.000,0.000,0
2026-01-31 00:18:13,1604694,328.000,701.000,8835.000,150.000,561.000,661.000,0.000,0.000,0
2026-01-31 00:18:13,1604734,-731.000,1289.000,8892.000,265.000,661.000,342.000,0.000,0.000,0
2026-01-31 00:18:13,1604774,-1390.000,943.000,8443.000,-157.000,190.000,313.000,0.000,0.000,0
2026-01-31 00:18:14,1604816,1009.000,839.000,8214.000,-319.000,-425.000,647.000,0.000,0.000,0
2026-01-31 00:18:14,1604856,58.000,1415.000,8549.000,-272.000,253.000,282.000,0.000,0.000,0
2026-01-31 00:18:14,1604894,634.000,813.000,8081.000,-313.000,271.000,387.000,0.000,0.000,0
2026-01-31 00:18:14,1604934,-1635.000,1382.000,8547.000,-132.000,563.000,113.000,0.000,0.000,1
2026-01-31 00:18:14,1604974,690.000,1025.000,8206.000,-89.000,-365.000,796.000,0.000,0.000,1
2026-01-31 00:18:14,1605014,660.000,721.000,8364.000,-229.000,-30.000,630.000,0.000,0.000,0
2026-01-31 00:18:14,1605056,-212.000,1067.000,8338.000,-231.000,373.000,123.000,0.000,0.000,0
2026-01-31 00:18:14,1605094,561.000,944.000,8591.000,-217.000,203.000,279.000,0.000,0.000,0
2026-01-31 00:18:14,1605134,60.000,1195.000,8318.000,-272.000,352.000,284.000,0.000,0.000,0
2026-01-31 00:18:14,1605174,-368.000,898.000,8502.000,-137.000,-61.000,490.000,0.000,0.000,0
2026-01-31 00:18:14,1605214,-938.000,699.000,9102.000,-468.000,237.000,246.000,0.000,0.000,0
2026-01-31 00:18:14,1605254,926.000,1191.000,8077.000,-416.000,-182.000,373.000,0.000,0.000,0
2026-01-31 00:18:14,1605294,-389.000,1198.000,8668.000,-629.000,286.000,-25.000,0.000,0.000,0
2026-01-31 00:18:14,1605334,-10.000,838.000,8500.000,-676.000,166.000,173.000,0.000,0.000,0
2026-01-31 00:18:14,1605374,-598.000,932.000,8087.000,-603.000,275.000,80.000,0.000,0.000,0
2026-01-31 00:18:14,1605414,-998.000,1112.000,8635.000,-575.000,208.000,-176.000,0.000,0.000,0
2026-01-31 00:18:14,1605454,1674.000,649.000,8426.000,-517.000,-369.000,425.000,0.000,0.000,0
2026-01-31 00:18:14,1605494,-323.000,1403.000,8314.000,-335.000,551.000,-217.000,0.000,0.000,0
2026-01-31 00:18:14,1605534,-1695.000,729.000,8575.000,-665.000,389.000,-353.000,0.000,0.000,0
2026-01-31 00:18:14,1605574,-969.000,607.000,8586.000,-396.000,-249.000,-139.000,0.000,0.000,0
2026-01-31 00:18:14,1605614,1967.000,714.000,8278.000,-394.000,-613.000,264.000,0.000,0.000,0
2026-01-31 00:18:14,1605654,-997.000,697.000,8354.000,-477.000,540.000,-575.000,0.000,0.000,0
2026-01-31 00:18:14,1605694,-1646.000,738.000,8592.000,-713.000,156.000,-443.000,0.000,0.000,0
2026-01-31 00:18:14,1605734,1110.000,791.000,8193.000,-138.000,-775.000,271.000,0.000,0.000,0
2026-01-31 00:18:14,1605774,-473.000,505.000,8280.000,-468.000,-81.000,-140.000,0.000,0.000,0
2026-01-31 00:18:15,1605814,388.000,379.000,8767.000,-119.000,-334.000,-125.000,0.000,0.000,0
2026-01-31 00:18:15,1605854,1085.000,886.000,8071.000,-112.000,-239.000,-235.000,0.000,0.000,0
2026-01-31 00:18:15,1605894,-872.000,656.000,8006.000,-290.000,405.000,-757.000,0.000,0.000,0
2026-01-31 00:18:15,1605934,-238.000,971.000,8732.000,-119.000,-146.000,-285.000,0.000,0.000,1
2026-01-31 00:18:15,1605974,1484.000,13.000,8126.000,-303.000,-66.000,-64.000,0.000,0.000,1
2026-01-31 00:18:15,1606014,497.000,1037.000,8114.000,350.000,424.000,-672.000,0.000,0.000,0
2026-01-31 00:18:15,1606054,-164.000,611.000,8074.000,-125.000,424.000,-595.000,0.000,0.000,0
2026-01-31 00:18:15,1606094,-727.000,861.000,8585.000,-98.000,242.000,-736.000,0.000,0.000,0
2026-01-31 00:18:15,1606134,878.000,231.000,7921.000,-220.000,-230.000,-369.000,0.000,0.000,0
2026-01-31 00:18:15,1606174,-129.000,889.000,8268.000,52.000,471.000,-887.000,0.000,0.000,0
2026-01-31 00:18:15,1606214,-745.000,612.000,8558.000,-160.000,371.000,-870.000,0.000,0.000,0
2026-01-31 00:18:15,1606254,758.000,750.000,8136.000,42.000,-257.000,-364.000,0.000,0.000,0
2026-01-31 00:18:15,1606294,-127.000,776.000,8750.000,-199.000,256.000,-622.000,0.000,0.000,0
2026-01-31 00:18:15,1606334,-893.000,673.000,8556.000,14.000,824.000,-1022.000,0.000,0.000,0
2026-01-31 00:18:15,1606374,-1805.000,738.000,8237.000,-62.000,256.000,-957.000,0.000,0.000,0
2026-01-31 00:18:15,1606414,1605.000,780.000,8551.000,410.000,-788.000,-198.000,0.000,0.000,0
2026-01-31 00:18:15,1606454,421.000,336.000,7604.000,-52.000,-108.000,-553.000,0.000,0.000,0
2026-01-31 00:18:15,1606494,-460.000,265.000,8179.000,68.000,166.000,-802.000,0.000,0.000,0
2026-01-31 00:18:15,1606534,741.000,567.000,7726.000,390.000,-258.000,-518.000,0.000,0.000,0
2026-01-31 00:18:15,1606574,-729.000,475.000,8006.000,421.000,-25.000,-686.000,0.000,0.000,0
2026-01-31 00:18:15,1606614,662.000,685.000,8762.000,690.000,-554.000,-140.000,0.000,0.000,0
2026-01-31 00:18:15,1606654,2085.000,333.000,7957.000,784.000,-489.000,13.000,0.000,0.000,0
2026-01-31 00:18:15,1606694,956.000,412.000,8164.000,736.000,124.000,-83.000,0.000,0.000,0
2026-01-31 00:18:15,1606734,-7.000,949.000,8068.000,1260.000,-399.000,-252.000,0.000,0.000,0
2026-01-31 00:18:15,1606774,546.000,425.000,7845.000,1054.000,-711.000,-24.000,0.000,0.000,0
2026-01-31 00:18:16,1606816,2806.000,88.000,8180.000,1288.000,-417.000,167.000,0.000,0.000,0
2026-01-31 00:18:16,1606854,-1384.000,900.000,8488.000,1366.000,979.000,-393.000,0.000,0.000,0
2026-01-31 00:18:16,1606894,116.000,256.000,8485.000,1411.000,69.000,233.000,0.000,0.000,0
2026-01-31 00:18:16,1606934,1255.000,1213.000,8629.000,1740.000,-75.000,423.000,0.000,0.000,1
2026-01-31 00:18:16,1606974,-469.000,425.000,8249.000,1163.000,456.000,328.000,0.000,0.000,1
2026-01-31 00:18:16,1607014,262.000,1055.000,8451.000,1713.000,63.000,321.000,0.000,0.000,0
2026-01-31 00:18:16,1607056,834.000,1391.000,8317.000,1245.000,-239.000,451.000,0.000,0.000,0
2026-01-31 00:18:16,1607094,-1451.000,1120.000,8388.000,733.000,22.000,318.000,0.000,0.000,0
2026-01-31 00:18:16,1607134,2540.000,1222.000,8393.000,698.000,-592.000,896.000,0.000,0.000,0
2026-01-31 00:18:16,1607174,11.000,1717.000,8550.000,664.000,770.000,499.000,0.000,0.000,0
2026-01-31 00:18:16,1607214,-3742.000,579.000,9425.000,772.000,1226.000,303.000,0.000,0.000,0
2026-01-31 00:18:16,1607254,1490.000,1874.000,8004.000,775.000,-791.000,1466.000,0.000,0.000,0
2026-01-31 00:18:16,1607294,1551.000,699.000,9246.000,257.000,-47.000,1220.000,0.000,0.000,0
2026-01-31 00:18:16,1607334,-41.000,1045.000,8917.000,335.000,596.000,648.000,0.000,0.000,0
2026-01-31 00:18:16,1607374,966.000,1834.000,8244.000,738.000,284.000,465.000,0.000,0.000,0
2026-01-31 00:18:16,1607414,-1103.000,1521.000,8233.000,41.000,192.000,670.000,0.000,0.000,0
2026-01-31 00:18:16,1607454,1769.000,1176.000,8962.000,-63.000,-318.000,1383.000,0.000,0.000,0
2026-01-31 00:18:16,1607494,-180.000,1302.000,8306.000,161.000,759.000,865.000,0.000,0.000,0
2026-01-31 00:18:16,1607534,97.000,2183.000,7842.000,436.000,515.000,722.000,0.000,0.000,0
2026-01-31 00:18:16,1607574,-371.000,972.000,9164.000,32.000,415.000,1110.000,0.000,0.000,0
2026-01-31 00:18:16,1607614,-517.000,1422.000,8755.000,-225.000,316.000,1045.000,0.000,0.000,0
2026-01-31 00:18:16,1607654,-499.000,1628.000,8288.000,92.000,187.000,803.000,0.000,0.000,0
2026-01-31 00:18:16,1607694,1319.000,1624.000,8007.000,-315.000,-258.000,1057.000,0.000,0.000,0
2026-01-31 00:18:16,1607734,-525.000,1677.000,8407.000,-109.000,284.000,780.000,0.000,0.000,0
2026-01-31 00:18:16,1607774,-15.000,1503.000,8790.000,17.000,294.000,869.000,0.000,0.000,0
2026-01-31 00:18:17,1607814,-779.000,1131.000,7979.000,-312.000,212.000,928.000,0.000,0.000,0
2026-01-31 00:18:17,1607854,1297.000,1326.000,8358.000,-151.000,-474.000,1323.000,0.000,0.000,0
2026-01-31 00:18:17,1607894,399.000,1185.000,8232.000,-367.000,21.000,1039.000,0.000,0.000,0
2026-01-31 00:18:17,1607934,809.000,811.000,7918.000,-398.000,211.000,824.000,0.000,0.000,1
2026-01-31 00:18:17,1607974,-1867.000,1738.000,8042.000,-148.000,325.000,284.000,0.000,0.000,1
2026-01-31 00:18:17,1608014,-230.000,1801.000,8440.000,-248.000,-827.000,882.000,0.000,0.000,0
2026-01-31 00:18:17,1608054,3630.000,1078.000,7945.000,-551.000,-926.000,1490.000,0.000,0.000,0
2026-01-31 00:18:17,1608094,-1429.000,1634.000,7914.000,-117.000,525.000,394.000,0.000,0.000,0
2026-01-31 00:18:17,1608134,-1191.000,1326.000,8126.000,-194.000,-273.000,688.000,0.000,0.000,0
2026-01-31 00:18:17,1608174,2181.000,934.000,7917.000,-393.000,-947.000,1439.000,0.000,0.000,0
2026-01-31 00:18:17,1608214,-1599.000,1669.000,9341.000,25.000,368.000,643.000,0.000,0.000,0
2026-01-31 00:18:17,1608254,2566.000,1459.000,7368.000,-58.000,-828.000,1096.000,0.000,0.000,0
2026-01-31 00:18:17,1608294,-1514.000,1265.000,7513.000,-224.000,-50.000,453.000,0.000,0.000,0
2026-01-31 00:18:17,1608334,2320.000,298.000,8142.000,-373.000,-704.000,1097.000,0.000,0.000,0
2026-01-31 00:18:17,1608374,2030.000,1411.000,6953.000,208.000,355.000,180.000,0.000,0.000,0
2026-01-31 00:18:17,1608414,-3008.000,1290.000,8472.000,-94.000,1293.000,-596.000,0.000,0.000,0
2026-01-31 00:18:17,1608454,2285.000,1374.000,7936.000,-142.000,-476.000,1002.000,0.000,0.000,0
2026-01-31 00:18:17,1608494,1186.000,1835.000,8866.000,379.000,455.000,627.000,0.000,0.000,0
2026-01-31 00:18:17,1608534,1853.000,888.000,8219.000,-440.000,587.000,769.000,0.000,0.000,0
2026-01-31 00:18:17,1608574,-606.000,1732.000,8861.000,185.000,812.000,79.000,0.000,0.000,0
2026-01-31 00:18:17,1608614,1704.000,668.000,7517.000,-193.000,332.000,306.000,0.000,0.000,0
2026-01-31 00:18:17,1608654,835.000,1187.000,7655.000,-584.000,281.000,282.000,0.000,0.000,0
2026-01-31 00:18:17,1608694,-284.000,812.000,8405.000,-232.000,544.000,181.000,0.000,0.000,0
2026-01-31 00:18:17,1608734,517.000,1227.000,7954.000,-333.000,143.000,664.000,0.000,0.000,0
2026-01-31 00:18:17,1608774,635.000,1744.000,9062.000,142.000,245.000,610.000,0.000,0.000,0
2026-01-31 00:18:18,1608814,2161.000,1263.000,8044.000,-357.000,403.000,762.000,0.000,0.000,0
2026-01-31 00:18:18,1608854,-2429.000,1669.000,9165.000,44.000,934.000,-11.000,0.000,0.000,0
2026-01-31 00:18:18,1608894,566.000,1416.000,8699.000,-457.000,-604.000,977.000,0.000,0.000,0
2026-01-31 00:18:18,1608934,2920.000,837.000,8040.000,-557.000,-621.000,971.000,0.000,0.000,1
2026-01-31 00:18:18,1608974,-1473.000,1913.000,8872.000,-632.000,441.000,100.000,0.000,0.000,1
2026-01-31 00:18:18,1609014,2495.000,696.000,7979.000,-728.000,-519.000,605.000,0.000,0.000,0
2026-01-31 00:18:18,1609056,169.000,1772.000,8772.000,-433.000,223.000,370.000,0.000,0.000,0
2026-01-31 00:18:18,1609094,-982.000,1676.000,9028.000,-467.000,529.000,423.000,0.000,0.000,0
2026-01-31 00:18:18,1609134,1991.000,908.000,8254.000,-565.000,-129.000,803.000,0.000,0.000,0
2026-01-31 00:18:18,1609174,-2378.000,1258.000,9149.000,-432.000,461.000,-116.000,0.000,0.000,0
2026-01-31 00:18:18,1609214,2135.000,886.000,8596.000,-585.000,-900.000,856.000,0.000,0.000,0
2026-01-31 00:18:18,1609254,549.000,1848.000,8184.000,-8.000,-237.000,49.000,0.000,0.000,0
2026-01-31 00:18:18,1609294,591.000,932.000,8110.000,-1208.000,-465.000,343.000,0.000,0.000,0
2026-01-31 00:18:18,1609334,1405.000,1577.000,8494.000,-6.000,-649.000,303.000,0.000,0.000,0
2026-01-31 00:18:18,1609374,916.000,1073.000,8258.000,-696.000,-165.000,130.000,0.000,0.000,0
2026-01-31 00:18:18,1609414,-649.000,877.000,8431.000,-344.000,-98.000,-277.000,0.000,0.000,0
2026-01-31 00:18:18,1609454,2367.000,1022.000,7785.000,-791.000,-1128.000,402.000,0.000,0.000,0
2026-01-31 00:18:18,1609494,828.000,906.000,7564.000,-446.000,-204.000,-403.000,0.000,0.000,0
2026-01-31 00:18:18,1609534,-566.000,1337.000,9330.000,-723.000,143.000,-485.000,0.000,0.000,0
2026-01-31 00:18:18,1609574,3868.000,1008.000,7332.000,-624.000,-769.000,507.000,0.000,0.000,0
2026-01-31 00:18:18,1609614,-358.000,1045.000,8507.000,-203.000,484.000,-510.000,0.000,0.000,0
2026-01-31 00:18:18,1609654,1338.000,714.000,8279.000,-509.000,-8.000,-132.000,0.000,0.000,0
2026-01-31 00:18:18,1609694,1702.000,1148.000,7616.000,-286.000,-85.000,-127.000,0.000,0.000,0
2026-01-31 00:18:18,1609734,619.000,582.000,8548.000,-421.000,109.000,-499.000,0.000,0.000,0
2026-01-31 00:18:18,1609774,574.000,366.000,6842.000,-221.000,235.000,-528.000,0.000,0.000,0
2026-01-31 00:18:19,1609814,-576.000,1640.000,9440.000,-287.000,158.000,-790.000,0.000,0.000,0
2026-01-31 00:18:19,1609854,3738.000,-149.000,7217.000,-393.000,-589.000,312.000,0.000,0.000,0
2026-01-31 00:18:19,1609894,-1213.000,1376.000,9245.000,139.000,636.000,-1118.000,0.000,0.000,0
2026-01-31 00:18:19,1609934,1768.000,3.000,8246.000,-587.000,-198.000,-138.000,0.000,0.000,1
2026-01-31 00:18:19,1609974,-701.000,994.000,8157.000,-235.000,78.000,-654.000,0.000,0.000,1
2026-01-31 00:18:19,1610014,985.000,727.000,8250.000,-26.000,-859.000,-64.000,0.000,0.000,0
2026-01-31 00:18:19,1610054,3187.000,756.000,8234.000,23.000,-447.000,-34.000,0.000,0.000,0
2026-01-31 00:18:19,1610094,-249.000,1263.000,8991.000,249.000,692.000,-891.000,0.000,0.000,0
2026-01-31 00:18:19,1610134,1723.000,606.000,8559.000,188.000,25.000,-262.000,0.000,0.000,0
