datetime_local,uptime_ms,acc_x,acc_y,acc_z,gyro_x,gyro_y,gyro_z,speed_mps,turn_rate_deg_s,gps_valid
2026-01-30 23:17:28,1073134,-1092.000,-1949.000,8036.000,269.000,122.000,-355.000,0.000,0.000,0
2026-01-30 23:17:28,1073174,-711.000,-1778.000,8073.000,172.000,148.000,-350.000,0.000,0.000,0
2026-01-30 23:17:29,1073214,-871.000,-1999.000,8296.000,-356.000,337.000,-188.000,0.000,0.000,0
2026-01-30 23:17:29,1073254,-886.000,-2177.000,8088.000,-238.000,183.000,-217.000,0.000,0.000,0
2026-01-30 23:17:29,1073295,-743.000,-1777.000,8007.000,47.000,80.000,-210.000,0.000,0.000,0
2026-01-30 23:17:29,1073334,-770.000,-2059.000,8080.000,-134.000,138.000,-92.000,0.000,0.000,0
2026-01-30 23:17:29,1073374,-853.000,-1914.000,8122.000,25.000,52.000,-131.000,0.000,0.000,0
2026-01-30 23:17:29,1073414,-883.000,-1990.000,7991.000,189.000,-25.000,-75.000,0.000,0.000,0
2026-01-30 23:17:29,1073454,-835.000,-1793.000,8072.000,186.000,-91.000,-105.000,0.000,0.000,0
2026-01-30 23:17:29,1073494,-790.000,-1942.000,8037.000,-32.000,-100.000,-76.000,0.000,0.000,0
2026-01-30 23:17:29,1073534,-831.000,-1990.000,7888.000,69.000,-91.000,-119.000,0.000,0.000,0
2026-01-30 23:17:29,1073574,-800.000,-1982.000,7599.000,295.000,-203.000,-221.000,0.000,0.000,0
2026-01-30 23:17:29,1073614,-688.000,-2679.000,6935.000,699.000,-366.000,-351.000,0.000,0.000,0
2026-01-30 23:17:29,1073654,-374.000,-3864.000,3957.000,2106.000,-1413.000,-1473.000,0.000,0.000,0
2026-01-30 23:17:29,1073694,-821.000,-3354.000,2780.000,5460.000,-1461.000,1215.000,0.000,0.000,0
2026-01-30 23:17:29,1073734,-1142.000,-2944.000,2253.000,8931.000,-3262.000,2209.000,0.000,0.000,0
2026-01-30 23:17:29,1073774,313.000,1101.000,6916.000,12133.000,-5525.000,4288.000,0.000,0.000,0
2026-01-30 23:17:29,1073814,1897.000,2132.000,9792.000,5596.000,-5782.000,7213.000,0.000,0.000,0
2026-01-30 23:17:29,1073854,-38.000,840.000,9700.000,3597.000,-5978.000,7666.000,0.000,0.000,0
2026-01-30 23:17:29,1073894,2019.000,2184.000,9306.000,5469.000,-6075.000,6324.000,0.000,0.000,0
2026-01-30 23:17:29,1073934,1366.000,4714.000,9258.000,6228.000,-4782.000,5038.000,0.000,0.000,0
2026-01-30 23:17:29,1073974,2969.000,4753.000,8733.000,3947.000,-4026.000,4591.000,0.000,0.000,0
2026-01-30 23:17:29,1074014,2693.000,3661.000,6814.000,3373.000,-3771.000,3517.000,0.000,0.000,0
2026-01-30 23:17:29,1074054,4349.000,3174.000,6194.000,236.000,-3331.000,2200.000,0.000,0.000,0
2026-01-30 23:17:29,1074094,5640.000,2190.000,6146.000,193.000,-3705.000,1723.000,0.000,0.000,0
2026-01-30 23:17:29,1074134,7291.000,2799.000,4573.000,1459.000,-3757.000,1175.000,0.000,0.000,0
2026-01-30 23:17:29,1074174,8557.000,3621.000,5077.000,-1381.000,-1772.000,187.000,0.000,0.000,0
2026-01-30 23:17:30,1074214,8750.000,1192.000,6934.000,-1941.000,2339.000,-1113.000,0.000,0.000,0
2026-01-30 23:17:30,1074254,7531.000,2522.000,4443.000,-2109.000,3961.000,-1221.000,0.000,0.000,0
2026-01-30 23:17:30,1074294,4307.000,320.000,10233.000,-906.000,4043.000,-1012.000,0.000,0.000,0
2026-01-30 23:17:30,1074334,3206.000,3990.000,14304.000,-2465.000,3411.000,-4096.000,0.000,0.000,0
2026-01-30 23:17:30,1074374,2831.000,3299.000,6386.000,-4480.000,2109.000,-3015.000,0.000,0.000,0
2026-01-30 23:17:30,1074414,3357.000,2394.000,11717.000,733.000,2137.000,-2324.000,0.000,0.000,0
2026-01-30 23:17:30,1074454,2138.000,1116.000,8173.000,-150.000,3791.000,1374.000,0.000,0.000,0
2026-01-30 23:17:30,1074494,2078.000,2844.000,7685.000,457.000,3281.000,2897.000,0.000,0.000,0
2026-01-30 23:17:30,1074534,2140.000,3123.000,9091.000,143.000,3302.000,3332.000,0.000,0.000,0
2026-01-30 23:17:30,1074574,3282.000,2739.000,8149.000,4147.000,226.000,4302.000,0.000,0.000,0
2026-01-30 23:17:30,1074614,1955.000,1879.000,10858.000,9158.000,-2186.000,5637.000,0.000,0.000,0
2026-01-30 23:17:30,1074654,-1301.000,3911.000,5457.000,7811.000,-1830.000,3524.000,0.000,0.000,0
2026-01-30 23:17:30,1074694,-1637.000,-2607.000,8050.000,-3858.000,-99.000,-414.000,0.000,0.000,0
2026-01-30 23:17:30,1074734,1918.000,2051.000,14283.000,-5266.000,848.000,-69.000,0.000,0.000,0
2026-01-30 23:17:30,1074774,-467.000,1314.000,8554.000,148.000,571.000,2401.000,0.000,0.000,0
2026-01-30 23:17:30,1074814,3293.000,-2099.000,7455.000,-1997.000,1062.000,2849.000,0.000,0.000,0
2026-01-30 23:17:30,1074857,3073.000,-564.000,8942.000,-3300.000,333.000,2429.000,0.000,0.000,0
2026-01-30 23:17:30,1074894,6033.000,3028.000,5380.000,-2715.000,-186.000,2109.000,0.000,0.000,0
2026-01-30 23:17:30,1074934,3649.000,1142.000,7894.000,-3061.000,-717.000,1631.000,0.000,0.000,0
2026-01-30 23:17:30,1074974,1586.000,551.000,6851.000,-2667.000,-2111.000,1801.000,0.000,0.000,0
2026-01-30 23:17:30,1075014,4466.000,3869.000,9208.000,-3731.000,-2182.000,1025.000,0.000,0.000,0
2026-01-30 23:17:30,1075054,4169.000,2292.000,5673.000,-3305.000,-2198.000,633.000,0.000,0.000,0
2026-01-30 23:17:30,1075094,5095.000,1724.000,6960.000,-3799.000,-1305.000,360.000,0.000,0.000,0
2026-01-30 23:17:30,1075134,6319.000,479.000,3523.000,-4217.000,-1018.000,-886.000,0.000,0.000,0
2026-01-30 23:17:30,1075174,4774.000,-1383.000,8672.000,-5345.000,169.000,-1079.000,0.000,0.000,0
2026-01-30 23:17:31,1075214,3899.000,-1278.000,3999.000,-3336.000,-393.000,-693.000,0.000,0.000,0
2026-01-30 23:17:31,1075254,3950.000,-604.000,7782.000,-3877.000,-968.000,-209.000,0.000,0.000,0
2026-01-30 23:17:31,1075294,4699.000,-1499.000,6973.000,-2162.000,-1503.000,-21.000,0.000,0.000,0
2026-01-30 23:17:31,1075334,4200.000,-2246.000,5088.000,-1240.000,-2261.000,-117.000,0.000,0.000,0
2026-01-30 23:17:31,1075374,5740.000,-778.000,5787.000,-2976.000,-1432.000,-755.000,0.000,0.000,0
2026-01-30 23:17:31,1075414,7605.000,340.000,3276.000,-1764.000,-510.000,-1161.000,0.000,0.000,0
2026-01-30 23:17:31,1075454,4412.000,-551.000,3139.000,1235.000,86.000,-1266.000,0.000,0.000,0
2026-01-30 23:17:31,1075494,9365.000,-6509.000,-5914.000,831.000,3758.000,239.000,0.000,0.000,0
2026-01-30 23:17:31,1075534,6075.000,3448.000,11325.000,3291.000,1771.000,-2452.000,0.000,0.000,0
2026-01-30 23:17:31,1075574,4219.000,-2935.000,3231.000,6868.000,-646.000,97.000,0.000,0.000,0
2026-01-30 23:17:31,1075614,4094.000,-1916.000,8663.000,4637.000,266.000,-528.000,0.000,0.000,0
2026-01-30 23:17:31,1075654,4206.000,-2745.000,9971.000,3760.000,-98.000,-771.000,0.000,0.000,0
2026-01-30 23:17:31,1075694,3864.000,-1884.000,11585.000,3800.000,-534.000,-746.000,0.000,0.000,0
2026-01-30 23:17:31,1075734,3354.000,-139.000,4829.000,3708.000,-71.000,794.000,0.000,0.000,0
2026-01-30 23:17:31,1075774,7087.000,5298.000,6889.000,8247.000,-449.000,1863.000,0.000,0.000,0
2026-01-30 23:17:31,1075814,4580.000,3541.000,3676.000,3617.000,1657.000,2333.000,0.000,0.000,0
2026-01-30 23:17:31,1075854,2549.000,1684.000,4561.000,4175.000,1627.000,3622.000,0.000,0.000,0
2026-01-30 23:17:31,1075894,5754.000,-3818.000,10075.000,2494.000,183.000,3095.000,0.000,0.000,0
2026-01-30 23:17:31,1075934,4354.000,-427.000,5591.000,4172.000,-47.000,837.000,0.000,0.000,0
2026-01-30 23:17:31,1075974,6649.000,2629.000,7244.000,3160.000,-854.000,880.000,0.000,0.000,0
2026-01-30 23:17:31,1076014,3764.000,2362.000,4575.000,3013.000,1043.000,1482.000,0.000,0.000,0
2026-01-30 23:17:31,1076054,4394.000,1893.000,7798.000,2204.000,1052.000,722.000,0.000,0.000,0
2026-01-30 23:17:31,1076094,5278.000,968.000,7350.000,2440.000,1273.000,997.000,0.000,0.000,0
2026-01-30 23:17:31,1076134,3212.000,3152.000,7990.000,1986.000,1288.000,742.000,0.000,0.000,0
2026-01-30 23:17:31,1076174,3187.000,1867.000,7379.000,978.000,1282.000,939.000,0.000,0.000,0
2026-01-30 23:17:32,1076214,3256.000,3202.000,7811.000,1026.000,839.000,613.000,0.000,0.000,0
2026-01-30 23:17:32,1076254,3646.000,827.000,7973.000,-325.000,1135.000,1152.000,0.000,0.000,0
2026-01-30 23:17:32,1076294,2533.000,2338.000,9020.000,-303.000,1570.000,533.000,0.000,0.000,0
2026-01-30 23:17:32,1076334,3752.000,3100.000,5954.000,-204.000,955.000,1176.000,0.000,0.000,0
2026-01-30 23:17:32,1076374,6272.000,2027.000,6329.000,-64.000,924.000,1289.000,0.000,0.000,0
2026-01-30 23:17:32,1076414,3612.000,1723.000,4736.000,1791.000,2677.000,1102.000,0.000,0.000,0
2026-01-30 23:17:32,1076454,3636.000,3537.000,8407.000,2788.000,2189.000,338.000,0.000,0.000,0
2026-01-30 23:17:32,1076494,1887.000,1060.000,8116.000,270.000,2708.000,-131.000,0.000,0.000,0
2026-01-30 23:17:32,1076534,820.000,2053.000,7468.000,-449.000,2520.000,-577.000,0.000,0.000,0
2026-01-30 23:17:32,1076574,2043.000,2382.000,8417.000,-714.000,1997.000,72.000,0.000,0.000,0
2026-01-30 23:17:32,1076614,1594.000,1265.000,8673.000,-1124.000,1956.000,-361.000,0.000,0.000,0
2026-01-30 23:17:32,1076654,2960.000,2214.000,5917.000,-1165.000,1701.000,-71.000,0.000,0.000,0
2026-01-30 23:17:32,1076694,-1534.000,2851.000,10273.000,-1621.000,2536.000,-329.000,0.000,0.000,0
2026-01-30 23:17:32,1076734,1316.000,891.000,5940.000,-1562.000,3066.000,-91.000,0.000,0.000,0
2026-01-30 23:17:32,1076774,1582.000,1342.000,7425.000,-1291.000,2419.000,-586.000,0.000,0.000,0
2026-01-30 23:17:32,1076814,2014.000,2238.000,9816.000,-77.000,2352.000,-85.000,0.000,0.000,0
2026-01-30 23:17:32,1076857,3473.000,1272.000,8404.000,240.000,1299.000,289.000,0.000,0.000,0
2026-01-30 23:17:32,1076897,3028.000,1807.000,6295.000,1111.000,830.000,787.000,0.000,0.000,0
2026-01-30 23:17:32,1076934,3531.000,2736.000,8837.000,1187.000,770.000,375.000,0.000,0.000,0
2026-01-30 23:17:32,1076974,-1016.000,-349.000,7213.000,663.000,1492.000,1143.000,0.000,0.000,0
2026-01-30 23:17:32,1077014,809.000,129.000,10646.000,798.000,5.000,691.000,0.000,0.000,0
2026-01-30 23:17:32,1077054,-2785.000,5167.000,10434.000,1197.000,271.000,944.000,0.000,0.000,0
2026-01-30 23:17:32,1077094,2902.000,3158.000,6880.000,-69.000,-1268.000,1344.000,0.000,0.000,0
2026-01-30 23:17:32,1077137,2302.000,-141.000,8079.000,-1607.000,-1120.000,1272.000,0.000,0.000,0
2026-01-30 23:17:32,1077174,1307.000,2281.000,8978.000,-1113.000,-297.000,910.000,0.000,0.000,0
2026-01-30 23:17:33,1077214,572.000,510.000,7563.000,-228.000,-315.000,1046.000,0.000,0.000,0
2026-01-30 23:17:33,1077254,2389.000,386.000,7912.000,-1576.000,-227.000,280.000,0.000,0.000,0
2026-01-30 23:17:33,1077294,-1694.000,282.000,6324.000,-1315.000,202.000,314.000,0.000,0.000,0
2026-01-30 23:17:33,1077334,2895.000,2274.000,13465.000,410.000,-2186.000,40.000,0.000,0.000,0
2026-01-30 23:17:33,1077374,1590.000,4788.000,4825.000,-864.000,-2527.000,555.000,0.000,0.000,0
2026-01-30 23:17:33,1077414,4386.000,-1262.000,5042.000,-48.000,-2487.000,392.000,0.000,0.000,0
2026-01-30 23:17:33,1077454,1856.000,1652.000,6661.000,-565.000,-868.000,-1207.000,0.000,0.000,0
2026-01-30 23:17:33,1077494,3080.000,2713.000,8606.000,-297.000,-2015.000,-670.000,0.000,0.000,0
2026-01-30 23:17:33,1077534,3168.000,1784.000,8864.000,-955.000,-2593.000,-116.000,0.000,0.000,0
2026-01-30 23:17:33,1077574,2275.000,1426.000,6332.000,-470.000,-2641.000,243.000,0.000,0.000,0
2026-01-30 23:17:33,1077614,5132.000,1712.000,9457.000,-953.000,-3011.000,801.000,0.000,0.000,0
2026-01-30 23:17:33,1077654,2894.000,759.000,6159.000,477.000,-3268.000,1207.000,0.000,0.000,0
2026-01-30 23:17:33,1077694,5433.000,1052.000,7789.000,-778.000,-3158.000,2152.000,0.000,0.000,0
2026-01-30 23:17:33,1077734,3093.000,-157.000,5068.000,848.000,-3418.000,1692.000,0.000,0.000,0
2026-01-30 23:17:33,1077774,4670.000,-113.000,6813.000,227.000,-2492.000,2341.000,0.000,0.000,0
2026-01-30 23:17:33,1077814,5573.000,464.000,4828.000,1026.000,-2135.000,2257.000,0.000,0.000,0
2026-01-30 23:17:33,1077854,4906.000,1094.000,7051.000,881.000,-1722.000,1693.000,0.000,0.000,0
2026-01-30 23:17:33,1077894,4820.000,379.000,5357.000,534.000,-1185.000,1486.000,0.000,0.000,0
2026-01-30 23:17:33,1077934,5806.000,559.000,7445.000,-475.000,-110.000,1634.000,0.000,0.000,0
2026-01-30 23:17:33,1077974,3779.000,-519.000,5619.000,-10.000,-101.000,1099.000,0.000,0.000,0
2026-01-30 23:17:33,1078014,5612.000,1066.000,8836.000,-745.000,239.000,1372.000,0.000,0.000,0
2026-01-30 23:17:33,1078054,5017.000,546.000,6677.000,-575.000,53.000,1000.000,0.000,0.000,0
2026-01-30 23:17:33,1078094,4078.000,1278.000,7175.000,-249.000,764.000,367.000,0.000,0.000,0
2026-01-30 23:17:33,1078134,5115.000,719.000,7304.000,-857.000,697.000,574.000,0.000,0.000,0
2026-01-30 23:17:33,1078174,4658.000,224.000,5350.000,29.000,891.000,202.000,0.000,0.000,0
2026-01-30 23:17:34,1078214,6187.000,-131.000,6349.000,659.000,1939.000,-313.000,0.000,0.000,0
2026-01-30 23:17:34,1078254,4552.000,2.000,4378.000,2397.000,2840.000,-467.000,0.000,0.000,0
2026-01-30 23:17:34,1078294,4006.000,-78.000,6839.000,1103.000,2965.000,-1.000,0.000,0.000,0
2026-01-30 23:17:34,1078334,4628.000,-599.000,9495.000,5.000,1910.000,527.000,0.000,0.000,0
2026-01-30 23:17:34,1078374,1416.000,-582.000,6275.000,-38.000,1880.000,-1083.000,0.000,0.000,0
2026-01-30 23:17:34,1078414,4166.000,1307.000,9819.000,-344.000,1077.000,-699.000,0.000,0.000,0
2026-01-30 23:17:34,1078454,4712.000,1660.000,6988.000,-209.000,852.000,-666.000,0.000,0.000,0
2026-01-30 23:17:34,1078494,3065.000,1054.000,6682.000,-636.000,1900.000,-564.000,0.000,0.000,0
2026-01-30 23:17:34,1078534,3929.000,-482.000,8136.000,-780.000,1596.000,133.000,0.000,0.000,0
2026-01-30 23:17:34,1078574,1736.000,208.000,8174.000,12.000,891.000,-376.000,0.000,0.000,0
2026-01-30 23:17:34,1078614,4057.000,942.000,8134.000,503.000,-190.000,-189.000,0.000,0.000,0
2026-01-30 23:17:34,1078654,1329.000,111.000,7181.000,-164.000,-207.000,-296.000,0.000,0.000,0
2026-01-30 23:17:34,1078694,3575.000,1137.000,8879.000,-296.000,120.000,-317.000,0.000,0.000,0
2026-01-30 23:17:34,1078734,481.000,1134.000,8818.000,-178.000,168.000,-400.000,0.000,0.000,0
2026-01-30 23:17:34,1078774,2214.000,-1069.000,8658.000,-983.000,207.000,-60.000,0.000,0.000,0
2026-01-30 23:17:34,1078814,3839.000,1593.000,7449.000,-182.000,-242.000,-538.000,0.000,0.000,0
2026-01-30 23:17:34,1078854,1915.000,-437.000,7478.000,-1153.000,-119.000,-543.000,0.000,0.000,0
2026-01-30 23:17:34,1078894,3208.000,1723.000,9798.000,-1169.000,-234.000,-612.000,0.000,0.000,0
2026-01-30 23:17:34,1078934,882.000,1078.000,7991.000,-884.000,-503.000,-523.000,0.000,0.000,0
2026-01-30 23:17:34,1078974,3601.000,232.000,7938.000,-1425.000,-511.000,-260.000,0.000,0.000,0
2026-01-30 23:17:34,1079014,1179.000,-553.000,7091.000,-1023.000,-1397.000,-548.000,0.000,0.000,0
2026-01-30 23:17:34,1079054,5192.000,541.000,7486.000,-1247.000,-1455.000,-518.000,0.000,0.000,0
2026-01-30 23:17:34,1079094,2822.000,131.000,7294.000,-710.000,-1214.000,-440.000,0.000,0.000,0
2026-01-30 23:17:34,1079137,4721.000,546.000,6144.000,-969.000,-2215.000,-548.000,0.000,0.000,0
2026-01-30 23:17:34,1079174,6027.000,615.000,5365.000,-789.000,-1878.000,-540.000,0.000,0.000,0
2026-01-30 23:17:35,1079214,4990.000,-618.000,7107.000,76.000,-904.000,109.000,0.000,0.000,0
2026-01-30 23:17:35,1079254,5344.000,-481.000,5698.000,431.000,-1082.000,110.000,0.000,0.000,0
2026-01-30 23:17:35,1079294,5426.000,-616.000,6616.000,1389.000,-563.000,38.000,0.000,0.000,0
2026-01-30 23:17:35,1079334,5360.000,-794.000,6819.000,674.000,-899.000,32.000,0.000,0.000,0
2026-01-30 23:17:35,1079374,4155.000,-145.000,6670.000,1557.000,16.000,-121.000,0.000,0.000,0
2026-01-30 23:17:35,1079414,3968.000,-267.000,6701.000,1446.000,772.000,451.000,0.000,0.000,0
2026-01-30 23:17:35,1079454,5581.000,-470.000,7559.000,1492.000,1435.000,683.000,0.000,0.000,0
2026-01-30 23:17:35,1079494,3686.000,739.000,9681.000,1878.000,1550.000,157.000,0.000,0.000,0
2026-01-30 23:17:35,1079534,2301.000,-139.000,8802.000,737.000,1482.000,-311.000,0.000,0.000,0
2026-01-30 23:17:35,1079574,2393.000,1186.000,10019.000,292.000,1563.000,22.000,0.000,0.000,0
2026-01-30 23:17:35,1079614,688.000,1299.000,8471.000,-1007.000,1324.000,-410.000,0.000,0.000,0
2026-01-30 23:17:35,1079654,3764.000,1262.000,9294.000,-1343.000,1241.000,-309.000,0.000,0.000,0
2026-01-30 23:17:35,1079694,1732.000,3064.000,6387.000,-1589.000,1330.000,-561.000,0.000,0.000,0
2026-01-30 23:17:35,1079734,4978.000,-860.000,6502.000,-1724.000,999.000,79.000,0.000,0.000,0
2026-01-30 23:17:35,1079774,4044.000,-853.000,7609.000,-1003.000,822.000,-715.000,0.000,0.000,0
2026-01-30 23:17:35,1079814,2834.000,410.000,7632.000,-846.000,1090.000,-1051.000,0.000,0.000,0
2026-01-30 23:17:35,1079854,2993.000,-255.000,7207.000,-1150.000,838.000,-869.000,0.000,0.000,0
2026-01-30 23:17:35,1079894,1741.000,593.000,8010.000,-539.000,1013.000,-733.000,0.000,0.000,0
2026-01-30 23:17:35,1079934,2754.000,-375.000,7916.000,-685.000,710.000,-845.000,0.000,0.000,0
2026-01-30 23:17:35,1079974,2488.000,620.000,8236.000,-181.000,1029.000,-1013.000,0.000,0.000,0
2026-01-30 23:17:35,1080014,2627.000,-920.000,8013.000,-259.000,843.000,-946.000,0.000,0.000,0
2026-01-30 23:17:35,1080054,1576.000,-791.000,7052.000,234.000,300.000,-834.000,0.000,0.000,0
2026-01-30 23:17:35,1080094,1961.000,-509.000,8356.000,903.000,-136.000,-795.000,0.000,0.000,0
2026-01-30 23:17:35,1080134,2509.000,-504.000,7389.000,1110.000,-552.000,-479.000,0.000,0.000,0
2026-01-30 23:17:35,1080174,5457.000,1034.000,8295.000,1237.000,-774.000,-278.000,0.000,0.000,0
2026-01-30 23:17:36,1080214,1258.000,437.000,8088.000,716.000,47.000,-290.000,0.000,0.000,0
2026-01-30 23:17:36,1080254,2176.000,-547.000,7268.000,519.000,321.000,-95.000,0.000,0.000,0
2026-01-30 23:17:36,1080294,3928.000,1607.000,9897.000,1247.000,143.000,-208.000,0.000,0.000,0
2026-01-30 23:17:36,1080334,2878.000,125.000,7560.000,600.000,-279.000,-5.000,0.000,0.000,0
2026-01-30 23:17:36,1080374,2814.000,210.000,7927.000,331.000,-582.000,-239.000,0.000,0.000,0
2026-01-30 23:17:36,1080414,2286.000,146.000,6812.000,306.000,-770.000,-509.000,0.000,0.000,0
2026-01-30 23:17:36,1080454,4038.000,1196.000,9559.000,-817.000,-972.000,-552.000,0.000,0.000,0
2026-01-30 23:17:36,1080494,885.000,146.000,7453.000,-950.000,-1290.000,-566.000,0.000,0.000,0
2026-01-30 23:17:36,1080534,2379.000,837.000,9249.000,-2017.000,-1992.000,-291.000,0.000,0.000,0
2026-01-30 23:17:36,1080574,2810.000,1172.000,6206.000,-1782.000,-2235.000,-33.000,0.000,0.000,0
2026-01-30 23:17:36,1080614,1783.000,382.000,8018.000,-2143.000,-2290.000,374.000,0.000,0.000,0
2026-01-30 23:17:36,1080654,6957.000,241.000,4481.000,-1692.000,-2944.000,1172.000,0.000,0.000,0
2026-01-30 23:17:36,1080694,7826.000,3519.000,7007.000,-742.000,-768.000,358.000,0.000,0.000,0
2026-01-30 23:17:36,1080734,3424.000,-1096.000,6776.000,-278.000,-1374.000,325.000,0.000,0.000,0
2026-01-30 23:17:36,1080774,4963.000,-795.000,7373.000,-1141.000,-1411.000,181.000,0.000,0.000,0
2026-01-30 23:17:36,1080814,9454.000,-1732.000,5522.000,-3216.000,563.000,-822.000,0.000,0.000,0
2026-01-30 23:17:36,1080854,254.000,3352.000,4241.000,3801.000,-1718.000,-569.000,0.000,0.000,0
2026-01-30 23:17:36,1080894,6513.000,1755.000,5951.000,-1916.000,-156.000,985.000,0.000,0.000,0
2026-01-30 23:17:36,1080934,5790.000,-2348.000,7393.000,-432.000,805.000,177.000,0.000,0.000,0
2026-01-30 23:17:36,1080974,3447.000,4579.000,5496.000,3226.000,-1657.000,83.000,0.000,0.000,0
2026-01-30 23:17:36,1081014,2967.000,-394.000,6374.000,-610.000,-884.000,704.000,0.000,0.000,0
2026-01-30 23:17:36,1081054,9417.000,-1514.000,7619.000,-2028.000,1134.000,626.000,0.000,0.000,0
2026-01-30 23:17:36,1081094,-2287.000,-512.000,6765.000,2562.000,771.000,-896.000,0.000,0.000,0
2026-01-30 23:17:36,1081137,4012.000,-708.000,7509.000,-1297.000,10.000,106.000,0.000,0.000,0
2026-01-30 23:17:36,1081174,3794.000,1076.000,7434.000,-117.000,-399.000,-97.000,0.000,0.000,0
2026-01-30 23:17:37,1081214,4813.000,-541.000,6390.000,544.000,-630.000,203.000,0.000,0.000,0
2026-01-30 23:17:37,1081254,1411.000,-432.000,10879.000,1612.000,186.000,-244.000,0.000,0.000,0
2026-01-30 23:17:37,1081294,5053.000,1161.000,7201.000,1199.000,348.000,-1170.000,0.000,0.000,0
2026-01-30 23:17:37,1081334,4253.000,-114.000,9537.000,981.000,-176.000,-208.000,0.000,0.000,0
2026-01-30 23:17:37,1081374,5104.000,1156.000,9419.000,130.000,-472.000,-797.000,0.000,0.000,0
2026-01-30 23:17:37,1081414,3479.000,1460.000,7465.000,89.000,-1228.000,-329.000,0.000,0.000,0
2026-01-30 23:17:37,1081454,2617.000,277.000,7455.000,104.000,-1013.000,-653.000,0.000,0.000,0
2026-01-30 23:17:37,1081494,726.000,507.000,9151.000,1048.000,-314.000,-391.000,0.000,0.000,0
2026-01-30 23:17:37,1081534,7878.000,-2025.000,4485.000,277.000,590.000,345.000,0.000,0.000,0
2026-01-30 23:17:37,1081574,5730.000,-406.000,6406.000,1196.000,935.000,-454.000,0.000,0.000,0
2026-01-30 23:17:37,1081614,4087.000,1563.000,6310.000,1671.000,-329.000,-702.000,0.000,0.000,0
2026-01-30 23:17:37,1081654,4328.000,-86.000,7335.000,783.000,-463.000,441.000,0.000,0.000,0
2026-01-30 23:17:37,1081694,5881.000,-64.000,8489.000,-1215.000,735.000,-148.000,0.000,0.000,0
2026-01-30 23:17:37,1081734,2563.000,875.000,7708.000,-743.000,192.000,-1090.000,0.000,0.000,0
2026-01-30 23:17:37,1081774,3479.000,252.000,8645.000,-2416.000,-145.000,-482.000,0.000,0.000,0
2026-01-30 23:17:37,1081814,5864.000,1540.000,7283.000,-3419.000,617.000,-736.000,0.000,0.000,0
2026-01-30 23:17:37,1081854,45.000,-903.000,11097.000,-3579.000,1209.000,-967.000,0.000,0.000,0
2026-01-30 23:17:37,1081894,4240.000,1214.000,7253.000,-3258.000,349.000,-1186.000,0.000,0.000,0
2026-01-30 23:17:37,1081934,4143.000,572.000,7471.000,-3162.000,264.000,-1222.000,0.000,0.000,0
2026-01-30 23:17:37,1081974,4217.000,-134.000,5098.000,-2224.000,293.000,-1575.000,0.000,0.000,0
2026-01-30 23:17:37,1082014,6404.000,-444.000,4924.000,-1038.000,546.000,-1289.000,0.000,0.000,0
2026-01-30 23:17:37,1082054,7659.000,-1613.000,5685.000,239.000,1090.000,-194.000,0.000,0.000,0
2026-01-30 23:17:37,1082094,4063.000,123.000,6662.000,2115.000,441.000,-364.000,0.000,0.000,0
2026-01-30 23:17:37,1082134,5273.000,-1200.000,5254.000,1334.000,-320.000,4.000,0.000,0.000,0
2026-01-30 23:17:37,1082174,6251.000,-1640.000,5190.000,3045.000,359.000,89.000,0.000,0.000,0
2026-01-30 23:17:38,1082214,5972.000,-310.000,6712.000,4269.000,598.000,-170.000,0.000,0.000,0
2026-01-30 23:17:38,1082254,4485.000,-1478.000,6148.000,3212.000,249.000,20.000,0.000,0.000,0
2026-01-30 23:17:38,1082294,4338.000,-829.000,6956.000,3369.000,417.000,367.000,0.000,0.000,0
2026-01-30 23:17:38,1082334,5247.000,1607.000,8603.000,2747.000,1087.000,247.000,0.000,0.000,0
2026-01-30 23:17:38,1082374,-1249.000,19.000,9577.000,1589.000,1363.000,164.000,0.000,0.000,0
2026-01-30 23:17:38,1082414,3144.000,1175.000,7306.000,1595.000,1136.000,591.000,0.000,0.000,0
2026-01-30 23:17:38,1082454,4023.000,2581.000,9638.000,-28.000,1713.000,-3.000,0.000,0.000,0
2026-01-30 23:17:38,1082494,-1299.000,46.000,6956.000,-1454.000,2158.000,-18.000,0.000,0.000,0
2026-01-30 23:17:38,1082534,3983.000,1020.000,9238.000,-892.000,880.000,29.000,0.000,0.000,0
2026-01-30 23:17:38,1082574,1088.000,620.000,8011.000,-1334.000,951.000,29.000,0.000,0.000,0
2026-01-30 23:17:38,1082614,2925.000,-56.000,8125.000,-2036.000,731.000,-216.000,0.000,0.000,0
2026-01-30 23:17:38,1082654,1440.000,2012.000,8881.000,-1570.000,-104.000,-698.000,0.000,0.000,0
2026-01-30 23:17:38,1082694,2209.000,761.000,6287.000,-2746.000,189.000,-490.000,0.000,0.000,0
2026-01-30 23:17:38,1082734,2842.000,2030.000,8917.000,-1944.000,31.000,-1125.000,0.000,0.000,0
2026-01-30 23:17:38,1082774,2886.000,558.000,6765.000,-2200.000,43.000,-1115.000,0.000,0.000,0
2026-01-30 23:17:38,1082814,4240.000,-1888.000,7678.000,-1557.000,-759.000,-757.000,0.000,0.000,0
2026-01-30 23:17:38,1082857,-316.000,-258.000,7165.000,-978.000,590.000,-1296.000,0.000,0.000,0
2026-01-30 23:17:38,1082894,3486.000,88.000,6633.000,-257.000,-748.000,-710.000,0.000,0.000,0
2026-01-30 23:17:38,1082934,3703.000,-134.000,7427.000,202.000,-711.000,-772.000,0.000,0.000,0
2026-01-30 23:17:38,1082974,3528.000,-896.000,6173.000,300.000,-651.000,-711.000,0.000,0.000,0
2026-01-30 23:17:38,1083014,3282.000,14.000,7186.000,1480.000,-1404.000,-656.000,0.000,0.000,0
2026-01-30 23:17:38,1083054,5816.000,-85.000,8068.000,734.000,-1565.000,50.000,0.000,0.000,0
2026-01-30 23:17:38,1083094,4643.000,573.000,6502.000,792.000,-1037.000,-349.000,0.000,0.000,0
2026-01-30 23:17:38,1083137,5164.000,-319.000,8175.000,1112.000,-1839.000,1222.000,0.000,0.000,0
2026-01-30 23:17:38,1083174,5357.000,-823.000,5857.000,410.000,-2975.000,959.000,0.000,0.000,0
2026-01-30 23:17:39,1083214,2677.000,-321.000,10271.000,-671.000,-2662.000,193.000,0.000,0.000,0
2026-01-30 23:17:39,1083254,4655.000,1825.000,6954.000,-364.000,-3198.000,845.000,0.000,0.000,0
2026-01-30 23:17:39,1083294,4638.000,-118.000,6552.000,-1146.000,-1736.000,1538.000,0.000,0.000,0
2026-01-30 23:17:39,1083334,2630.000,-495.000,9394.000,-1281.000,-325.000,1673.000,0.000,0.000,0
2026-01-30 23:17:39,1083374,4528.000,32.000,7952.000,-1280.000,328.000,1382.000,0.000,0.000,0
2026-01-30 23:17:39,1083414,4103.000,180.000,8321.000,-511.000,-613.000,1078.000,0.000,0.000,0
2026-01-30 23:17:39,1083454,4622.000,-929.000,7378.000,-908.000,-201.000,818.000,0.000,0.000,0
2026-01-30 23:17:39,1083494,5483.000,30.000,6683.000,343.000,-294.000,1131.000,0.000,0.000,0
2026-01-30 23:17:39,1083534,4337.000,-203.000,8720.000,215.000,-409.000,1083.000,0.000,0.000,0
2026-01-30 23:17:39,1083574,3323.000,-527.000,7400.000,420.000,-1265.000,310.000,0.000,0.000,0
2026-01-30 23:17:39,1083614,5189.000,622.000,5844.000,-187.000,-1627.000,229.000,0.000,0.000,0
2026-01-30 23:17:39,1083654,5501.000,229.000,7096.000,-995.000,219.000,-83.000,0.000,0.000,0
2026-01-30 23:17:39,1083694,3367.000,-462.000,7209.000,-230.000,1760.000,-935.000,0.000,0.000,0
2026-01-30 23:17:39,1083734,4585.000,-469.000,7320.000,-712.000,803.000,-319.000,0.000,0.000,0
2026-01-30 23:17:39,1083774,4129.000,210.000,5832.000,-140.000,304.000,-425.000,0.000,0.000,0
2026-01-30 23:17:39,1083814,6040.000,-857.000,6875.000,-1023.000,847.000,-867.000,0.000,0.000,0
2026-01-30 23:17:39,1083854,4904.000,687.000,6159.000,1002.000,598.000,-1061.000,0.000,0.000,0
2026-01-30 23:17:39,1083894,5574.000,-836.000,3715.000,2140.000,1713.000,-1454.000,0.000,0.000,0
2026-01-30 23:17:39,1083934,2435.000,-79.000,10129.000,1610.000,3033.000,-728.000,0.000,0.000,0
2026-01-30 23:17:39,1083974,5795.000,-1677.000,6039.000,2342.000,802.000,-248.000,0.000,0.000,0
2026-01-30 23:17:39,1084014,4878.000,268.000,6678.000,2762.000,-127.000,-62.000,0.000,0.000,0
2026-01-30 23:17:39,1084054,3132.000,-913.000,8362.000,1985.000,492.000,-114.000,0.000,0.000,0
2026-01-30 23:17:39,1084094,5320.000,2012.000,8049.000,3474.000,-363.000,778.000,0.000,0.000,0
2026-01-30 23:17:39,1084134,5565.000,-325.000,7349.000,2504.000,-578.000,1482.000,0.000,0.000,0
2026-01-30 23:17:39,1084174,4395.000,1082.000,7071.000,2540.000,-993.000,1104.000,0.000,0.000,0
2026-01-30 23:17:40,1084214,2083.000,822.000,9854.000,2239.000,-841.000,1060.000,0.000,0.000,0
2026-01-30 23:17:40,1084254,3529.000,215.000,8419.000,891.000,-466.000,1188.000,0.000,0.000,0
2026-01-30 23:17:40,1084294,3836.000,1510.000,8759.000,402.000,5.000,1173.000,0.000,0.000,0
2026-01-30 23:17:40,1084334,3863.000,2917.000,8569.000,-685.000,324.000,242.000,0.000,0.000,0
2026-01-30 23:17:40,1084374,5770.000,2505.000,8567.000,-2159.000,521.000,110.000,0.000,0.000,0
2026-01-30 23:17:40,1084414,998.000,3784.000,7819.000,-192.000,-1125.000,-190.000,0.000,0.000,0
2026-01-30 23:17:40,1084454,6644.000,-1409.000,7549.000,-3738.000,-231.000,-110.000,0.000,0.000,0
2026-01-30 23:17:40,1084494,1794.000,-1262.000,5826.000,-1552.000,-109.000,-987.000,0.000,0.000,0
2026-01-30 23:17:40,1084534,7467.000,-328.000,5050.000,-808.000,80.000,-644.000,0.000,0.000,0
2026-01-30 23:17:40,1084574,2418.000,-919.000,5141.000,670.000,773.000,-553.000,0.000,0.000,0
2026-01-30 23:17:40,1084614,6292.000,-1531.000,6412.000,-310.000,944.000,-88.000,0.000,0.000,0
2026-01-30 23:17:40,1084654,3633.000,-863.000,8043.000,1549.000,314.000,556.000,0.000,0.000,0
2026-01-30 23:17:40,1084694,8515.000,-1851.000,6067.000,-10.000,1751.000,-636.000,0.000,0.000,0
2026-01-30 23:17:40,1084734,-1088.000,310.000,8077.000,969.000,1557.000,-1549.000,0.000,0.000,0
2026-01-30 23:17:40,1084774,3287.000,59.000,10693.000,-25.000,2297.000,1054.000,0.000,0.000,0
2026-01-30 23:17:40,1084814,4641.000,1064.000,7385.000,881.000,1142.000,1673.000,0.000,0.000,0
2026-01-30 23:17:40,1084857,2569.000,806.000,8616.000,2253.000,1649.000,970.000,0.000,0.000,0
2026-01-30 23:17:40,1084897,5373.000,-351.000,4764.000,816.000,842.000,1050.000,0.000,0.000,0
2026-01-30 23:17:40,1084934,781.000,764.000,10149.000,314.000,2219.000,216.000,0.000,0.000,0
2026-01-30 23:17:40,1084974,-4129.000,-2480.000,10318.000,200.000,1783.000,625.000,0.000,0.000,0
2026-01-30 23:17:40,1085014,7021.000,-369.000,9856.000,1135.000,-878.000,1038.000,0.000,0.000,0
2026-01-30 23:17:40,1085054,2537.000,922.000,7052.000,-28.000,-60.000,-30.000,0.000,0.000,0
2026-01-30 23:17:40,1085094,6810.000,-568.000,7143.000,469.000,-136.000,1204.000,0.000,0.000,0
2026-01-30 23:17:40,1085137,-220.000,1535.000,7153.000,-231.000,1959.000,-595.000,0.000,0.000,0
2026-01-30 23:17:40,1085174,2063.000,-2843.000,10079.000,756.000,395.000,1393.000,0.000,0.000,0
2026-01-30 23:17:41,1085214,-2446.000,-958.000,7534.000,1116.000,-46.000,744.000,0.000,0.000,0
2026-01-30 23:17:41,1085254,10559.000,1630.000,12232.000,1062.000,-2747.000,644.000,0.000,0.000,0
2026-01-30 23:17:41,1085294,-1133.000,1267.000,4740.000,-1050.000,-368.000,-680.000,0.000,0.000,0
2026-01-30 23:17:41,1085334,1791.000,1082.000,7600.000,-239.000,-170.000,464.000,0.000,0.000,0
2026-01-30 23:17:41,1085374,1694.000,-1364.000,6630.000,-424.000,154.000,1117.000,0.000,0.000,0
2026-01-30 23:17:41,1085414,2096.000,-180.000,8746.000,1200.000,-370.000,735.000,0.000,0.000,0
2026-01-30 23:17:41,1085454,898.000,1500.000,8725.000,-9.000,-1470.000,222.000,0.000,0.000,0
2026-01-30 23:17:41,1085494,2687.000,735.000,6236.000,-688.000,-1906.000,389.000,0.000,0.000,0
2026-01-30 23:17:41,1085534,3932.000,1737.000,8112.000,-658.000,-1761.000,445.000,0.000,0.000,0
2026-01-30 23:17:41,1085574,4373.000,-195.000,6560.000,-716.000,-2438.000,1105.000,0.000,0.000,0
2026-01-30 23:17:41,1085614,771.000,-225.000,7954.000,-500.000,-2435.000,562.000,0.000,0.000,0
2026-01-30 23:17:41,1085654,7749.000,1398.000,7393.000,-1665.000,-2484.000,1243.000,0.000,0.000,0
2026-01-30 23:17:41,1085694,9635.000,1399.000,7426.000,-1472.000,-994.000,992.000,0.000,0.000,0
2026-01-30 23:17:41,1085734,-1141.000,-1411.000,5906.000,-666.000,-2617.000,316.000,0.000,0.000,0
2026-01-30 23:17:41,1085774,3023.000,-160.000,10868.000,-939.000,-583.000,227.000,0.000,0.000,0
2026-01-30 23:17:41,1085814,9364.000,3998.000,6942.000,508.000,-335.000,2246.000,0.000,0.000,0
2026-01-30 23:17:41,1085854,14536.000,5779.000,6018.000,1405.000,-1073.000,2291.000,0.000,0.000,0
2026-01-30 23:17:41,1085894,-7067.000,-5009.000,4134.000,1411.000,-2922.000,522.000,0.000,0.000,0
2026-01-30 23:17:41,1085934,16397.000,-330.000,14500.000,-5007.000,4371.000,1935.000,0.000,0.000,0
2026-01-30 23:17:41,1085974,10512.000,3900.000,11257.000,-38.000,5316.000,29.000,0.000,0.000,0
2026-01-30 23:17:41,1086014,-11300.000,-70.000,7789.000,3059.000,-2347.000,-1298.000,0.000,0.000,0
2026-01-30 23:17:41,1086054,24643.000,9493.000,4433.000,-1601.000,1816.000,2995.000,0.000,0.000,0
2026-01-30 23:17:41,1086094,9472.000,252.000,7777.000,1802.000,1588.000,-560.000,0.000,0.000,0
2026-01-30 23:17:41,1086134,1425.000,-6019.000,4601.000,-1041.000,822.000,-932.000,0.000,0.000,0
2026-01-30 23:17:41,1086174,1152.000,2006.000,6454.000,2167.000,-611.000,-837.000,0.000,0.000,0
2026-01-30 23:17:42,1086214,-811.000,4647.000,5572.000,-2603.000,2517.000,-1745.000,0.000,0.000,0
2026-01-30 23:17:42,1086254,2325.000,-4841.000,13914.000,2326.000,606.000,1588.000,0.000,0.000,0
2026-01-30 23:17:42,1086294,4116.000,-1803.000,7179.000,1119.000,1739.000,-1.000,0.000,0.000,0
2026-01-30 23:17:42,1086334,6384.000,425.000,8503.000,-152.000,1885.000,-871.000,0.000,0.000,0
2026-01-30 23:17:42,1086374,-1130.000,3133.000,16998.000,703.000,1200.000,781.000,0.000,0.000,0
2026-01-30 23:17:42,1086414,2355.000,-945.000,11733.000,-560.000,141.000,558.000,0.000,0.000,0
2026-01-30 23:17:42,1086454,1527.000,34.000,7212.000,-298.000,-741.000,331.000,0.000,0.000,0
2026-01-30 23:17:42,1086494,-2530.000,-1019.000,4834.000,-367.000,-2277.000,-823.000,0.000,0.000,0
2026-01-30 23:17:42,1086534,13671.000,3051.000,2456.000,-3274.000,810.000,-232.000,0.000,0.000,0
2026-01-30 23:17:42,1086574,2004.000,103.000,10347.000,-869.000,-162.000,-637.000,0.000,0.000,0
2026-01-30 23:17:42,1086614,5152.000,429.000,5531.000,127.000,-881.000,-358.000,0.000,0.000,0
2026-01-30 23:17:42,1086654,7601.000,656.000,7075.000,243.000,790.000,293.000,0.000,0.000,0
2026-01-30 23:17:42,1086694,3609.000,-1897.000,6350.000,1504.000,1335.000,463.000,0.000,0.000,0
2026-01-30 23:17:42,1086734,5316.000,-312.000,8009.000,2115.000,-706.000,873.000,0.000,0.000,0
2026-01-30 23:17:42,1086774,4312.000,-1057.000,6471.000,1499.000,-1582.000,-54.000,0.000,0.000,0
2026-01-30 23:17:42,1086814,1016.000,-568.000,7862.000,1747.000,-2783.000,-126.000,0.000,0.000,0
2026-01-30 23:17:42,1086854,7485.000,-178.000,8087.000,612.000,1731.000,1186.000,0.000,0.000,0
2026-01-30 23:17:42,1086894,4462.000,2562.000,8247.000,1587.000,1787.000,531.000,0.000,0.000,0
2026-01-30 23:17:42,1086934,4856.000,-97.000,7039.000,1198.000,2614.000,810.000,0.000,0.000,0
2026-01-30 23:17:42,1086974,2807.000,1157.000,10036.000,2547.000,2876.000,612.000,0.000,0.000,0
2026-01-30 23:17:42,1087014,8783.000,1056.000,6874.000,1323.000,768.000,267.000,0.000,0.000,0
2026-01-30 23:17:42,1087054,-3418.000,629.000,8963.000,-589.000,1395.000,-1266.000,0.000,0.000,0
2026-01-30 23:17:42,1087094,4064.000,-850.000,7297.000,-353.000,68.000,995.000,0.000,0.000,0
2026-01-30 23:17:42,1087134,3571.000,1631.000,7315.000,-642.000,203.000,231.000,0.000,0.000,0
2026-01-30 23:17:42,1087174,-5300.000,1162.000,6035.000,-2469.000,1625.000,-594.000,0.000,0.000,0
2026-01-30 23:17:43,1087214,10615.000,1047.000,7255.000,-38.000,-33.000,974.000,0.000,0.000,0
2026-01-30 23:17:43,1087254,4314.000,-469.000,8597.000,-949.000,1637.000,-474.000,0.000,0.000,0
2026-01-30 23:17:43,1087294,2562.000,-1777.000,9998.000,-469.000,893.000,-146.000,0.000,0.000,0
2026-01-30 23:17:43,1087334,228.000,803.000,8840.000,-619.000,-126.000,-666.000,0.000,0.000,0
2026-01-30 23:17:43,1087374,4247.000,1249.000,5269.000,-998.000,-248.000,-666.000,0.000,0.000,0
2026-01-30 23:17:43,1087414,1321.000,-864.000,8145.000,-1014.000,-1104.000,-219.000,0.000,0.000,0
2026-01-30 23:17:43,1087454,2099.000,-685.000,6568.000,-200.000,-1455.000,39.000,0.000,0.000,0
2026-01-30 23:17:43,1087494,1605.000,-150.000,5682.000,8.000,-1989.000,214.000,0.000,0.000,0
2026-01-30 23:17:43,1087534,14813.000,750.000,10296.000,-44.000,-770.000,1335.000,0.000,0.000,0
2026-01-30 23:17:43,1087574,3201.000,-1297.000,7114.000,-157.000,-872.000,71.000,0.000,0.000,0
2026-01-30 23:17:43,1087614,4664.000,-1177.000,7700.000,853.000,-556.000,851.000,0.000,0.000,0
2026-01-30 23:17:43,1087654,3393.000,-430.000,7718.000,965.000,-1566.000,779.000,0.000,0.000,0
2026-01-30 23:17:43,1087694,7457.000,510.000,7725.000,853.000,-2539.000,875.000,0.000,0.000,0
2026-01-30 23:17:43,1087734,2375.000,3721.000,7632.000,266.000,-3289.000,-272.000,0.000,0.000,0
2026-01-30 23:17:43,1087774,2917.000,-166.000,7463.000,-2062.000,-2456.000,1115.000,0.000,0.000,0
2026-01-30 23:17:43,1087814,2598.000,163.000,7668.000,-1450.000,-1208.000,1372.000,0.000,0.000,0
2026-01-30 23:17:43,1087854,10743.000,4632.000,3233.000,-35.000,-11.000,2530.000,0.000,0.000,0
2026-01-30 23:17:43,1087894,4968.000,11.000,6523.000,-2758.000,2140.000,1171.000,0.000,0.000,0
2026-01-30 23:17:43,1087934,3191.000,480.000,9819.000,-1733.000,1035.000,602.000,0.000,0.000,0
2026-01-30 23:17:43,1087974,4171.000,1593.000,6878.000,-1826.000,-508.000,-255.000,0.000,0.000,0
2026-01-30 23:17:43,1088014,1577.000,-58.000,8196.000,-2099.000,-431.000,-603.000,0.000,0.000,0
2026-01-30 23:17:43,1088054,4780.000,19.000,6276.000,-2022.000,-37.000,-710.000,0.000,0.000,0
2026-01-30 23:17:43,1088094,3410.000,-610.000,5930.000,-418.000,802.000,-1039.000,0.000,0.000,0
2026-01-30 23:17:43,1088134,6076.000,-1317.000,6003.000,-586.000,770.000,-554.000,0.000,0.000,0
2026-01-30 23:17:43,1088174,3603.000,-212.000,6535.000,482.000,340.000,-1097.000,0.000,0.000,0
2026-01-30 23:17:44,1088214,5833.000,-1070.000,6292.000,-334.000,459.000,-1045.000,0.000,0.000,0
2026-01-30 23:17:44,1088254,4796.000,34.000,6839.000,198.000,583.000,-1185.000,0.000,0.000,0
2026-01-30 23:17:44,1088294,3941.000,-836.000,6159.000,468.000,114.000,-1025.000,0.000,0.000,0
2026-01-30 23:17:44,1088334,4330.000,204.000,7179.000,774.000,-279.000,-778.000,0.000,0.000,0
2026-01-30 23:17:44,1088374,4607.000,-994.000,7527.000,150.000,-197.000,-821.000,0.000,0.000,0
2026-01-30 23:17:44,1088414,3870.000,113.000,6722.000,1112.000,-586.000,-796.000,0.000,0.000,0
2026-01-30 23:17:44,1088454,4328.000,-725.000,7681.000,378.000,-138.000,-310.000,0.000,0.000,0
2026-01-30 23:17:44,1088494,4833.000,-524.000,7579.000,444.000,169.000,-422.000,0.000,0.000,0
2026-01-30 23:17:44,1088534,5359.000,667.000,7900.000,-1027.000,-85.000,-646.000,0.000,0.000,0
2026-01-30 23:17:44,1088574,4133.000,171.000,8188.000,-1113.000,-600.000,-682.000,0.000,0.000,0
2026-01-30 23:17:44,1088614,4684.000,-31.000,8339.000,-1453.000,-1236.000,-325.000,0.000,0.000,0
2026-01-30 23:17:44,1088654,4656.000,634.000,5880.000,-1102.000,-1090.000,-681.000,0.000,0.000,0
2026-01-30 23:17:44,1088694,4523.000,1269.000,6409.000,-1070.000,420.000,-737.000,0.000,0.000,0
2026-01-30 23:17:44,1088734,4308.000,-234.000,7105.000,-1016.000,1472.000,-907.000,0.000,0.000,0
2026-01-30 23:17:44,1088774,5664.000,-279.000,7794.000,-684.000,1827.000,-693.000,0.000,0.000,0
2026-01-30 23:17:44,1088814,4895.000,1035.000,7898.000,-428.000,1927.000,-846.000,0.000,0.000,0
2026-01-30 23:17:44,1088857,4911.000,751.000,8665.000,794.000,1799.000,-1021.000,0.000,0.000,0
2026-01-30 23:17:44,1088897,2736.000,-258.000,6379.000,1075.000,1476.000,-626.000,0.000,0.000,0
2026-01-30 23:17:44,1088934,3941.000,859.000,8086.000,833.000,1547.000,-985.000,0.000,0.000,0
2026-01-30 23:17:44,1088974,2084.000,-263.000,6861.000,281.000,1738.000,-1251.000,0.000,0.000,0
2026-01-30 23:17:44,1089014,-3160.000,-195.000,6293.000,-321.000,583.000,-793.000,0.000,0.000,0
2026-01-30 23:17:44,1089054,4608.000,-928.000,3580.000,876.000,1181.000,-1405.000,0.000,0.000,0
2026-01-30 23:17:44,1089094,3660.000,-238.000,8595.000,457.000,700.000,-1288.000,0.000,0.000,0
2026-01-30 23:17:44,1089134,1163.000,-1271.000,7340.000,46.000,1109.000,-130.000,0.000,0.000,0
2026-01-30 23:17:44,1089174,1311.000,-686.000,7648.000,239.000,584.000,-473.000,0.000,0.000,0
2026-01-30 23:17:45,1089214,3998.000,1269.000,8140.000,323.000,-380.000,-741.000,0.000,0.000,0
2026-01-30 23:17:45,1089254,1863.000,-504.000,9060.000,-515.000,-242.000,-740.000,0.000,0.000,0
2026-01-30 23:17:45,1089294,2287.000,804.000,6355.000,-194.000,-1049.000,-217.000,0.000,0.000,0
2026-01-30 23:17:45,1089334,1337.000,-84.000,8826.000,-675.000,-733.000,-334.000,0.000,0.000,0
2026-01-30 23:17:45,1089374,5175.000,-106.000,4315.000,-124.000,-775.000,148.000,0.000,0.000,0
2026-01-30 23:17:45,1089414,4543.000,1399.000,8473.000,-433.000,51.000,-474.000,0.000,0.000,0
2026-01-30 23:17:45,1089454,3692.000,-1162.000,7302.000,-446.000,-42.000,106.000,0.000,0.000,0
2026-01-30 23:17:45,1089494,2296.000,478.000,8334.000,840.000,-716.000,-187.000,0.000,0.000,0
2026-01-30 23:17:45,1089534,5206.000,-958.000,7808.000,395.000,-1427.000,549.000,0.000,0.000,0
2026-01-30 23:17:45,1089574,5246.000,1792.000,8085.000,855.000,-1683.000,289.000,0.000,0.000,0
2026-01-30 23:17:45,1089614,4954.000,-248.000,6722.000,-194.000,-2188.000,879.000,0.000,0.000,0
2026-01-30 23:17:45,1089654,4035.000,-205.000,8129.000,-333.000,-880.000,1328.000,0.000,0.000,0
2026-01-30 23:17:45,1089694,4945.000,607.000,6802.000,-406.000,-1026.000,1214.000,0.000,0.000,0
2026-01-30 23:17:45,1089734,2394.000,-362.000,8104.000,-510.000,149.000,658.000,0.000,0.000,0
2026-01-30 23:17:45,1089774,3047.000,196.000,8400.000,-526.000,244.000,732.000,0.000,0.000,0
2026-01-30 23:17:45,1089814,3911.000,739.000,8481.000,-494.000,-383.000,628.000,0.000,0.000,0
2026-01-30 23:17:45,1089854,3008.000,298.000,7551.000,-739.000,-797.000,275.000,0.000,0.000,0
2026-01-30 23:17:45,1089894,5825.000,883.000,7113.000,-989.000,130.000,-147.000,0.000,0.000,0
2026-01-30 23:17:45,1089934,3537.000,802.000,5684.000,-53.000,841.000,-248.000,0.000,0.000,0
2026-01-30 23:17:45,1089974,5813.000,164.000,7477.000,-710.000,1358.000,-25.000,0.000,0.000,0
2026-01-30 23:17:45,1090014,6475.000,-799.000,8181.000,152.000,1274.000,-252.000,0.000,0.000,0
2026-01-30 23:17:45,1090054,4734.000,308.000,7586.000,-181.000,-249.000,-837.000,0.000,0.000,0
2026-01-30 23:17:45,1090094,5115.000,-416.000,6802.000,-961.000,-219.000,-1184.000,0.000,0.000,0
2026-01-30 23:17:45,1090134,4127.000,192.000,8577.000,-153.000,446.000,-1109.000,0.000,0.000,0
2026-01-30 23:17:45,1090174,1906.000,377.000,7490.000,639.000,367.000,-622.000,0.000,0.000,0
2026-01-30 23:17:46,1090214,3577.000,610.000,7687.000,852.000,-326.000,-83.000,0.000,0.000,0
2026-01-30 23:17:46,1090254,7524.000,-1471.000,6896.000,-47.000,871.000,-210.000,0.000,0.000,0
2026-01-30 23:17:46,1090294,-126.000,1391.000,8239.000,1839.000,724.000,-1156.000,0.000,0.000,0
2026-01-30 23:17:46,1090334,3286.000,143.000,7362.000,752.000,-1535.000,95.000,0.000,0.000,0
2026-01-30 23:17:46,1090374,5184.000,-470.000,5995.000,-186.000,-1065.000,120.000,0.000,0.000,0
2026-01-30 23:17:46,1090414,5313.000,1.000,7189.000,22.000,-424.000,-677.000,0.000,0.000,0
2026-01-30 23:17:46,1090454,3321.000,989.000,6973.000,21.000,-150.000,-689.000,0.000,0.000,0
2026-01-30 23:17:46,1090494,5306.000,-533.000,7529.000,-1170.000,59.000,-788.000,0.000,0.000,0
2026-01-30 23:17:46,1090534,2949.000,1239.000,9952.000,-504.000,-153.000,-1132.000,0.000,0.000,0
2026-01-30 23:17:46,1090574,4749.000,744.000,7008.000,-1412.000,21.000,-998.000,0.000,0.000,0
2026-01-30 23:17:46,1090614,3113.000,-345.000,5635.000,-1249.000,1372.000,-968.000,0.000,0.000,0
2026-01-30 23:17:46,1090654,3423.000,286.000,7061.000,-228.000,1598.000,-337.000,0.000,0.000,0
2026-01-30 23:17:46,1090694,4521.000,162.000,6700.000,-219.000,1586.000,-238.000,0.000,0.000,0
2026-01-30 23:17:46,1090734,5790.000,-12.000,8159.000,-680.000,1465.000,-238.000,0.000,0.000,0
2026-01-30 23:17:46,1090774,2284.000,-692.000,6921.000,398.000,874.000,-312.000,0.000,0.000,0
2026-01-30 23:17:46,1090814,3501.000,-841.000,7626.000,992.000,704.000,169.000,0.000,0.000,0
2026-01-30 23:17:46,1090854,3016.000,651.000,6571.000,1405.000,682.000,-868.000,0.000,0.000,0
2026-01-30 23:17:46,1090895,2612.000,645.000,8495.000,754.000,807.000,-915.000,0.000,0.000,0
2026-01-30 23:17:46,1090934,1459.000,-303.000,7534.000,-10.000,760.000,-698.000,0.000,0.000,0
2026-01-30 23:17:46,1090974,3031.000,-483.000,7864.000,813.000,441.000,-462.000,0.000,0.000,0
2026-01-30 23:17:46,1091014,2237.000,437.000,9522.000,1689.000,0.000,-504.000,0.000,0.000,0
2026-01-30 23:17:46,1091054,3494.000,662.000,7400.000,508.000,-202.000,-262.000,0.000,0.000,0
2026-01-30 23:17:46,1091094,2298.000,-100.000,7010.000,449.000,-196.000,-135.000,0.000,0.000,0
2026-01-30 23:17:46,1091137,1941.000,-192.000,7454.000,747.000,-97.000,293.000,0.000,0.000,0
2026-01-30 23:17:46,1091174,97.000,-482.000,8129.000,213.000,-398.000,216.000,0.000,0.000,0
2026-01-30 23:17:47,1091214,5589.000,1370.000,7276.000,928.000,-820.000,7.000,0.000,0.000,0
2026-01-30 23:17:47,1091254,-98.000,375.000,8299.000,-59.000,-296.000,139.000,0.000,0.000,0
2026-01-30 23:17:47,1091294,4036.000,-210.000,7088.000,275.000,-689.000,778.000,0.000,0.000,0
2026-01-30 23:17:47,1091334,3906.000,-197.000,6437.000,200.000,-43.000,651.000,0.000,0.000,0
2026-01-30 23:17:47,1091374,1809.000,310.000,9195.000,745.000,-89.000,655.000,0.000,0.000,0
2026-01-30 23:17:47,1091414,6093.000,-160.000,7350.000,897.000,-615.000,1014.000,0.000,0.000,0
2026-01-30 23:17:47,1091454,5049.000,490.000,9340.000,982.000,-373.000,1121.000,0.000,0.000,0
2026-01-30 23:17:47,1091494,1606.000,723.000,8062.000,542.000,-1238.000,692.000,0.000,0.000,0
2026-01-30 23:17:47,1091534,5864.000,748.000,7132.000,-588.000,-761.000,1038.000,0.000,0.000,0
2026-01-30 23:17:47,1091574,982.000,-508.000,7783.000,-1751.000,-198.000,1454.000,0.000,0.000,0
2026-01-30 23:17:47,1091614,4153.000,771.000,7603.000,-2503.000,-842.000,2159.000,0.000,0.000,0
2026-01-30 23:17:47,1091654,4503.000,1186.000,8078.000,-2987.000,-2080.000,1806.000,0.000,0.000,0
2026-01-30 23:17:47,1091694,2461.000,-402.000,5180.000,-1070.000,-2488.000,1309.000,0.000,0.000,0
2026-01-30 23:17:47,1091734,8757.000,67.000,5884.000,-532.000,-493.000,1276.000,0.000,0.000,0
2026-01-30 23:17:47,1091774,4509.000,-1479.000,4452.000,1600.000,690.000,687.000,0.000,0.000,0
2026-01-30 23:17:47,1091814,5379.000,-647.000,6993.000,2644.000,202.000,313.000,0.000,0.000,0
2026-01-30 23:17:47,1091854,5398.000,-231.000,6274.000,2332.000,-745.000,439.000,0.000,0.000,0
2026-01-30 23:17:47,1091894,5508.000,-1120.000,5808.000,1431.000,-312.000,723.000,0.000,0.000,0
2026-01-30 23:17:47,1091934,4789.000,1330.000,8806.000,700.000,-308.000,332.000,0.000,0.000,0
2026-01-30 23:17:47,1091974,1750.000,690.000,8146.000,97.000,-40.000,452.000,0.000,0.000,0
2026-01-30 23:17:47,1092014,3866.000,-336.000,9706.000,-1250.000,191.000,618.000,0.000,0.000,0
2026-01-30 23:17:47,1092054,4171.000,65.000,6347.000,-241.000,15.000,-94.000,0.000,0.000,0
2026-01-30 23:17:47,1092094,4437.000,784.000,7345.000,-293.000,429.000,-51.000,0.000,0.000,0
2026-01-30 23:17:47,1092134,4947.000,-460.000,6607.000,-521.000,-500.000,-56.000,0.000,0.000,0
2026-01-30 23:17:47,1092174,3153.000,660.000,7815.000,-962.000,225.000,-623.000,0.000,0.000,0
2026-01-30 23:17:48,1092214,4997.000,436.000,8303.000,-1617.000,402.000,-1191.000,0.000,0.000,0
2026-01-30 23:17:48,1092254,2052.000,1939.000,7245.000,-588.000,230.000,-1200.000,0.000,0.000,0
2026-01-30 23:17:48,1092294,3611.000,-663.000,6497.000,-1078.000,-371.000,-369.000,0.000,0.000,0
2026-01-30 23:17:48,1092334,10063.000,-337.000,7366.000,-1241.000,-1362.000,-179.000,0.000,0.000,0
2026-01-30 23:17:48,1092374,1650.000,-552.000,4831.000,128.000,102.000,-1409.000,0.000,0.000,0
2026-01-30 23:17:48,1092414,3646.000,-408.000,6842.000,-1143.000,-465.000,-1583.000,0.000,0.000,0
2026-01-30 23:17:48,1092454,6848.000,-1197.000,6423.000,-1511.000,606.000,-796.000,0.000,0.000,0
2026-01-30 23:17:48,1092494,4276.000,853.000,6542.000,649.000,526.000,-614.000,0.000,0.000,0
2026-01-30 23:17:48,1092534,4124.000,36.000,6453.000,-400.000,1005.000,-981.000,0.000,0.000,0
2026-01-30 23:17:48,1092574,4873.000,244.000,7796.000,560.000,746.000,-227.000,0.000,0.000,0
2026-01-30 23:17:48,1092614,4200.000,-648.000,7699.000,2096.000,935.000,-69.000,0.000,0.000,0
2026-01-30 23:17:48,1092654,449.000,-855.000,8922.000,2551.000,1579.000,-54.000,0.000,0.000,0
2026-01-30 23:17:48,1092694,7482.000,775.000,7572.000,970.000,2065.000,-524.000,0.000,0.000,0
2026-01-30 23:17:48,1092734,493.000,-113.000,6911.000,-66.000,3634.000,-433.000,0.000,0.000,0
2026-01-30 23:17:48,1092774,6715.000,-98.000,9042.000,1516.000,792.000,644.000,0.000,0.000,0
2026-01-30 23:17:48,1092814,2265.000,-550.000,7288.000,-154.000,1438.000,-45.000,0.000,0.000,0
2026-01-30 23:17:48,1092854,3653.000,497.000,9771.000,-21.000,-629.000,-395.000,0.000,0.000,0
2026-01-30 23:17:48,1092895,3858.000,718.000,5772.000,-1074.000,-413.000,-464.000,0.000,0.000,0
2026-01-30 23:17:48,1092934,4049.000,236.000,10512.000,-820.000,-66.000,-337.000,0.000,0.000,0
2026-01-30 23:17:48,1092974,270.000,492.000,6298.000,-1793.000,1208.000,-972.000,0.000,0.000,0
2026-01-30 23:17:48,1093014,2193.000,-736.000,9249.000,-970.000,183.000,-344.000,0.000,0.000,0
2026-01-30 23:17:48,1093054,6737.000,1315.000,8503.000,-265.000,-487.000,-753.000,0.000,0.000,0
2026-01-30 23:17:48,1093094,3856.000,-2471.000,6255.000,-203.000,-633.000,499.000,0.000,0.000,0
2026-01-30 23:17:48,1093137,-239.000,-2569.000,8320.000,-940.000,242.000,104.000,0.000,0.000,0
2026-01-30 23:17:48,1093174,5596.000,-852.000,9363.000,786.000,-950.000,421.000,0.000,0.000,0
2026-01-30 23:17:49,1093214,3114.000,-720.000,6131.000,971.000,-1467.000,-118.000,0.000,0.000,0
2026-01-30 23:17:49,1093254,6182.000,953.000,9325.000,172.000,-924.000,377.000,0.000,0.000,0
2026-01-30 23:17:49,1093294,4162.000,724.000,8536.000,-69.000,-1167.000,454.000,0.000,0.000,0
2026-01-30 23:17:49,1093334,1692.000,371.000,9225.000,-614.000,-1928.000,634.000,0.000,0.000,0
2026-01-30 23:17:49,1093374,4761.000,208.000,6086.000,-2210.000,-2061.000,71.000,0.000,0.000,0
2026-01-30 23:17:49,1093414,2228.000,1185.000,7537.000,-1807.000,-1397.000,-351.000,0.000,0.000,0
2026-01-30 23:17:49,1093454,5540.000,162.000,5499.000,-1297.000,-1004.000,313.000,0.000,0.000,0
2026-01-30 23:17:49,1093494,2817.000,-725.000,7075.000,-666.000,-4.000,318.000,0.000,0.000,0
2026-01-30 23:17:49,1093534,5299.000,248.000,6706.000,327.000,229.000,613.000,0.000,0.000,0
2026-01-30 23:17:49,1093574,3841.000,-557.000,5845.000,1675.000,359.000,615.000,0.000,0.000,0
2026-01-30 23:17:49,1093614,4306.000,-865.000,6666.000,1081.000,-121.000,271.000,0.000,0.000,0
2026-01-30 23:17:49,1093654,5639.000,-2177.000,6978.000,564.000,552.000,115.000,0.000,0.000,0
2026-01-30 23:17:49,1093694,4432.000,-596.000,7235.000,779.000,155.000,-76.000,0.000,0.000,0
2026-01-30 23:17:49,1093734,4534.000,101.000,8589.000,61.000,490.000,-311.000,0.000,0.000,0
2026-01-30 23:17:49,1093774,3198.000,1756.000,7811.000,557.000,-676.000,-416.000,0.000,0.000,0
2026-01-30 23:17:49,1093814,1839.000,286.000,5927.000,185.000,-479.000,-204.000,0.000,0.000,0
2026-01-30 23:17:49,1093854,4210.000,714.000,6554.000,171.000,489.000,-290.000,0.000,0.000,0
2026-01-30 23:17:49,1093894,6067.000,310.000,7788.000,-519.000,1012.000,-774.000,0.000,0.000,0
2026-01-30 23:17:49,1093934,1058.000,2701.000,6184.000,2178.000,-1558.000,-453.000,0.000,0.000,0
2026-01-30 23:17:49,1093974,3059.000,-3024.000,7257.000,-1842.000,277.000,-145.000,0.000,0.000,0
2026-01-30 23:17:49,1094014,3546.000,106.000,8441.000,-117.000,-589.000,-341.000,0.000,0.000,0
2026-01-30 23:17:49,1094054,3456.000,-653.000,7298.000,-805.000,-654.000,-1150.000,0.000,0.000,0
2026-01-30 23:17:49,1094094,7311.000,1743.000,8428.000,-1727.000,-30.000,-709.000,0.000,0.000,0
2026-01-30 23:17:49,1094134,-5221.000,-1616.000,7677.000,-527.000,178.000,-1519.000,0.000,0.000,0
2026-01-30 23:17:49,1094174,14045.000,4427.000,4352.000,-1206.000,-1352.000,-222.000,0.000,0.000,0
2026-01-30 23:17:50,1094214,5131.000,915.000,6901.000,-361.000,1326.000,-788.000,0.000,0.000,0
2026-01-30 23:17:50,1094254,2638.000,-940.000,7414.000,629.000,273.000,-1069.000,0.000,0.000,0
2026-01-30 23:17:50,1094294,4914.000,-1173.000,7256.000,166.000,679.000,-612.000,0.000,0.000,0
2026-01-30 23:17:50,1094334,4484.000,1147.000,6998.000,-372.000,1307.000,-223.000,0.000,0.000,0
2026-01-30 23:17:50,1094374,4081.000,-455.000,9499.000,679.000,1572.000,-526.000,0.000,0.000,0
2026-01-30 23:17:50,1094414,6030.000,-209.000,4667.000,1285.000,1974.000,57.000,0.000,0.000,0
2026-01-30 23:17:50,1094454,3552.000,-416.000,12300.000,1138.000,2651.000,-784.000,0.000,0.000,0
2026-01-30 23:17:50,1094494,-348.000,-165.000,6334.000,1384.000,1638.000,-200.000,0.000,0.000,0
2026-01-30 23:17:50,1094534,2288.000,2425.000,7317.000,1133.000,-350.000,-683.000,0.000,0.000,0
2026-01-30 23:17:50,1094574,7816.000,1007.000,6168.000,94.000,1536.000,-445.000,0.000,0.000,0
2026-01-30 23:17:50,1094614,825.000,-936.000,8037.000,-133.000,733.000,-260.000,0.000,0.000,0
2026-01-30 23:17:50,1094654,1546.000,-236.000,8725.000,-742.000,834.000,-486.000,0.000,0.000,0
2026-01-30 23:17:50,1094694,1275.000,962.000,8111.000,-1227.000,-398.000,-953.000,0.000,0.000,0
2026-01-30 23:17:50,1094734,3064.000,2154.000,6810.000,-1040.000,-858.000,-895.000,0.000,0.000,0
2026-01-30 23:17:50,1094774,7360.000,349.000,5605.000,-828.000,-882.000,-613.000,0.000,0.000,0
2026-01-30 23:17:50,1094814,572.000,-2381.000,5642.000,40.000,-290.000,-324.000,0.000,0.000,0
2026-01-30 23:17:50,1094854,11303.000,528.000,8294.000,1524.000,172.000,73.000,0.000,0.000,0
2026-01-30 23:17:50,1094894,-1502.000,-46.000,5953.000,762.000,-1450.000,-33.000,0.000,0.000,0
2026-01-30 23:17:50,1094934,1588.000,-3358.000,5895.000,994.000,-976.000,995.000,0.000,0.000,0
2026-01-30 23:17:50,1094974,1107.000,-449.000,8454.000,2295.000,-857.000,710.000,0.000,0.000,0
2026-01-30 23:17:50,1095014,6451.000,-107.000,7988.000,761.000,-1106.000,1592.000,0.000,0.000,0
2026-01-30 23:17:50,1095054,2943.000,88.000,10605.000,168.000,-1832.000,1347.000,0.000,0.000,0
2026-01-30 23:17:50,1095094,2627.000,1314.000,9181.000,-1175.000,-1369.000,994.000,0.000,0.000,0
2026-01-30 23:17:50,1095134,4772.000,3012.000,5625.000,-588.000,-1052.000,1292.000,0.000,0.000,0
2026-01-30 23:17:50,1095174,1068.000,40.000,8536.000,-2300.000,954.000,286.000,0.000,0.000,0
2026-01-30 23:17:51,1095214,9084.000,5016.000,8483.000,36.000,-569.000,663.000,0.000,0.000,0
2026-01-30 23:17:51,1095254,-3279.000,-3046.000,1502.000,338.000,-874.000,-11.000,0.000,0.000,0
2026-01-30 23:17:51,1095294,7388.000,1145.000,8002.000,992.000,-1392.000,1403.000,0.000,0.000,0
2026-01-30 23:17:51,1095334,3974.000,-1715.000,8389.000,-41.000,-342.000,658.000,0.000,0.000,0
2026-01-30 23:17:51,1095374,5394.000,1010.000,7289.000,190.000,-386.000,99.000,0.000,0.000,0
2026-01-30 23:17:51,1095414,1461.000,855.000,9399.000,-308.000,335.000,203.000,0.000,0.000,0
2026-01-30 23:17:51,1095454,6390.000,913.000,8264.000,-208.000,143.000,901.000,0.000,0.000,0
2026-01-30 23:17:51,1095494,3355.000,-41.000,10227.000,-620.000,1026.000,-111.000,0.000,0.000,0
2026-01-30 23:17:51,1095534,1582.000,2813.000,4012.000,1172.000,-1643.000,-668.000,0.000,0.000,0
2026-01-30 23:17:51,1095574,4073.000,-938.000,9182.000,-2428.000,-390.000,-232.000,0.000,0.000,0
2026-01-30 23:17:51,1095614,6543.000,378.000,6882.000,-1326.000,-309.000,-593.000,0.000,0.000,0
2026-01-30 23:17:51,1095654,3829.000,-1543.000,5105.000,-517.000,597.000,-762.000,0.000,0.000,0
2026-01-30 23:17:51,1095694,5750.000,-475.000,6369.000,21.000,596.000,-483.000,0.000,0.000,0
2026-01-30 23:17:51,1095734,4495.000,771.000,8449.000,660.000,-205.000,-184.000,0.000,0.000,0
2026-01-30 23:17:51,1095774,6561.000,914.000,7583.000,288.000,-1234.000,-36.000,0.000,0.000,0
2026-01-30 23:17:51,1095814,1264.000,-76.000,5940.000,973.000,-1796.000,-413.000,0.000,0.000,0
2026-01-30 23:17:51,1095854,4885.000,-1382.000,5968.000,-254.000,-1339.000,64.000,0.000,0.000,0
2026-01-30 23:17:51,1095894,5007.000,-1237.000,7907.000,20.000,316.000,-21.000,0.000,0.000,0
2026-01-30 23:17:51,1095934,5246.000,105.000,5763.000,1730.000,839.000,-161.000,0.000,0.000,0
2026-01-30 23:17:51,1095974,4933.000,-1166.000,7514.000,621.000,1196.000,196.000,0.000,0.000,0
2026-01-30 23:17:51,1096014,5032.000,1813.000,7407.000,1727.000,516.000,279.000,0.000,0.000,0
2026-01-30 23:17:51,1096054,4777.000,523.000,7600.000,631.000,-51.000,104.000,0.000,0.000,0
2026-01-30 23:17:51,1096094,4853.000,1478.000,6653.000,-132.000,-181.000,-43.000,0.000,0.000,0
2026-01-30 23:17:51,1096134,3410.000,1591.000,8665.000,248.000,408.000,-449.000,0.000,0.000,0
2026-01-30 23:17:51,1096174,7102.000,-1101.000,4528.000,519.000,353.000,426.000,0.000,0.000,0
2026-01-30 23:17:52,1096214,4970.000,846.000,7636.000,1827.000,997.000,-723.000,0.000,0.000,0
2026-01-30 23:17:52,1096254,1723.000,-587.000,7347.000,953.000,1279.000,-659.000,0.000,0.000,0
2026-01-30 23:17:52,1096294,3997.000,850.000,8174.000,2225.000,104.000,-454.000,0.000,0.000,0
2026-01-30 23:17:52,1096334,4404.000,819.000,7173.000,862.000,1022.000,-615.000,0.000,0.000,0
2026-01-30 23:17:52,1096374,3245.000,1755.000,8479.000,759.000,569.000,-192.000,0.000,0.000,0
2026-01-30 23:17:52,1096414,2517.000,-199.000,7024.000,-96.000,786.000,346.000,0.000,0.000,0
2026-01-30 23:17:52,1096454,1817.000,1515.000,8405.000,195.000,1157.000,27.000,0.000,0.000,0
2026-01-30 23:17:52,1096494,4441.000,414.000,8682.000,-485.000,-117.000,395.000,0.000,0.000,0
2026-01-30 23:17:52,1096534,1378.000,441.000,5835.000,-1058.000,157.000,77.000,0.000,0.000,0
2026-01-30 23:17:52,1096574,505.000,749.000,7223.000,-871.000,362.000,252.000,0.000,0.000,0
2026-01-30 23:17:52,1096614,2776.000,1221.000,7818.000,-1280.000,439.000,324.000,0.000,0.000,0
2026-01-30 23:17:52,1096654,2116.000,-171.000,6787.000,-1773.000,385.000,311.000,0.000,0.000,0
2026-01-30 23:17:52,1096694,3597.000,117.000,10992.000,-2465.000,369.000,148.000,0.000,0.000,0
2026-01-30 23:17:52,1096734,4804.000,1147.000,7027.000,-1922.000,-1329.000,-31.000,0.000,0.000,0
2026-01-30 23:17:52,1096774,957.000,303.000,6479.000,-1915.000,-1266.000,-463.000,0.000,0.000,0
2026-01-30 23:17:52,1096814,12410.000,2598.000,7876.000,-1791.000,-1362.000,1345.000,0.000,0.000,0
2026-01-30 23:17:52,1096857,9998.000,-1943.000,7504.000,193.000,-260.000,1183.000,0.000,0.000,0
2026-01-30 23:17:52,1096896,138.000,323.000,7011.000,1207.000,-1209.000,238.000,0.000,0.000,0
2026-01-30 23:17:52,1096934,2830.000,1050.000,7718.000,933.000,-2069.000,498.000,0.000,0.000,0
2026-01-30 23:17:52,1096974,548.000,-1602.000,5345.000,-619.000,-846.000,216.000,0.000,0.000,0
2026-01-30 23:17:52,1097014,10151.000,1530.000,8393.000,-303.000,-430.000,1253.000,0.000,0.000,0
2026-01-30 23:17:52,1097054,5213.000,864.000,6164.000,1408.000,302.000,308.000,0.000,0.000,0
2026-01-30 23:17:52,1097094,6049.000,2124.000,5825.000,2586.000,-312.000,125.000,0.000,0.000,0
2026-01-30 23:17:52,1097137,5338.000,-715.000,9086.000,1234.000,460.000,700.000,0.000,0.000,0
2026-01-30 23:17:52,1097174,898.000,-1345.000,10330.000,780.000,252.000,896.000,0.000,0.000,0
2026-01-30 23:17:53,1097214,9739.000,17.000,9343.000,32.000,79.000,588.000,0.000,0.000,0
2026-01-30 23:17:53,1097254,7500.000,3935.000,4152.000,1405.000,-2889.000,495.000,0.000,0.000,0
2026-01-30 23:17:53,1097294,408.000,-1462.000,7628.000,-1746.000,491.000,-303.000,0.000,0.000,0
2026-01-30 23:17:53,1097334,3595.000,-1867.000,6940.000,-2031.000,476.000,-688.000,0.000,0.000,0
2026-01-30 23:17:53,1097374,5549.000,1234.000,7356.000,-958.000,826.000,-672.000,0.000,0.000,0
2026-01-30 23:17:53,1097414,6543.000,171.000,7982.000,-1129.000,530.000,-517.000,0.000,0.000,0
2026-01-30 23:17:53,1097454,2091.000,-355.000,6817.000,223.000,-805.000,-859.000,0.000,0.000,0
2026-01-30 23:17:53,1097494,9167.000,-519.000,5305.000,-255.000,-526.000,-347.000,0.000,0.000,0
2026-01-30 23:17:53,1097534,-1559.000,-1150.000,7380.000,660.000,-943.000,-1153.000,0.000,0.000,0
2026-01-30 23:17:53,1097574,9930.000,-1382.000,6474.000,-1694.000,575.000,-23.000,0.000,0.000,0
2026-01-30 23:17:53,1097614,3367.000,607.000,6333.000,174.000,730.000,-928.000,0.000,0.000,0
2026-01-30 23:17:53,1097654,8134.000,-192.000,6994.000,-240.000,756.000,-7.000,0.000,0.000,0
2026-01-30 23:17:53,1097694,3490.000,306.000,7293.000,-728.000,1162.000,-262.000,0.000,0.000,0
2026-01-30 23:17:53,1097734,6755.000,175.000,7017.000,-65.000,447.000,-186.000,0.000,0.000,0
2026-01-30 23:17:53,1097774,2980.000,-1399.000,7244.000,1971.000,-353.000,-175.000,0.000,0.000,0
2026-01-30 23:17:53,1097814,4129.000,-331.000,6263.000,744.000,674.000,-548.000,0.000,0.000,0
2026-01-30 23:17:53,1097854,5754.000,711.000,8676.000,1352.000,1569.000,-425.000,0.000,0.000,0
2026-01-30 23:17:53,1097894,252.000,914.000,4691.000,2255.000,677.000,-859.000,0.000,0.000,0
2026-01-30 23:17:53,1097934,9641.000,-456.000,9655.000,1020.000,1568.000,12.000,0.000,0.000,0
2026-01-30 23:17:53,1097974,2688.000,66.000,5954.000,2075.000,1794.000,-310.000,0.000,0.000,0
2026-01-30 23:17:53,1098014,1810.000,-1682.000,5866.000,1735.000,575.000,431.000,0.000,0.000,0
2026-01-30 23:17:53,1098054,3723.000,-1175.000,7181.000,1173.000,974.000,-83.000,0.000,0.000,0
2026-01-30 23:17:53,1098094,301.000,1043.000,7053.000,1988.000,239.000,-360.000,0.000,0.000,0
2026-01-30 23:17:53,1098134,5242.000,1081.000,9392.000,1395.000,86.000,349.000,0.000,0.000,0
2026-01-30 23:17:53,1098174,4423.000,1534.000,6137.000,896.000,-54.000,398.000,0.000,0.000,0
2026-01-30 23:17:54,1098214,6133.000,1429.000,9572.000,488.000,448.000,919.000,0.000,0.000,0
2026-01-30 23:17:54,1098254,723.000,-625.000,3626.000,1335.000,-1273.000,852.000,0.000,0.000,0
2026-01-30 23:17:54,1098294,9255.000,-353.000,8192.000,-728.000,567.000,1828.000,0.000,0.000,0
2026-01-30 23:17:54,1098334,398.000,2410.000,8148.000,1974.000,-1164.000,693.000,0.000,0.000,0
2026-01-30 23:17:54,1098374,3958.000,-1816.000,7781.000,-850.000,840.000,1405.000,0.000,0.000,0
2026-01-30 23:17:54,1098414,6723.000,704.000,11666.000,-3009.000,1978.000,1533.000,0.000,0.000,0
2026-01-30 23:17:54,1098454,599.000,2190.000,7899.000,-629.000,-566.000,261.000,0.000,0.000,0
2026-01-30 23:17:54,1098494,2957.000,-241.000,9404.000,-3704.000,10.000,771.000,0.000,0.000,0
2026-01-30 23:17:54,1098534,1849.000,1000.000,5522.000,-2178.000,-1678.000,722.000,0.000,0.000,0
2026-01-30 23:17:54,1098574,4754.000,281.000,10052.000,-4471.000,311.000,977.000,0.000,0.000,0
2026-01-30 23:17:54,1098614,1677.000,-791.000,7030.000,-3000.000,-646.000,-245.000,0.000,0.000,0
2026-01-30 23:17:54,1098654,3000.000,1418.000,5762.000,-3173.000,-66.000,-381.000,0.000,0.000,0
2026-01-30 23:17:54,1098694,2554.000,-215.000,8433.000,-2954.000,730.000,-289.000,0.000,0.000,0
2026-01-30 23:17:54,1098734,4479.000,254.000,5464.000,-1569.000,287.000,-152.000,0.000,0.000,0
2026-01-30 23:17:54,1098774,8289.000,1456.000,5487.000,71.000,-501.000,-618.000,0.000,0.000,0
2026-01-30 23:17:54,1098814,2293.000,-244.000,6109.000,1064.000,155.000,-1254.000,0.000,0.000,0
2026-01-30 23:17:54,1098857,7211.000,-2901.000,5111.000,353.000,1614.000,-414.000,0.000,0.000,0
2026-01-30 23:17:54,1098897,5038.000,-2240.000,5836.000,2276.000,784.000,87.000,0.000,0.000,0
2026-01-30 23:17:54,1098934,5470.000,-1401.000,7558.000,2203.000,371.000,-35.000,0.000,0.000,0
2026-01-30 23:17:54,1098974,5203.000,-417.000,7790.000,2516.000,-1234.000,121.000,0.000,0.000,0
2026-01-30 23:17:54,1099014,1671.000,-89.000,10653.000,1412.000,-1356.000,221.000,0.000,0.000,0
2026-01-30 23:17:54,1099054,7423.000,1132.000,9365.000,474.000,-728.000,112.000,0.000,0.000,0
2026-01-30 23:17:54,1099094,2052.000,701.000,6798.000,1170.000,-295.000,-361.000,0.000,0.000,0
2026-01-30 23:17:54,1099137,8807.000,-516.000,7718.000,-671.000,1632.000,335.000,0.000,0.000,0
2026-01-30 23:17:54,1099174,3530.000,-645.000,8807.000,-1811.000,1481.000,-279.000,0.000,0.000,0
2026-01-30 23:17:55,1099214,4555.000,2838.000,6640.000,403.000,-1160.000,-625.000,0.000,0.000,0
2026-01-30 23:17:55,1099254,3874.000,221.000,7608.000,-950.000,-963.000,-9.000,0.000,0.000,0
2026-01-30 23:17:55,1099294,4326.000,1148.000,5609.000,262.000,-2500.000,218.000,0.000,0.000,0
2026-01-30 23:17:55,1099334,6464.000,-1166.000,6148.000,-935.000,-840.000,-111.000,0.000,0.000,0
2026-01-30 23:17:55,1099374,3946.000,-474.000,7033.000,-299.000,200.000,-832.000,0.000,0.000,0
2026-01-30 23:17:55,1099414,4320.000,-140.000,7713.000,119.000,-582.000,-655.000,0.000,0.000,0
2026-01-30 23:17:55,1099454,4321.000,-652.000,7924.000,-477.000,157.000,-622.000,0.000,0.000,0
2026-01-30 23:17:55,1099494,3052.000,182.000,5567.000,-658.000,-292.000,-1119.000,0.000,0.000,0
2026-01-30 23:17:55,1099534,3290.000,-375.000,4929.000,-909.000,-828.000,-319.000,0.000,0.000,0
2026-01-30 23:17:55,1099574,6207.000,-1427.000,5684.000,-1117.000,658.000,-969.000,0.000,0.000,0
2026-01-30 23:17:55,1099614,7257.000,255.000,8601.000,-735.000,2707.000,-939.000,0.000,0.000,0
2026-01-30 23:17:55,1099654,68.000,304.000,4653.000,2698.000,1385.000,-252.000,0.000,0.000,0
2026-01-30 23:17:55,1099694,3736.000,-1546.000,2860.000,2066.000,191.000,1769.000,0.000,0.000,0
2026-01-30 23:17:55,1099734,-75.000,-1189.000,6072.000,1859.000,1790.000,-2226.000,0.000,0.000,0
2026-01-30 23:17:55,1099774,2031.000,4514.000,8911.000,2611.000,103.000,-580.000,0.000,0.000,0
2026-01-30 23:17:55,1099814,11807.000,1005.000,6892.000,-245.000,-290.000,1268.000,0.000,0.000,0
2026-01-30 23:17:55,1099854,-283.000,-1497.000,5655.000,-1331.000,-981.000,-1068.000,0.000,0.000,0
2026-01-30 23:17:55,1099894,2886.000,2198.000,6649.000,293.000,-167.000,-511.000,0.000,0.000,0
2026-01-30 23:17:55,1099934,4125.000,-1053.000,7046.000,-629.000,592.000,422.000,0.000,0.000,0
2026-01-30 23:17:55,1099974,1782.000,-852.000,9342.000,1300.000,75.000,14.000,0.000,0.000,0
2026-01-30 23:17:55,1100014,4444.000,2414.000,7523.000,1288.000,-628.000,-214.000,0.000,0.000,0
2026-01-30 23:17:55,1100054,660.000,1137.000,7157.000,-651.000,-1638.000,-880.000,0.000,0.000,0
2026-01-30 23:17:55,1100094,-1080.000,-1288.000,10144.000,-1186.000,-941.000,39.000,0.000,0.000,0
2026-01-30 23:17:55,1100134,4556.000,-35.000,6034.000,-1140.000,-490.000,959.000,0.000,0.000,0
2026-01-30 23:17:55,1100174,2643.000,-636.000,6654.000,-801.000,-269.000,741.000,0.000,0.000,0
2026-01-30 23:17:56,1100214,5920.000,-316.000,8151.000,-707.000,-529.000,882.000,0.000,0.000,0
2026-01-30 23:17:56,1100254,2679.000,1.000,7408.000,271.000,-2338.000,792.000,0.000,0.000,0
2026-01-30 23:17:56,1100294,3987.000,-758.000,5725.000,-653.000,-2162.000,1148.000,0.000,0.000,0
2026-01-30 23:17:56,1100334,3533.000,-1112.000,7584.000,-374.000,-1793.000,1059.000,0.000,0.000,0
2026-01-30 23:17:56,1100374,4675.000,-1468.000,5726.000,405.000,-1017.000,1437.000,0.000,0.000,0
2026-01-30 23:17:56,1100414,5613.000,73.000,7700.000,577.000,278.000,1629.000,0.000,0.000,0
2026-01-30 23:17:56,1100454,4937.000,165.000,6725.000,1158.000,81.000,1278.000,0.000,0.000,0
2026-01-30 23:17:56,1100494,5419.000,570.000,7338.000,977.000,211.000,1272.000,0.000,0.000,0
2026-01-30 23:17:56,1100534,4204.000,91.000,7266.000,830.000,413.000,913.000,0.000,0.000,0
2026-01-30 23:17:56,1100574,4149.000,1175.000,7461.000,754.000,4.000,983.000,0.000,0.000,0
2026-01-30 23:17:56,1100614,3899.000,787.000,6756.000,864.000,-107.000,733.000,0.000,0.000,0
2026-01-30 23:17:56,1100654,3340.000,571.000,8092.000,-700.000,82.000,217.000,0.000,0.000,0
2026-01-30 23:17:56,1100694,5806.000,-594.000,6181.000,-1201.000,220.000,-443.000,0.000,0.000,0
2026-01-30 23:17:56,1100734,3756.000,-26.000,6717.000,-399.000,180.000,-372.000,0.000,0.000,0
2026-01-30 23:17:56,1100774,4119.000,-756.000,6847.000,-342.000,-273.000,-131.000,0.000,0.000,0
2026-01-30 23:17:56,1100814,5267.000,-757.000,6804.000,-330.000,-152.000,-64.000,0.000,0.000,0
2026-01-30 23:17:56,1100854,4306.000,366.000,7302.000,239.000,-439.000,-225.000,0.000,0.000,0
2026-01-30 23:17:56,1100894,5054.000,-1279.000,7272.000,-332.000,-385.000,-3.000,0.000,0.000,0
2026-01-30 23:17:56,1100934,3576.000,-50.000,6515.000,589.000,-674.000,-162.000,0.000,0.000,0
2026-01-30 23:17:56,1100974,4647.000,-2008.000,6621.000,-862.000,281.000,-403.000,0.000,0.000,0
2026-01-30 23:17:56,1101014,4023.000,577.000,7494.000,-72.000,160.000,-303.000,0.000,0.000,0
2026-01-30 23:17:56,1101054,4376.000,1075.000,6682.000,-1809.000,482.000,-426.000,0.000,0.000,0
2026-01-30 23:17:56,1101094,3979.000,503.000,7273.000,-1062.000,589.000,-662.000,0.000,0.000,0
2026-01-30 23:17:56,1101137,4528.000,44.000,7434.000,-1125.000,1127.000,-748.000,0.000,0.000,0
2026-01-30 23:17:56,1101176,4724.000,242.000,7525.000,-533.000,1028.000,-787.000,0.000,0.000,0
2026-01-30 23:17:57,1101214,3770.000,-290.000,6947.000,163.000,327.000,-706.000,0.000,0.000,0
2026-01-30 23:17:57,1101254,5055.000,-31.000,7477.000,73.000,-179.000,-443.000,0.000,0.000,0
2026-01-30 23:17:57,1101294,5801.000,486.000,6283.000,-804.000,-415.000,-479.000,0.000,0.000,0
2026-01-30 23:17:57,1101334,4257.000,147.000,7082.000,611.000,488.000,-535.000,0.000,0.000,0
2026-01-30 23:17:57,1101374,3646.000,375.000,6253.000,2033.000,1350.000,-419.000,0.000,0.000,0
2026-01-30 23:17:57,1101414,4939.000,-1050.000,8217.000,808.000,2181.000,-323.000,0.000,0.000,0
2026-01-30 23:17:57,1101454,1158.000,1092.000,6015.000,818.000,2066.000,-580.000,0.000,0.000,0
2026-01-30 23:17:57,1101494,4756.000,350.000,8396.000,610.000,1210.000,-216.000,0.000,0.000,0
2026-01-30 23:17:57,1101534,3379.000,625.000,7897.000,-251.000,1111.000,-853.000,0.000,0.000,0
2026-01-30 23:17:57,1101574,3686.000,540.000,8583.000,-522.000,395.000,-1009.000,0.000,0.000,0
2026-01-30 23:17:57,1101614,3978.000,907.000,7395.000,-907.000,696.000,-923.000,0.000,0.000,0
2026-01-30 23:17:57,1101654,3180.000,342.000,8063.000,-1021.000,700.000,-856.000,0.000,0.000,0
2026-01-30 23:17:57,1101694,3674.000,290.000,8839.000,-539.000,348.000,-778.000,0.000,0.000,0
2026-01-30 23:17:57,1101734,1969.000,204.000,7498.000,-635.000,-176.000,-551.000,0.000,0.000,0
2026-01-30 23:17:57,1101774,2952.000,-371.000,8035.000,-462.000,-561.000,-482.000,0.000,0.000,0
2026-01-30 23:17:57,1101814,2840.000,87.000,6961.000,233.000,-1091.000,-772.000,0.000,0.000,0
2026-01-30 23:17:57,1101854,4421.000,-669.000,7078.000,171.000,-308.000,-243.000,0.000,0.000,0
2026-01-30 23:17:57,1101894,3571.000,102.000,8844.000,1278.000,-83.000,-133.000,0.000,0.000,0
2026-01-30 23:17:57,1101934,3154.000,-358.000,7419.000,-288.000,-1176.000,543.000,0.000,0.000,0
2026-01-30 23:17:57,1101974,4339.000,1194.000,7862.000,-2667.000,-911.000,273.000,0.000,0.000,0
2026-01-30 23:17:57,1102014,4301.000,459.000,8252.000,-4179.000,-1101.000,274.000,0.000,0.000,0
2026-01-30 23:17:57,1102054,4145.000,500.000,7874.000,-3235.000,-868.000,323.000,0.000,0.000,0
2026-01-30 23:17:57,1102094,2649.000,313.000,7917.000,-1679.000,-1024.000,120.000,0.000,0.000,0
2026-01-30 23:17:57,1102134,4264.000,-577.000,7908.000,-1657.000,-466.000,-64.000,0.000,0.000,0
2026-01-30 23:17:57,1102174,3038.000,-502.000,8321.000,-477.000,-397.000,-122.000,0.000,0.000,0
2026-01-30 23:17:58,1102214,5643.000,-185.000,6608.000,-503.000,-368.000,-32.000,0.000,0.000,0
2026-01-30 23:17:58,1102254,5346.000,948.000,4913.000,2008.000,-274.000,83.000,0.000,0.000,0
2026-01-30 23:17:58,1102294,5368.000,59.000,7309.000,812.000,345.000,509.000,0.000,0.000,0
2026-01-30 23:17:58,1102334,4662.000,786.000,6880.000,1930.000,-575.000,592.000,0.000,0.000,0
2026-01-30 23:17:58,1102374,5033.000,-114.000,5887.000,1454.000,22.000,207.000,0.000,0.000,0
2026-01-30 23:17:58,1102414,2766.000,-131.000,6860.000,1493.000,718.000,-205.000,0.000,0.000,0
2026-01-30 23:17:58,1102454,4776.000,-22.000,8357.000,181.000,1225.000,-539.000,0.000,0.000,0
2026-01-30 23:17:58,1102494,1962.000,725.000,7698.000,135.000,1389.000,-1138.000,0.000,0.000,0
2026-01-30 23:17:58,1102534,4629.000,350.000,7911.000,-150.000,1201.000,-1130.000,0.000,0.000,0
2026-01-30 23:17:58,1102574,5434.000,-325.000,7903.000,312.000,179.000,-1082.000,0.000,0.000,0
2026-01-30 23:17:58,1102614,4570.000,-1055.000,4651.000,1155.000,827.000,-1322.000,0.000,0.000,0
2026-01-30 23:17:58,1102654,5927.000,-485.000,7013.000,1365.000,881.000,-676.000,0.000,0.000,0
2026-01-30 23:17:58,1102694,3363.000,-377.000,3451.000,2539.000,-9.000,-733.000,0.000,0.000,0
2026-01-30 23:17:58,1102734,2723.000,-321.000,9286.000,1238.000,1152.000,-431.000,0.000,0.000,0
2026-01-30 23:17:58,1102774,3164.000,-565.000,7194.000,598.000,63.000,-463.000,0.000,0.000,0
2026-01-30 23:17:58,1102814,3681.000,195.000,9317.000,-102.000,61.000,146.000,0.000,0.000,0
2026-01-30 23:17:58,1102857,3588.000,834.000,7115.000,160.000,5.000,30.000,0.000,0.000,0
2026-01-30 23:17:58,1102896,2764.000,-326.000,8322.000,-377.000,1017.000,655.000,0.000,0.000,0
2026-01-30 23:17:58,1102934,2204.000,2069.000,8076.000,655.000,745.000,180.000,0.000,0.000,0
2026-01-30 23:17:58,1102974,687.000,-124.000,7660.000,37.000,873.000,-140.000,0.000,0.000,0
2026-01-30 23:17:58,1103014,3382.000,560.000,8872.000,-164.000,129.000,-245.000,0.000,0.000,0
2026-01-30 23:17:58,1103054,1790.000,-354.000,8696.000,-484.000,869.000,-909.000,0.000,0.000,0
2026-01-30 23:17:58,1103094,1703.000,1474.000,8488.000,-4.000,326.000,-989.000,0.000,0.000,0
2026-01-30 23:17:58,1103138,1794.000,245.000,6690.000,-330.000,903.000,-852.000,0.000,0.000,0
2026-01-30 23:17:58,1103174,2972.000,2541.000,9094.000,6.000,1003.000,-999.000,0.000,0.000,0
2026-01-30 23:17:59,1103214,1518.000,-771.000,6291.000,-60.000,1057.000,-654.000,0.000,0.000,0
2026-01-30 23:17:59,1103254,2691.000,174.000,8026.000,-23.000,888.000,-571.000,0.000,0.000,0
2026-01-30 23:17:59,1103294,4805.000,-419.000,6195.000,458.000,245.000,-673.000,0.000,0.000,0
2026-01-30 23:17:59,1103334,-11.000,-916.000,5797.000,578.000,1011.000,-770.000,0.000,0.000,0
2026-01-30 23:17:59,1103374,5114.000,535.000,8778.000,2110.000,-354.000,-129.000,0.000,0.000,0
2026-01-30 23:17:59,1103414,-1620.000,-299.000,6939.000,742.000,1670.000,-225.000,0.000,0.000,0
2026-01-30 23:17:59,1103454,3067.000,137.000,8058.000,2230.000,-133.000,389.000,0.000,0.000,0
2026-01-30 23:17:59,1103494,2238.000,969.000,10008.000,2026.000,-427.000,313.000,0.000,0.000,0
2026-01-30 23:17:59,1103534,2221.000,1191.000,7807.000,473.000,-664.000,-450.000,0.000,0.000,0
2026-01-30 23:17:59,1103574,4803.000,2230.000,8127.000,319.000,-1044.000,29.000,0.000,0.000,0
2026-01-30 23:17:59,1103614,-309.000,-657.000,6338.000,-356.000,583.000,-190.000,0.000,0.000,0
2026-01-30 23:17:59,1103654,1684.000,986.000,6969.000,1666.000,-2550.000,548.000,0.000,0.000,0
2026-01-30 23:17:59,1103694,-2201.000,-2033.000,6304.000,12.000,-1747.000,292.000,0.000,0.000,0
2026-01-30 23:17:59,1103734,3304.000,-142.000,7447.000,655.000,-1779.000,546.000,0.000,0.000,0
2026-01-30 23:17:59,1103774,2523.000,338.000,8989.000,-155.000,-1711.000,1106.000,0.000,0.000,0
2026-01-30 23:17:59,1103814,7341.000,1040.000,7057.000,-607.000,-1166.000,1409.000,0.000,0.000,0
2026-01-30 23:17:59,1103854,7707.000,2857.000,9584.000,-697.000,-476.000,1441.000,0.000,0.000,0
2026-01-30 23:17:59,1103894,5192.000,454.000,6273.000,-1083.000,-610.000,1569.000,0.000,0.000,0
2026-01-30 23:17:59,1103934,2694.000,3928.000,9645.000,718.000,-1039.000,1401.000,0.000,0.000,0
2026-01-30 23:17:59,1103974,-3214.000,-5140.000,6950.000,-2572.000,205.000,1320.000,0.000,0.000,0
2026-01-30 23:17:59,1104014,8722.000,6666.000,6540.000,1755.000,-1079.000,2206.000,0.000,0.000,0
2026-01-30 23:17:59,1104054,1143.000,-3626.000,3627.000,-2434.000,2217.000,1281.000,0.000,0.000,0
2026-01-30 23:17:59,1104094,5320.000,-632.000,9149.000,24.000,963.000,345.000,0.000,0.000,0
2026-01-30 23:17:59,1104134,2623.000,1218.000,7779.000,-993.000,-212.000,-553.000,0.000,0.000,0
2026-01-30 23:17:59,1104174,2788.000,-141.000,6735.000,-1635.000,373.000,-487.000,0.000,0.000,0
2026-01-30 23:18:00,1104214,1720.000,948.000,8909.000,-275.000,523.000,-735.000,0.000,0.000,0
2026-01-30 23:18:00,1104254,7816.000,935.000,4980.000,900.000,-166.000,115.000,0.000,0.000,0
2026-01-30 23:18:00,1104294,550.000,-481.000,7746.000,1045.000,-86.000,-547.000,0.000,0.000,0
2026-01-30 23:18:00,1104334,6843.000,-2165.000,8148.000,152.000,1699.000,-309.000,0.000,0.000,0
2026-01-30 23:18:00,1104374,595.000,1345.000,5020.000,3327.000,-1729.000,-445.000,0.000,0.000,0
2026-01-30 23:18:00,1104414,-4654.000,-5142.000,2576.000,494.000,-459.000,241.000,0.000,0.000,0
2026-01-30 23:18:00,1104454,9394.000,1197.000,8505.000,1893.000,-1923.000,1182.000,0.000,0.000,0
2026-01-30 23:18:00,1104494,1484.000,4842.000,8884.000,1946.000,-1661.000,-560.000,0.000,0.000,0
2026-01-30 23:18:00,1104534,2897.000,614.000,7981.000,180.000,-1017.000,586.000,0.000,0.000,0
2026-01-30 23:18:00,1104574,1650.000,-14.000,7344.000,-169.000,-508.000,199.000,0.000,0.000,0
2026-01-30 23:18:00,1104614,6686.000,-463.000,7422.000,-1809.000,897.000,400.000,0.000,0.000,0
2026-01-30 23:18:00,1104654,-1195.000,2026.000,9125.000,797.000,-754.000,-423.000,0.000,0.000,0
2026-01-30 23:18:00,1104694,2791.000,-3130.000,6206.000,-3033.000,453.000,-265.000,0.000,0.000,0
2026-01-30 23:18:00,1104734,2134.000,1002.000,9462.000,-452.000,-837.000,-565.000,0.000,0.000,0
2026-01-30 23:18:00,1104774,11663.000,5125.000,5458.000,-916.000,595.000,233.000,0.000,0.000,0
2026-01-30 23:18:00,1104814,3924.000,1282.000,6366.000,116.000,877.000,-170.000,0.000,0.000,0
2026-01-30 23:18:00,1104857,3944.000,284.000,7051.000,680.000,1309.000,90.000,0.000,0.000,0
2026-01-30 23:18:00,1104896,4714.000,-881.000,7737.000,62.000,571.000,333.000,0.000,0.000,0
2026-01-30 23:18:00,1104934,6339.000,-1062.000,9142.000,330.000,856.000,265.000,0.000,0.000,0
2026-01-30 23:18:00,1104974,-2098.000,251.000,6396.000,2159.000,257.000,-91.000,0.000,0.000,0
2026-01-30 23:18:00,1105014,11928.000,1029.000,9760.000,2323.000,-991.000,150.000,0.000,0.000,0
2026-01-30 23:18:00,1105054,-1164.000,-388.000,9218.000,341.000,1522.000,-237.000,0.000,0.000,0
2026-01-30 23:18:00,1105094,4135.000,1431.000,6594.000,990.000,-552.000,-86.000,0.000,0.000,0
2026-01-30 23:18:00,1105137,5851.000,-300.000,8835.000,817.000,223.000,211.000,0.000,0.000,0
2026-01-30 23:18:00,1105174,3061.000,248.000,9195.000,161.000,1172.000,125.000,0.000,0.000,0
2026-01-30 23:18:01,1105214,-1395.000,1113.000,8007.000,-125.000,1750.000,1.000,0.000,0.000,0
2026-01-30 23:18:01,1105254,6317.000,1366.000,6640.000,-277.000,-2262.000,987.000,0.000,0.000,0
2026-01-30 23:18:01,1105294,-196.000,109.000,8115.000,-1763.000,223.000,149.000,0.000,0.000,0
2026-01-30 23:18:01,1105334,2349.000,1373.000,7482.000,-1508.000,-560.000,10.000,0.000,0.000,0
2026-01-30 23:18:01,1105374,2728.000,613.000,7783.000,-1390.000,-418.000,97.000,0.000,0.000,0
2026-01-30 23:18:01,1105414,625.000,-1469.000,6800.000,-517.000,127.000,-22.000,0.000,0.000,0
2026-01-30 23:18:01,1105454,3518.000,1376.000,9191.000,722.000,-928.000,-72.000,0.000,0.000,0
2026-01-30 23:18:01,1105494,4379.000,-27.000,6037.000,-803.000,-1590.000,15.000,0.000,0.000,0
2026-01-30 23:18:01,1105534,4243.000,1048.000,8821.000,-869.000,-1739.000,221.000,0.000,0.000,0
2026-01-30 23:18:01,1105574,3321.000,-1492.000,6868.000,-802.000,-2794.000,1005.000,0.000,0.000,0
2026-01-30 23:18:01,1105614,4282.000,-975.000,6181.000,-1145.000,-2447.000,1007.000,0.000,0.000,0
2026-01-30 23:18:01,1105654,2527.000,-102.000,9364.000,-619.000,-1392.000,928.000,0.000,0.000,0
2026-01-30 23:18:01,1105694,5216.000,618.000,7770.000,-763.000,-1063.000,1477.000,0.000,0.000,0
2026-01-30 23:18:01,1105734,2234.000,-687.000,7486.000,-109.000,-638.000,1269.000,0.000,0.000,0
2026-01-30 23:18:01,1105774,4138.000,226.000,8078.000,-785.000,-1179.000,1250.000,0.000,0.000,0
2026-01-30 23:18:01,1105814,5941.000,497.000,6327.000,-1155.000,-476.000,801.000,0.000,0.000,0
2026-01-30 23:18:01,1105854,4417.000,560.000,4631.000,1340.000,-209.000,345.000,0.000,0.000,0
2026-01-30 23:18:01,1105894,4009.000,-2178.000,6895.000,-844.000,1626.000,200.000,0.000,0.000,0
2026-01-30 23:18:01,1105934,3373.000,-1142.000,6825.000,909.000,817.000,202.000,0.000,0.000,0
2026-01-30 23:18:01,1105974,2929.000,992.000,7454.000,714.000,212.000,206.000,0.000,0.000,0
2026-01-30 23:18:01,1106014,3955.000,404.000,5288.000,699.000,-17.000,-449.000,0.000,0.000,0
2026-01-30 23:18:01,1106054,4501.000,436.000,7516.000,529.000,-17.000,-411.000,0.000,0.000,0
2026-01-30 23:18:01,1106094,2589.000,-72.000,6090.000,792.000,-71.000,-343.000,0.000,0.000,0
2026-01-30 23:18:01,1106134,4125.000,-1283.000,10126.000,-476.000,895.000,-335.000,0.000,0.000,0
2026-01-30 23:18:01,1106174,4758.000,923.000,6266.000,1196.000,-159.000,-394.000,0.000,0.000,0
2026-01-30 23:18:02,1106214,4293.000,-96.000,7189.000,440.000,-54.000,-136.000,0.000,0.000,0
2026-01-30 23:18:02,1106254,4337.000,758.000,7648.000,198.000,-176.000,-293.000,0.000,0.000,0
2026-01-30 23:18:02,1106294,3803.000,1131.000,7630.000,-106.000,-1052.000,-410.000,0.000,0.000,0
2026-01-30 23:18:02,1106334,3868.000,-852.000,7131.000,-1893.000,-20.000,-671.000,0.000,0.000,0
2026-01-30 23:18:02,1106374,3719.000,364.000,7676.000,-1488.000,455.000,-881.000,0.000,0.000,0
2026-01-30 23:18:02,1106414,5652.000,-468.000,6510.000,-1980.000,1012.000,-686.000,0.000,0.000,0
2026-01-30 23:18:02,1106454,2666.000,764.000,8614.000,-1232.000,1147.000,-1323.000,0.000,0.000,0
2026-01-30 23:18:02,1106494,5042.000,-141.000,6696.000,-1131.000,705.000,-1010.000,0.000,0.000,0
2026-01-30 23:18:02,1106534,5299.000,889.000,6731.000,-630.000,1378.000,-780.000,0.000,0.000,0
2026-01-30 23:18:02,1106574,4543.000,997.000,6353.000,742.000,695.000,-435.000,0.000,0.000,0
2026-01-30 23:18:02,1106614,4153.000,-655.000,6735.000,-53.000,975.000,-729.000,0.000,0.000,0
2026-01-30 23:18:02,1106654,4283.000,-509.000,5500.000,806.000,1215.000,-456.000,0.000,0.000,0
2026-01-30 23:18:02,1106694,3673.000,-194.000,7395.000,1414.000,2120.000,-898.000,0.000,0.000,0
2026-01-30 23:18:02,1106734,3022.000,-25.000,8404.000,1570.000,1831.000,-506.000,0.000,0.000,0
2026-01-30 23:18:02,1106774,3158.000,1140.000,8600.000,886.000,968.000,-581.000,0.000,0.000,0
2026-01-30 23:18:02,1106814,1935.000,230.000,7232.000,105.000,870.000,-532.000,0.000,0.000,0
2026-01-30 23:18:02,1106857,2929.000,-133.000,8203.000,172.000,971.000,-736.000,0.000,0.000,0
2026-01-30 23:18:02,1106894,1010.000,-469.000,7842.000,-182.000,835.000,-461.000,0.000,0.000,0
2026-01-30 23:18:02,1106934,5530.000,234.000,9126.000,523.000,-15.000,-122.000,0.000,0.000,0
2026-01-30 23:18:02,1106974,4051.000,285.000,8292.000,-85.000,241.000,-47.000,0.000,0.000,0
2026-01-30 23:18:02,1107014,572.000,-392.000,7578.000,-627.000,90.000,-79.000,0.000,0.000,0
2026-01-30 23:18:02,1107054,2814.000,766.000,7916.000,-152.000,-817.000,-52.000,0.000,0.000,0
2026-01-30 23:18:02,1107094,9534.000,2582.000,9633.000,-930.000,-323.000,-240.000,0.000,0.000,0
2026-01-30 23:18:02,1107137,4170.000,-1783.000,7285.000,986.000,-677.000,1009.000,0.000,0.000,0
2026-01-30 23:18:02,1107174,1623.000,14.000,7479.000,-374.000,-881.000,17.000,0.000,0.000,0
2026-01-30 23:18:03,1107214,6818.000,1525.000,8003.000,-1322.000,-1016.000,-215.000,0.000,0.000,0
2026-01-30 23:18:03,1107254,4456.000,1311.000,7953.000,-658.000,-933.000,-232.000,0.000,0.000,0
2026-01-30 23:18:03,1107294,10239.000,1483.000,9195.000,-2722.000,69.000,175.000,0.000,0.000,0
2026-01-30 23:18:03,1107334,-5538.000,-146.000,5089.000,1580.000,-2347.000,-342.000,0.000,0.000,0
2026-01-30 23:18:03,1107374,-2608.000,-5078.000,8029.000,-1452.000,-2660.000,728.000,0.000,0.000,0
2026-01-30 23:18:03,1107414,11512.000,-1335.000,6811.000,-2636.000,-814.000,1746.000,0.000,0.000,0
2026-01-30 23:18:03,1107454,3320.000,4078.000,6480.000,2389.000,-1238.000,1576.000,0.000,0.000,0
2026-01-30 23:18:03,1107494,1892.000,-3683.000,8968.000,-1513.000,-1750.000,616.000,0.000,0.000,0
2026-01-30 23:18:03,1107534,4899.000,-3303.000,6810.000,-1941.000,584.000,916.000,0.000,0.000,0
2026-01-30 23:18:03,1107574,5796.000,1962.000,7536.000,1833.000,626.000,1051.000,0.000,0.000,0
2026-01-30 23:18:03,1107614,4731.000,2490.000,7704.000,1638.000,263.000,1038.000,0.000,0.000,0
2026-01-30 23:18:03,1107654,1484.000,-2690.000,5592.000,311.000,-1152.000,98.000,0.000,0.000,0
2026-01-30 23:18:03,1107694,6627.000,4382.000,5228.000,3956.000,-1589.000,593.000,0.000,0.000,0
2026-01-30 23:18:03,1107734,3462.000,-1550.000,5256.000,1117.000,70.000,507.000,0.000,0.000,0
2026-01-30 23:18:03,1107774,2139.000,-1987.000,6786.000,1220.000,935.000,15.000,0.000,0.000,0
2026-01-30 23:18:03,1107814,4485.000,-658.000,8004.000,415.000,1334.000,-200.000,0.000,0.000,0
2026-01-30 23:18:03,1107854,4383.000,431.000,8757.000,31.000,243.000,94.000,0.000,0.000,0
2026-01-30 23:18:03,1107894,1474.000,2278.000,7051.000,-80.000,-530.000,-416.000,0.000,0.000,0
2026-01-30 23:18:03,1107934,1812.000,-380.000,6248.000,-897.000,-184.000,-505.000,0.000,0.000,0
2026-01-30 23:18:03,1107974,3121.000,336.000,8149.000,-588.000,-560.000,-469.000,0.000,0.000,0
2026-01-30 23:18:03,1108014,4927.000,1861.000,4147.000,823.000,-999.000,-155.000,0.000,0.000,0
2026-01-30 23:18:03,1108054,4712.000,-2118.000,8109.000,-2216.000,1618.000,-462.000,0.000,0.000,0
2026-01-30 23:18:03,1108094,3181.000,-193.000,7888.000,141.000,284.000,-1069.000,0.000,0.000,0
2026-01-30 23:18:03,1108134,4943.000,-42.000,7306.000,435.000,-281.000,55.000,0.000,0.000,0
2026-01-30 23:18:03,1108174,2204.000,6.000,7829.000,83.000,-771.000,-3.000,0.000,0.000,0
2026-01-30 23:18:04,1108214,11293.000,1634.000,7375.000,-2176.000,182.000,-30.000,0.000,0.000,0
2026-01-30 23:18:04,1108254,-153.000,-4.000,6926.000,539.000,-1778.000,-1249.000,0.000,0.000,0
2026-01-30 23:18:04,1108294,5735.000,791.000,8948.000,-1578.000,998.000,-478.000,0.000,0.000,0
2026-01-30 23:18:04,1108334,-2752.000,-1020.000,8152.000,257.000,456.000,-864.000,0.000,0.000,0
2026-01-30 23:18:04,1108374,12451.000,7231.000,-312.000,4624.000,-1095.000,1095.000,0.000,0.000,0
2026-01-30 23:18:04,1108414,2889.000,-6353.000,5253.000,-2886.000,1283.000,866.000,0.000,0.000,0
2026-01-30 23:18:04,1108454,5682.000,-393.000,8756.000,1231.000,519.000,-54.000,0.000,0.000,0
2026-01-30 23:18:04,1108494,1692.000,208.000,9240.000,3367.000,-276.000,-655.000,0.000,0.000,0
2026-01-30 23:18:04,1108534,10484.000,216.000,6407.000,-456.000,1199.000,128.000,0.000,0.000,0
2026-01-30 23:18:04,1108574,2189.000,2018.000,8432.000,2505.000,766.000,-399.000,0.000,0.000,0
2026-01-30 23:18:04,1108614,2227.000,-742.000,4697.000,898.000,562.000,404.000,0.000,0.000,0
2026-01-30 23:18:04,1108654,4431.000,-745.000,11200.000,901.000,1006.000,511.000,0.000,0.000,0
2026-01-30 23:18:04,1108694,7327.000,2265.000,8784.000,-614.000,-117.000,-651.000,0.000,0.000,0
2026-01-30 23:18:04,1108734,-7731.000,74.000,5147.000,-2205.000,70.000,-1851.000,0.000,0.000,0
2026-01-30 23:18:04,1108774,5893.000,2527.000,5697.000,-183.000,-1093.000,530.000,0.000,0.000,0
2026-01-30 23:18:04,1108814,4814.000,810.000,7408.000,-1585.000,1445.000,124.000,0.000,0.000,0
2026-01-30 23:18:04,1108854,4341.000,658.000,7676.000,72.000,996.000,-503.000,0.000,0.000,0
2026-01-30 23:18:04,1108895,4299.000,232.000,7165.000,570.000,617.000,-271.000,0.000,0.000,0
2026-01-30 23:18:04,1108934,5028.000,1847.000,8389.000,465.000,-1025.000,-489.000,0.000,0.000,0
2026-01-30 23:18:04,1108974,3985.000,318.000,7115.000,-125.000,-1889.000,-16.000,0.000,0.000,0
2026-01-30 23:18:04,1109014,5995.000,2054.000,6701.000,-616.000,-836.000,41.000,0.000,0.000,0
2026-01-30 23:18:04,1109054,1067.000,-427.000,7757.000,-1556.000,0.000,-263.000,0.000,0.000,0
2026-01-30 23:18:04,1109094,2992.000,165.000,9981.000,-2436.000,543.000,206.000,0.000,0.000,0
2026-01-30 23:18:04,1109137,14841.000,5572.000,6044.000,-2389.000,-1678.000,1931.000,0.000,0.000,0
2026-01-30 23:18:04,1109174,6244.000,-4065.000,8396.000,-6353.000,671.000,1036.000,0.000,0.000,0
2026-01-30 23:18:05,1109214,4696.000,3870.000,9561.000,159.000,-826.000,502.000,0.000,0.000,0
2026-01-30 23:18:05,1109254,4789.000,679.000,6322.000,-1879.000,-1524.000,261.000,0.000,0.000,0
2026-01-30 23:18:05,1109294,7340.000,698.000,7329.000,-2904.000,-601.000,5.000,0.000,0.000,0
2026-01-30 23:18:05,1109334,-1293.000,-2791.000,7880.000,-1361.000,-1597.000,-681.000,0.000,0.000,0
2026-01-30 23:18:05,1109374,3903.000,889.000,4457.000,420.000,-2666.000,813.000,0.000,0.000,0
2026-01-30 23:18:05,1109414,7869.000,-834.000,4544.000,-2412.000,1088.000,702.000,0.000,0.000,0
2026-01-30 23:18:05,1109454,3220.000,-659.000,9361.000,515.000,-561.000,-367.000,0.000,0.000,0
2026-01-30 23:18:05,1109494,5570.000,232.000,4782.000,-188.000,-856.000,-494.000,0.000,0.000,0
2026-01-30 23:18:05,1109534,5689.000,-2249.000,4388.000,504.000,407.000,70.000,0.000,0.000,0
2026-01-30 23:18:05,1109574,4341.000,-1734.000,7498.000,2452.000,994.000,-101.000,0.000,0.000,0
2026-01-30 23:18:05,1109614,6271.000,-1127.000,6792.000,1777.000,141.000,216.000,0.000,0.000,0
2026-01-30 23:18:05,1109654,4868.000,470.000,5695.000,1768.000,-1226.000,-174.000,0.000,0.000,0
2026-01-30 23:18:05,1109694,2886.000,1119.000,9061.000,1463.000,-1599.000,-163.000,0.000,0.000,0
2026-01-30 23:18:05,1109734,5897.000,-689.000,6125.000,530.000,-542.000,253.000,0.000,0.000,0
2026-01-30 23:18:05,1109774,2935.000,-237.000,6859.000,1883.000,142.000,55.000,0.000,0.000,0
2026-01-30 23:18:05,1109814,3853.000,106.000,7818.000,911.000,1044.000,-860.000,0.000,0.000,0
2026-01-30 23:18:05,1109854,4359.000,558.000,8794.000,-1273.000,944.000,-1258.000,0.000,0.000,0
2026-01-30 23:18:05,1109894,4420.000,1375.000,7149.000,-991.000,-400.000,-754.000,0.000,0.000,0
2026-01-30 23:18:05,1109934,4375.000,1764.000,6272.000,-1328.000,-494.000,-506.000,0.000,0.000,0
2026-01-30 23:18:05,1109974,5251.000,947.000,8243.000,-1290.000,623.000,-477.000,0.000,0.000,0
2026-01-30 23:18:05,1110014,4291.000,253.000,5550.000,-81.000,734.000,-923.000,0.000,0.000,0
2026-01-30 23:18:05,1110054,8469.000,-166.000,5769.000,-1118.000,1580.000,-569.000,0.000,0.000,0
2026-01-30 23:18:05,1110094,5473.000,326.000,6696.000,1053.000,1250.000,-920.000,0.000,0.000,0
2026-01-30 23:18:05,1110134,3118.000,-611.000,8649.000,-401.000,693.000,-1081.000,0.000,0.000,0
2026-01-30 23:18:05,1110174,5202.000,-289.000,6297.000,791.000,-550.000,-136.000,0.000,0.000,0
2026-01-30 23:18:06,1110214,4363.000,-120.000,6163.000,1698.000,147.000,0.000,0.000,0.000,0
2026-01-30 23:18:06,1110254,1676.000,-2130.000,7335.000,1115.000,-121.000,-339.000,0.000,0.000,0
2026-01-30 23:18:06,1110294,14839.000,3604.000,6011.000,-2011.000,3487.000,461.000,0.000,0.000,0
2026-01-30 23:18:06,1110334,677.000,-1651.000,8222.000,4043.000,121.000,-442.000,0.000,0.000,0
2026-01-30 23:18:06,1110374,5534.000,-448.000,5568.000,82.000,937.000,-319.000,0.000,0.000,0
2026-01-30 23:18:06,1110414,4658.000,1042.000,7406.000,1953.000,1906.000,181.000,0.000,0.000,0
2026-01-30 23:18:06,1110454,2075.000,-9.000,7773.000,1996.000,891.000,514.000,0.000,0.000,0
2026-01-30 23:18:06,1110494,4272.000,-31.000,8878.000,2606.000,376.000,-164.000,0.000,0.000,0
2026-01-30 23:18:06,1110534,4809.000,2118.000,6877.000,1581.000,88.000,96.000,0.000,0.000,0
2026-01-30 23:18:06,1110574,5022.000,687.000,5444.000,950.000,1084.000,763.000,0.000,0.000,0
2026-01-30 23:18:06,1110614,5111.000,1421.000,6165.000,1287.000,1086.000,621.000,0.000,0.000,0
2026-01-30 23:18:06,1110654,6178.000,1209.000,6947.000,2821.000,878.000,208.000,0.000,0.000,0
2026-01-30 23:18:06,1110694,3952.000,1074.000,7215.000,2632.000,1212.000,571.000,0.000,0.000,0
2026-01-30 23:18:06,1110734,4011.000,2098.000,8465.000,2203.000,473.000,347.000,0.000,0.000,0
2026-01-30 23:18:06,1110774,1743.000,-1220.000,8550.000,550.000,50.000,366.000,0.000,0.000,0
2026-01-30 23:18:06,1110814,2309.000,-617.000,7774.000,63.000,11.000,553.000,0.000,0.000,0
2026-01-30 23:18:06,1110857,2301.000,-70.000,6356.000,-1887.000,86.000,515.000,0.000,0.000,0
2026-01-30 23:18:06,1110897,3706.000,3563.000,8034.000,-2143.000,1204.000,700.000,0.000,0.000,0
2026-01-30 23:18:06,1110934,3672.000,1599.000,7804.000,-2960.000,989.000,972.000,0.000,0.000,0
2026-01-30 23:18:06,1110974,2190.000,493.000,8488.000,-1389.000,-507.000,1405.000,0.000,0.000,0
2026-01-30 23:18:06,1111014,4424.000,-452.000,7389.000,-2318.000,-863.000,1137.000,0.000,0.000,0
2026-01-30 23:18:06,1111054,2428.000,-33.000,6935.000,-929.000,-1864.000,817.000,0.000,0.000,0
2026-01-30 23:18:06,1111094,5495.000,964.000,8753.000,-860.000,-2126.000,861.000,0.000,0.000,0
2026-01-30 23:18:06,1111137,6078.000,671.000,5390.000,2697.000,-4028.000,810.000,0.000,0.000,0
2026-01-30 23:18:06,1111174,7941.000,909.000,6249.000,1320.000,-3027.000,432.000,0.000,0.000,0
2026-01-30 23:18:07,1111214,4836.000,236.000,8067.000,2599.000,-2990.000,402.000,0.000,0.000,0
2026-01-30 23:18:07,1111254,4896.000,-587.000,2426.000,4220.000,-2767.000,447.000,0.000,0.000,0
2026-01-30 23:18:07,1111294,6689.000,3183.000,-170.000,3530.000,-1038.000,868.000,0.000,0.000,0
2026-01-30 23:18:07,1111334,6249.000,-1421.000,5229.000,3734.000,1270.000,1804.000,0.000,0.000,0
2026-01-30 23:18:07,1111374,4757.000,356.000,3021.000,4737.000,2358.000,963.000,0.000,0.000,0
2026-01-30 23:18:07,1111414,3685.000,228.000,11339.000,2661.000,1099.000,1866.000,0.000,0.000,0
2026-01-30 23:18:07,1111454,6789.000,1031.000,7715.000,3214.000,-377.000,2379.000,0.000,0.000,0
2026-01-30 23:18:07,1111494,7901.000,3729.000,9331.000,2557.000,245.000,2012.000,0.000,0.000,0
2026-01-30 23:18:07,1111534,4459.000,2529.000,7290.000,1837.000,458.000,2275.000,0.000,0.000,0
2026-01-30 23:18:07,1111574,5040.000,1689.000,6775.000,92.000,618.000,2249.000,0.000,0.000,0
2026-01-30 23:18:07,1111614,4694.000,3432.000,8485.000,-272.000,109.000,1628.000,0.000,0.000,0
2026-01-30 23:18:07,1111654,3535.000,3380.000,8394.000,-1333.000,-150.000,1341.000,0.000,0.000,0
2026-01-30 23:18:07,1111694,2862.000,1913.000,6717.000,-1533.000,-79.000,900.000,0.000,0.000,0
2026-01-30 23:18:07,1111734,5377.000,759.000,4412.000,-1217.000,378.000,335.000,0.000,0.000,0
2026-01-30 23:18:07,1111774,6090.000,1792.000,5784.000,46.000,-1.000,150.000,0.000,0.000,0
2026-01-30 23:18:07,1111814,3942.000,32.000,4974.000,-225.000,-270.000,419.000,0.000,0.000,0
2026-01-30 23:18:07,1111854,3918.000,-2117.000,6841.000,-1280.000,-145.000,836.000,0.000,0.000,0
2026-01-30 23:18:07,1111894,3708.000,-167.000,7338.000,-757.000,-142.000,-103.000,0.000,0.000,0
2026-01-30 23:18:07,1111934,4399.000,-667.000,8001.000,-2121.000,-327.000,-124.000,0.000,0.000,0
2026-01-30 23:18:07,1111974,3544.000,689.000,7775.000,-882.000,-228.000,-205.000,0.000,0.000,0
2026-01-30 23:18:07,1112014,6051.000,2508.000,7482.000,-2332.000,650.000,-331.000,0.000,0.000,0
2026-01-30 23:18:07,1112054,3442.000,-447.000,6839.000,-2057.000,1194.000,-38.000,0.000,0.000,0
2026-01-30 23:18:07,1112094,4381.000,-707.000,6412.000,-1388.000,1664.000,-237.000,0.000,0.000,0
2026-01-30 23:18:07,1112134,5377.000,-234.000,5964.000,-656.000,1819.000,22.000,0.000,0.000,0
2026-01-30 23:18:07,1112174,5224.000,1400.000,6048.000,614.000,1485.000,-430.000,0.000,0.000,0
2026-01-30 23:18:08,1112214,5700.000,262.000,6346.000,1078.000,1073.000,-135.000,0.000,0.000,0
2026-01-30 23:18:08,1112254,4076.000,-3240.000,4694.000,1065.000,2312.000,479.000,0.000,0.000,0
2026-01-30 23:18:08,1112294,5165.000,603.000,8198.000,2758.000,3074.000,992.000,0.000,0.000,0
2026-01-30 23:18:08,1112334,5057.000,531.000,7723.000,3987.000,2007.000,1274.000,0.000,0.000,0
2026-01-30 23:18:08,1112374,4314.000,1524.000,6476.000,4021.000,1571.000,890.000,0.000,0.000,0
2026-01-30 23:18:08,1112414,6566.000,3024.000,8559.000,1357.000,1933.000,678.000,0.000,0.000,0
2026-01-30 23:18:08,1112454,1780.000,-1776.000,6927.000,2210.000,1757.000,1715.000,0.000,0.000,0
2026-01-30 23:18:08,1112494,2624.000,2706.000,10639.000,3824.000,1893.000,211.000,0.000,0.000,0
2026-01-30 23:18:08,1112534,1816.000,1854.000,9223.000,142.000,1409.000,510.000,0.000,0.000,0
2026-01-30 23:18:08,1112574,2229.000,2351.000,9514.000,-284.000,878.000,563.000,0.000,0.000,0
2026-01-30 23:18:08,1112614,3841.000,3103.000,9722.000,-905.000,650.000,525.000,0.000,0.000,0
2026-01-30 23:18:08,1112654,1717.000,1334.000,8932.000,-2055.000,367.000,498.000,0.000,0.000,0
2026-01-30 23:18:08,1112694,1553.000,1267.000,7874.000,-2179.000,-3.000,61.000,0.000,0.000,0
2026-01-30 23:18:08,1112734,3563.000,2040.000,8221.000,-1729.000,-650.000,15.000,0.000,0.000,0
2026-01-30 23:18:08,1112774,1730.000,184.000,7707.000,-2463.000,-485.000,11.000,0.000,0.000,0
2026-01-30 23:18:08,1112814,1101.000,934.000,7740.000,-2622.000,-346.000,-484.000,0.000,0.000,0
2026-01-30 23:18:08,1112857,2767.000,419.000,7157.000,-1522.000,-614.000,-257.000,0.000,0.000,0
2026-01-30 23:18:08,1112896,2858.000,111.000,6951.000,-580.000,-1153.000,-362.000,0.000,0.000,0
2026-01-30 23:18:08,1112934,3977.000,-449.000,7002.000,-463.000,-1399.000,-325.000,0.000,0.000,0
2026-01-30 23:18:08,1112974,3431.000,-317.000,7801.000,17.000,-1734.000,-324.000,0.000,0.000,0
2026-01-30 23:18:08,1113014,4169.000,975.000,7237.000,370.000,-1916.000,-401.000,0.000,0.000,0
2026-01-30 23:18:08,1113054,3741.000,-497.000,8804.000,251.000,-2452.000,137.000,0.000,0.000,0
2026-01-30 23:18:08,1113094,3410.000,-1031.000,5607.000,569.000,-2768.000,445.000,0.000,0.000,0
2026-01-30 23:18:08,1113137,6151.000,362.000,6292.000,478.000,-2240.000,1208.000,0.000,0.000,0
2026-01-30 23:18:08,1113174,5994.000,398.000,6309.000,1195.000,-2341.000,1201.000,0.000,0.000,0
2026-01-30 23:18:09,1113214,5089.000,-36.000,4930.000,2553.000,-2099.000,1178.000,0.000,0.000,0
2026-01-30 23:18:09,1113254,4830.000,-1951.000,5313.000,2192.000,-1619.000,1724.000,0.000,0.000,0
2026-01-30 23:18:09,1113294,3810.000,-11.000,8176.000,1905.000,-135.000,1742.000,0.000,0.000,0
2026-01-30 23:18:09,1113334,5623.000,-419.000,6879.000,1597.000,302.000,2280.000,0.000,0.000,0
2026-01-30 23:18:09,1113374,6450.000,1094.000,7712.000,1855.000,912.000,2221.000,0.000,0.000,0
2026-01-30 23:18:09,1113414,3391.000,-94.000,8597.000,1377.000,532.000,1779.000,0.000,0.000,0
2026-01-30 23:18:09,1113454,4454.000,1923.000,8209.000,519.000,271.000,1602.000,0.000,0.000,0
2026-01-30 23:18:09,1113494,2250.000,1452.000,8156.000,-63.000,-42.000,1595.000,0.000,0.000,0
2026-01-30 23:18:09,1113534,2776.000,-527.000,9444.000,-1748.000,900.000,1560.000,0.000,0.000,0
2026-01-30 23:18:09,1113574,3055.000,556.000,7558.000,-1171.000,909.000,868.000,0.000,0.000,0
2026-01-30 23:18:09,1113614,2571.000,1298.000,7527.000,-1703.000,-9.000,405.000,0.000,0.000,0
2026-01-30 23:18:09,1113654,3450.000,483.000,8089.000,-2467.000,440.000,-233.000,0.000,0.000,0
2026-01-30 23:18:09,1113694,3692.000,1958.000,8480.000,-1174.000,-376.000,-574.000,0.000,0.000,0
2026-01-30 23:18:09,1113734,4700.000,-81.000,5728.000,-463.000,-673.000,-328.000,0.000,0.000,0
2026-01-30 23:18:09,1113774,4384.000,-119.000,6125.000,-3.000,-340.000,-139.000,0.000,0.000,0
2026-01-30 23:18:09,1113814,2663.000,263.000,8363.000,636.000,-134.000,-398.000,0.000,0.000,0
2026-01-30 23:18:09,1113854,4544.000,-733.000,7091.000,1773.000,-1623.000,902.000,0.000,0.000,0
2026-01-30 23:18:09,1113894,7755.000,-1948.000,4871.000,2201.000,-2049.000,759.000,0.000,0.000,0
2026-01-30 23:18:09,1113934,2906.000,-2068.000,6735.000,3275.000,-1352.000,-879.000,0.000,0.000,0
2026-01-30 23:18:09,1113974,3574.000,45.000,8858.000,-724.000,-76.000,-1669.000,0.000,0.000,0
2026-01-30 23:18:09,1114014,5721.000,49.000,7050.000,495.000,676.000,-288.000,0.000,0.000,0
2026-01-30 23:18:09,1114054,4111.000,-1181.000,6514.000,-31.000,1357.000,-391.000,0.000,0.000,0
2026-01-30 23:18:09,1114094,5830.000,-4.000,6754.000,121.000,1695.000,-18.000,0.000,0.000,0
2026-01-30 23:18:09,1114134,4702.000,-244.000,6986.000,1945.000,792.000,433.000,0.000,0.000,0
2026-01-30 23:18:09,1114174,4499.000,-509.000,5936.000,2175.000,316.000,750.000,0.000,0.000,0
2026-01-30 23:18:10,1114214,6907.000,-82.000,7085.000,1551.000,931.000,1240.000,0.000,0.000,0
2026-01-30 23:18:10,1114254,5293.000,-95.000,6137.000,2152.000,732.000,1085.000,0.000,0.000,0
2026-01-30 23:18:10,1114294,7243.000,1741.000,4891.000,2760.000,787.000,1853.000,0.000,0.000,0
2026-01-30 23:18:10,1114334,5291.000,130.000,7513.000,1792.000,1622.000,1505.000,0.000,0.000,0
2026-01-30 23:18:10,1114374,4249.000,1009.000,8767.000,1261.000,1506.000,802.000,0.000,0.000,0
2026-01-30 23:18:10,1114414,1668.000,317.000,8245.000,656.000,984.000,376.000,0.000,0.000,0
2026-01-30 23:18:10,1114454,1988.000,68.000,7437.000,-285.000,543.000,491.000,0.000,0.000,0
2026-01-30 23:18:10,1114494,6301.000,3487.000,7303.000,-852.000,1290.000,285.000,0.000,0.000,0
2026-01-30 23:18:10,1114534,3664.000,3254.000,6908.000,84.000,1253.000,612.000,0.000,0.000,0
2026-01-30 23:18:10,1114574,3821.000,1067.000,6911.000,-1185.000,1221.000,836.000,0.000,0.000,0
2026-01-30 23:18:10,1114614,5102.000,514.000,8876.000,-1379.000,1168.000,972.000,0.000,0.000,0
2026-01-30 23:18:10,1114654,6482.000,389.000,7090.000,-155.000,-256.000,1259.000,0.000,0.000,0
2026-01-30 23:18:10,1114694,4376.000,-48.000,6557.000,918.000,-898.000,679.000,0.000,0.000,0
2026-01-30 23:18:10,1114734,3299.000,-2022.000,7151.000,312.000,-381.000,-50.000,0.000,0.000,0
2026-01-30 23:18:10,1114774,4333.000,710.000,9201.000,1259.000,876.000,-406.000,0.000,0.000,0
2026-01-30 23:18:10,1114814,3815.000,-404.000,8620.000,2315.000,425.000,182.000,0.000,0.000,0
2026-01-30 23:18:10,1114854,4784.000,2382.000,7300.000,1265.000,521.000,-175.000,0.000,0.000,0
2026-01-30 23:18:10,1114894,6072.000,2630.000,6277.000,1619.000,-91.000,1316.000,0.000,0.000,0
2026-01-30 23:18:10,1114938,2655.000,-1585.000,5946.000,2358.000,-939.000,1923.000,0.000,0.000,0
2026-01-30 23:18:10,1114974,8041.000,-2444.000,5057.000,1880.000,-510.000,2126.000,0.000,0.000,0
2026-01-30 23:18:10,1115014,2484.000,-3367.000,7245.000,2423.000,-402.000,835.000,0.000,0.000,0
2026-01-30 23:18:10,1115054,4160.000,2407.000,9283.000,1439.000,-313.000,721.000,0.000,0.000,0
2026-01-30 23:18:10,1115094,4330.000,2110.000,7858.000,572.000,-748.000,2003.000,0.000,0.000,0
2026-01-30 23:18:10,1115140,3134.000,1276.000,8702.000,-869.000,273.000,1954.000,0.000,0.000,0
2026-01-30 23:18:10,1115174,5288.000,1513.000,7203.000,-1592.000,984.000,1838.000,0.000,0.000,0
2026-01-30 23:18:11,1115214,-2011.000,-796.000,8917.000,-1609.000,-313.000,1367.000,0.000,0.000,0
2026-01-30 23:18:11,1115254,9458.000,4579.000,7097.000,-2691.000,-109.000,1534.000,0.000,0.000,0
2026-01-30 23:18:11,1115294,3819.000,1967.000,6956.000,-1926.000,-90.000,1247.000,0.000,0.000,0
2026-01-30 23:18:11,1115334,5633.000,3653.000,7893.000,-2682.000,30.000,899.000,0.000,0.000,0
2026-01-30 23:18:11,1115374,4858.000,2731.000,6584.000,-2003.000,-82.000,697.000,0.000,0.000,0
2026-01-30 23:18:11,1115414,4769.000,1678.000,7476.000,-1707.000,708.000,508.000,0.000,0.000,0
2026-01-30 23:18:11,1115454,5179.000,1154.000,6137.000,-209.000,-150.000,531.000,0.000,0.000,0
2026-01-30 23:18:11,1115494,5353.000,-1272.000,5369.000,406.000,65.000,798.000,0.000,0.000,0
2026-01-30 23:18:11,1115534,6174.000,-515.000,5696.000,1064.000,-603.000,758.000,0.000,0.000,0
2026-01-30 23:18:11,1115574,1187.000,126.000,8150.000,1462.000,-760.000,491.000,0.000,0.000,0
2026-01-30 23:18:11,1115614,3609.000,-925.000,6435.000,-255.000,-448.000,357.000,0.000,0.000,0
2026-01-30 23:18:11,1115654,4060.000,67.000,7124.000,-829.000,724.000,38.000,0.000,0.000,0
2026-01-30 23:18:11,1115694,4660.000,698.000,7809.000,-101.000,605.000,-365.000,0.000,0.000,0
2026-01-30 23:18:11,1115734,6485.000,1030.000,2400.000,3144.000,-1947.000,519.000,0.000,0.000,0
2026-01-30 23:18:11,1115774,-3529.000,-5293.000,10414.000,-3413.000,2074.000,-1459.000,0.000,0.000,0
2026-01-30 23:18:11,1115814,7718.000,2548.000,4296.000,3652.000,-1684.000,-221.000,0.000,0.000,0
2026-01-30 23:18:11,1115854,2800.000,-253.000,7137.000,3483.000,-840.000,542.000,0.000,0.000,0
2026-01-30 23:18:11,1115894,5178.000,-1828.000,7316.000,2561.000,-632.000,1762.000,0.000,0.000,0
2026-01-30 23:18:11,1115934,2563.000,-401.000,7883.000,2830.000,-1445.000,1224.000,0.000,0.000,0
2026-01-30 23:18:11,1115974,2010.000,-2026.000,8428.000,-594.000,-507.000,851.000,0.000,0.000,0
2026-01-30 23:18:11,1116014,3633.000,1842.000,11138.000,-976.000,942.000,645.000,0.000,0.000,0
2026-01-30 23:18:11,1116054,1658.000,4565.000,12244.000,983.000,-538.000,209.000,0.000,0.000,0
2026-01-30 23:18:11,1116094,5923.000,3802.000,5468.000,-2001.000,564.000,663.000,0.000,0.000,0
2026-01-30 23:18:11,1116134,2881.000,-387.000,8006.000,-2515.000,809.000,-180.000,0.000,0.000,0
2026-01-30 23:18:11,1116174,6263.000,2243.000,5474.000,-1511.000,63.000,-113.000,0.000,0.000,0
2026-01-30 23:18:12,1116214,2544.000,908.000,7442.000,-1712.000,-377.000,-807.000,0.000,0.000,0
2026-01-30 23:18:12,1116254,3770.000,-646.000,6535.000,-3048.000,554.000,-582.000,0.000,0.000,0
2026-01-30 23:18:12,1116294,5848.000,437.000,7736.000,-3128.000,1674.000,-499.000,0.000,0.000,0
2026-01-30 23:18:12,1116334,4520.000,1467.000,5342.000,-1068.000,1266.000,-500.000,0.000,0.000,0
2026-01-30 23:18:12,1116374,6007.000,-334.000,6623.000,-1466.000,1634.000,-492.000,0.000,0.000,0
2026-01-30 23:18:12,1116414,3096.000,408.000,6819.000,1094.000,1110.000,-19.000,0.000,0.000,0
2026-01-30 23:18:12,1116454,3353.000,-60.000,8806.000,-743.000,1779.000,-639.000,0.000,0.000,0
2026-01-30 23:18:12,1116494,2185.000,709.000,7971.000,-216.000,1112.000,-803.000,0.000,0.000,0
2026-01-30 23:18:12,1116534,2078.000,933.000,8096.000,-1025.000,266.000,-1566.000,0.000,0.000,0
2026-01-30 23:18:12,1116574,3867.000,1559.000,7111.000,-552.000,458.000,-1572.000,0.000,0.000,0
2026-01-30 23:18:12,1116614,2205.000,-1451.000,6692.000,288.000,287.000,-2170.000,0.000,0.000,0
2026-01-30 23:18:12,1116654,3570.000,-968.000,6660.000,779.000,616.000,-1969.000,0.000,0.000,0
2026-01-30 23:18:12,1116694,5031.000,-123.000,7064.000,455.000,-21.000,-1063.000,0.000,0.000,0
2026-01-30 23:18:12,1116734,3962.000,249.000,7244.000,997.000,-371.000,-896.000,0.000,0.000,0
2026-01-30 23:18:12,1116774,5538.000,46.000,7209.000,1103.000,-408.000,-640.000,0.000,0.000,0
2026-01-30 23:18:12,1116814,3076.000,704.000,8519.000,1440.000,-455.000,-564.000,0.000,0.000,0
2026-01-30 23:18:12,1116857,4299.000,-169.000,6918.000,1342.000,-842.000,238.000,0.000,0.000,0
2026-01-30 23:18:12,1116896,4064.000,-53.000,7661.000,1566.000,-609.000,290.000,0.000,0.000,0
2026-01-30 23:18:12,1116934,2915.000,158.000,8291.000,1693.000,-313.000,512.000,0.000,0.000,0
2026-01-30 23:18:12,1116974,2829.000,-701.000,6128.000,2203.000,-571.000,594.000,0.000,0.000,0
2026-01-30 23:18:12,1117014,3197.000,648.000,9948.000,958.000,-732.000,486.000,0.000,0.000,0
2026-01-30 23:18:12,1117054,298.000,-480.000,5930.000,887.000,-2038.000,445.000,0.000,0.000,0
2026-01-30 23:18:12,1117094,12081.000,2502.000,8852.000,-2197.000,-442.000,1837.000,0.000,0.000,0
2026-01-30 23:18:12,1117134,-3265.000,-1978.000,5070.000,-254.000,-1262.000,-959.000,0.000,0.000,0
2026-01-30 23:18:12,1117174,3379.000,1030.000,8222.000,-261.000,-917.000,1228.000,0.000,0.000,0
2026-01-30 23:18:13,1117214,3751.000,340.000,6941.000,74.000,-420.000,1656.000,0.000,0.000,0
2026-01-30 23:18:13,1117254,3014.000,-640.000,6250.000,322.000,130.000,1815.000,0.000,0.000,0
2026-01-30 23:18:13,1117294,4767.000,1803.000,6329.000,1052.000,-261.000,1331.000,0.000,0.000,0
2026-01-30 23:18:13,1117334,3384.000,-952.000,5878.000,-390.000,259.000,1095.000,0.000,0.000,0
2026-01-30 23:18:13,1117374,5242.000,459.000,8323.000,-611.000,806.000,922.000,0.000,0.000,0
2026-01-30 23:18:13,1117414,7876.000,793.000,5757.000,840.000,338.000,1279.000,0.000,0.000,0
2026-01-30 23:18:13,1117454,6800.000,1878.000,6076.000,411.000,643.000,-25.000,0.000,0.000,0
2026-01-30 23:18:13,1117494,2442.000,898.000,9686.000,-62.000,-9.000,-141.000,0.000,0.000,0
2026-01-30 23:18:13,1117534,3427.000,1228.000,7112.000,649.000,-1614.000,25.000,0.000,0.000,0
2026-01-30 23:18:13,1117574,1755.000,-2238.000,6452.000,-1773.000,500.000,-197.000,0.000,0.000,0
2026-01-30 23:18:13,1117614,6630.000,3277.000,3458.000,3970.000,-1085.000,397.000,0.000,0.000,0
2026-01-30 23:18:13,1117654,2575.000,-1153.000,4677.000,1883.000,852.000,731.000,0.000,0.000,0
2026-01-30 23:18:13,1117694,7628.000,-2873.000,7371.000,-757.000,2010.000,614.000,0.000,0.000,0
2026-01-30 23:18:13,1117734,3022.000,848.000,5671.000,3004.000,-329.000,-612.000,0.000,0.000,0
2026-01-30 23:18:13,1117774,3673.000,475.000,8519.000,933.000,863.000,-283.000,0.000,0.000,0
2026-01-30 23:18:13,1117814,2277.000,1381.000,8707.000,-483.000,-545.000,510.000,0.000,0.000,0
2026-01-30 23:18:13,1117854,1664.000,444.000,11975.000,-1403.000,14.000,96.000,0.000,0.000,0
2026-01-30 23:18:13,1117894,3717.000,1682.000,6596.000,-1096.000,-710.000,-166.000,0.000,0.000,0
2026-01-30 23:18:13,1117934,4990.000,-596.000,8309.000,-1625.000,-1410.000,1015.000,0.000,0.000,0
2026-01-30 23:18:13,1117974,6615.000,1139.000,5732.000,-592.000,-1477.000,346.000,0.000,0.000,0
2026-01-30 23:18:13,1118014,4267.000,893.000,4956.000,95.000,-244.000,466.000,0.000,0.000,0
2026-01-30 23:18:13,1118054,2049.000,253.000,8960.000,844.000,-648.000,932.000,0.000,0.000,0
2026-01-30 23:18:13,1118094,3788.000,-1733.000,6700.000,1006.000,-927.000,1939.000,0.000,0.000,0
2026-01-30 23:18:13,1118134,4355.000,-2253.000,7531.000,119.000,-549.000,1711.000,0.000,0.000,0
2026-01-30 23:18:13,1118174,5208.000,1111.000,3778.000,1007.000,-2050.000,1401.000,0.000,0.000,0
2026-01-30 23:18:14,1118214,8842.000,-550.000,3572.000,-1126.000,-996.000,1414.000,0.000,0.000,0
2026-01-30 23:18:14,1118254,6716.000,-835.000,4547.000,1260.000,896.000,1045.000,0.000,0.000,0
2026-01-30 23:18:14,1118294,8099.000,-1570.000,6080.000,730.000,1364.000,738.000,0.000,0.000,0
2026-01-30 23:18:14,1118334,5402.000,-214.000,5349.000,1584.000,-268.000,-191.000,0.000,0.000,0
2026-01-30 23:18:14,1118374,3785.000,-373.000,8073.000,45.000,310.000,84.000,0.000,0.000,0
2026-01-30 23:18:14,1118414,3531.000,-471.000,8591.000,924.000,-681.000,458.000,0.000,0.000,0
2026-01-30 23:18:14,1118454,5863.000,-19.000,5517.000,-296.000,50.000,201.000,0.000,0.000,0
2026-01-30 23:18:14,1118494,4575.000,611.000,7597.000,-307.000,973.000,-681.000,0.000,0.000,0
2026-01-30 23:18:14,1118534,3314.000,741.000,8029.000,-232.000,790.000,-951.000,0.000,0.000,0
2026-01-30 23:18:14,1118574,5345.000,-2867.000,6331.000,-1268.000,1165.000,130.000,0.000,0.000,0
2026-01-30 23:18:14,1118614,6568.000,-306.000,6701.000,301.000,892.000,264.000,0.000,0.000,0
2026-01-30 23:18:14,1118654,4977.000,111.000,6967.000,2147.000,-261.000,-144.000,0.000,0.000,0
2026-01-30 23:18:14,1118694,2992.000,-193.000,6768.000,1989.000,-261.000,-193.000,0.000,0.000,0
2026-01-30 23:18:14,1118734,3828.000,600.000,6888.000,2467.000,1283.000,306.000,0.000,0.000,0
2026-01-30 23:18:14,1118774,-1225.000,-1044.000,8588.000,2027.000,914.000,957.000,0.000,0.000,0
2026-01-30 23:18:14,1118814,13139.000,4343.000,12246.000,2969.000,1190.000,1341.000,0.000,0.000,0
2026-01-30 23:18:14,1118857,2783.000,3457.000,9436.000,1557.000,1226.000,-348.000,0.000,0.000,0
2026-01-30 23:18:14,1118899,4685.000,245.000,7724.000,936.000,859.000,1271.000,0.000,0.000,0
2026-01-30 23:18:14,1118934,3182.000,-972.000,7649.000,503.000,1423.000,833.000,0.000,0.000,0
2026-01-30 23:18:14,1118974,3534.000,1233.000,8460.000,164.000,406.000,471.000,0.000,0.000,0
2026-01-30 23:18:14,1119014,5253.000,215.000,8985.000,-373.000,236.000,567.000,0.000,0.000,0
2026-01-30 23:18:14,1119054,2489.000,849.000,5699.000,-237.000,18.000,251.000,0.000,0.000,0
2026-01-30 23:18:14,1119094,-1515.000,-609.000,10536.000,-523.000,-41.000,-75.000,0.000,0.000,0
2026-01-30 23:18:14,1119137,4382.000,854.000,5242.000,-725.000,429.000,-145.000,0.000,0.000,0
2026-01-30 23:18:14,1119174,4719.000,2600.000,9326.000,-57.000,1620.000,90.000,0.000,0.000,0
2026-01-30 23:18:15,1119214,2228.000,932.000,8551.000,-134.000,-21.000,-148.000,0.000,0.000,0
2026-01-30 23:18:15,1119254,4366.000,30.000,7753.000,-1647.000,-1479.000,106.000,0.000,0.000,0
2026-01-30 23:18:15,1119294,4336.000,571.000,6976.000,-1933.000,-2073.000,11.000,0.000,0.000,0
2026-01-30 23:18:15,1119334,4995.000,1545.000,5121.000,-1296.000,-1807.000,220.000,0.000,0.000,0
2026-01-30 23:18:15,1119374,4788.000,-525.000,7468.000,-2165.000,-188.000,716.000,0.000,0.000,0
2026-01-30 23:18:15,1119414,1207.000,-844.000,7888.000,-717.000,-753.000,828.000,0.000,0.000,0
2026-01-30 23:18:15,1119454,6377.000,-111.000,6441.000,-1638.000,-654.000,1372.000,0.000,0.000,0
2026-01-30 23:18:15,1119494,5527.000,911.000,7983.000,-833.000,173.000,1016.000,0.000,0.000,0
2026-01-30 23:18:15,1119534,4320.000,-107.000,6895.000,-798.000,-726.000,631.000,0.000,0.000,0
2026-01-30 23:18:15,1119574,4947.000,706.000,6184.000,-547.000,-360.000,552.000,0.000,0.000,0
2026-01-30 23:18:15,1119614,9709.000,-172.000,6249.000,-1316.000,306.000,852.000,0.000,0.000,0
2026-01-30 23:18:15,1119654,-1952.000,-1825.000,7545.000,2139.000,-1582.000,-7.000,0.000,0.000,0
2026-01-30 23:18:15,1119694,17051.000,-597.000,978.000,1986.000,-3534.000,1165.000,0.000,0.000,0
2026-01-30 23:18:15,1119734,3443.000,-450.000,8547.000,3485.000,-175.000,976.000,0.000,0.000,0
2026-01-30 23:18:15,1119774,3711.000,-2444.000,7156.000,394.000,-13.000,-459.000,0.000,0.000,0
2026-01-30 23:18:15,1119814,4290.000,-915.000,7259.000,-377.000,611.000,-617.000,0.000,0.000,0
2026-01-30 23:18:15,1119854,3148.000,-1293.000,6594.000,399.000,934.000,-328.000,0.000,0.000,0
2026-01-30 23:18:15,1119894,5299.000,-1291.000,7883.000,-363.000,201.000,295.000,0.000,0.000,0
2026-01-30 23:18:15,1119934,6620.000,-1135.000,4423.000,-704.000,-172.000,-33.000,0.000,0.000,0
2026-01-30 23:18:15,1119974,3773.000,412.000,8154.000,735.000,-137.000,-239.000,0.000,0.000,0
2026-01-30 23:18:15,1120014,4556.000,126.000,4249.000,341.000,-590.000,466.000,0.000,0.000,0
2026-01-30 23:18:15,1120054,4921.000,-1998.000,6392.000,-1699.000,919.000,288.000,0.000,0.000,0
2026-01-30 23:18:15,1120094,4819.000,-16.000,7369.000,108.000,749.000,-235.000,0.000,0.000,0
2026-01-30 23:18:15,1120134,4317.000,-77.000,8737.000,-229.000,500.000,-332.000,0.000,0.000,0
2026-01-30 23:18:15,1120174,3379.000,166.000,7436.000,362.000,-314.000,-390.000,0.000,0.000,0
2026-01-30 23:18:16,1120214,5068.000,-204.000,7569.000,-800.000,-258.000,-227.000,0.000,0.000,0
2026-01-30 23:18:16,1120254,5940.000,1324.000,6090.000,192.000,-493.000,-83.000,0.000,0.000,0
2026-01-30 23:18:16,1120294,5284.000,522.000,6036.000,-61.000,-124.000,-88.000,0.000,0.000,0
2026-01-30 23:18:16,1120334,6275.000,72.000,6478.000,-691.000,1167.000,-418.000,0.000,0.000,0
2026-01-30 23:18:16,1120374,3657.000,-478.000,6790.000,453.000,912.000,-304.000,0.000,0.000,0
2026-01-30 23:18:16,1120414,4595.000,-1323.000,6409.000,-476.000,19.000,14.000,0.000,0.000,0
2026-01-30 23:18:16,1120454,5084.000,-948.000,6428.000,-441.000,-495.000,80.000,0.000,0.000,0
2026-01-30 23:18:16,1120494,5054.000,-816.000,6104.000,11.000,160.000,-409.000,0.000,0.000,0
2026-01-30 23:18:16,1120534,3866.000,-392.000,7204.000,452.000,249.000,-275.000,0.000,0.000,0
2026-01-30 23:18:16,1120574,3185.000,-830.000,7240.000,465.000,411.000,-215.000,0.000,0.000,0
2026-01-30 23:18:16,1120614,4838.000,342.000,7377.000,490.000,275.000,201.000,0.000,0.000,0
2026-01-30 23:18:16,1120654,3679.000,-430.000,7896.000,417.000,813.000,-229.000,0.000,0.000,0
2026-01-30 23:18:16,1120694,3852.000,-273.000,7472.000,326.000,673.000,-80.000,0.000,0.000,0
2026-01-30 23:18:16,1120734,3998.000,-34.000,7485.000,241.000,187.000,88.000,0.000,0.000,0
2026-01-30 23:18:16,1120774,5333.000,740.000,6951.000,-255.000,-144.000,157.000,0.000,0.000,0
2026-01-30 23:18:16,1120814,4877.000,-376.000,6819.000,38.000,-561.000,294.000,0.000,0.000,0
2026-01-30 23:18:16,1120857,3199.000,-1097.000,7620.000,-513.000,-255.000,-161.000,0.000,0.000,0
2026-01-30 23:18:16,1120897,4174.000,60.000,7028.000,-779.000,-417.000,-52.000,0.000,0.000,0
2026-01-30 23:18:16,1120934,4322.000,53.000,6389.000,-822.000,-98.000,-53.000,0.000,0.000,0
2026-01-30 23:18:16,1120974,5263.000,-444.000,7415.000,-1127.000,659.000,210.000,0.000,0.000,0
2026-01-30 23:18:16,1121014,3674.000,-308.000,6292.000,-156.000,479.000,-6.000,0.000,0.000,0
2026-01-30 23:18:16,1121054,4838.000,-1012.000,7860.000,-1246.000,951.000,392.000,0.000,0.000,0
2026-01-30 23:18:16,1121094,4847.000,305.000,7508.000,-883.000,-763.000,482.000,0.000,0.000,0
2026-01-30 23:18:16,1121135,5544.000,55.000,5305.000,-710.000,-1556.000,209.000,0.000,0.000,0
2026-01-30 23:18:16,1121174,4206.000,-1142.000,6816.000,-493.000,-876.000,193.000,0.000,0.000,0
2026-01-30 23:18:17,1121214,5685.000,-528.000,6034.000,222.000,125.000,-210.000,0.000,0.000,0
2026-01-30 23:18:17,1121254,4940.000,-940.000,7188.000,-129.000,-42.000,375.000,0.000,0.000,0
2026-01-30 23:18:17,1121294,5455.000,-1185.000,7320.000,-670.000,-774.000,62.000,0.000,0.000,0
2026-01-30 23:18:17,1121334,5054.000,-762.000,6207.000,-189.000,-1488.000,33.000,0.000,0.000,0
2026-01-30 23:18:17,1121374,5483.000,-1.000,5632.000,378.000,-1270.000,286.000,0.000,0.000,0
2026-01-30 23:18:17,1121414,4104.000,-692.000,6926.000,1070.000,-539.000,315.000,0.000,0.000,0
2026-01-30 23:18:17,1121454,5413.000,-561.000,6505.000,874.000,-348.000,422.000,0.000,0.000,0
2026-01-30 23:18:17,1121494,4684.000,-435.000,6961.000,739.000,115.000,172.000,0.000,0.000,0
2026-01-30 23:18:17,1121534,3420.000,-641.000,8119.000,633.000,-6.000,-60.000,0.000,0.000,0
2026-01-30 23:18:17,1121574,5431.000,-840.000,7631.000,89.000,404.000,-80.000,0.000,0.000,0
2026-01-30 23:18:17,1121614,3569.000,-1179.000,8206.000,170.000,217.000,53.000,0.000,0.000,0
2026-01-30 23:18:17,1121654,4582.000,-992.000,6822.000,-229.000,40.000,-52.000,0.000,0.000,0
2026-01-30 23:18:17,1121694,4564.000,-117.000,7627.000,127.000,199.000,-288.000,0.000,0.000,0
2026-01-30 23:18:17,1121734,3418.000,-535.000,7604.000,-793.000,247.000,-307.000,0.000,0.000,0
2026-01-30 23:18:17,1121774,3254.000,-992.000,6946.000,-897.000,453.000,-601.000,0.000,0.000,0
2026-01-30 23:18:17,1121814,5425.000,-1041.000,6416.000,-1429.000,805.000,-573.000,0.000,0.000,0
2026-01-30 23:18:17,1121854,2744.000,-1116.000,6727.000,-564.000,860.000,-913.000,0.000,0.000,0
2026-01-30 23:18:17,1121894,5285.000,-1543.000,7062.000,-1116.000,951.000,-857.000,0.000,0.000,0
2026-01-30 23:18:17,1121934,4899.000,-1292.000,6244.000,44.000,782.000,-691.000,0.000,0.000,0
2026-01-30 23:18:17,1121974,5577.000,-743.000,6830.000,1411.000,343.000,-101.000,0.000,0.000,0
2026-01-30 23:18:17,1122014,4161.000,-416.000,6567.000,1011.000,1696.000,-690.000,0.000,0.000,0
2026-01-30 23:18:17,1122054,5889.000,241.000,7521.000,984.000,1108.000,-201.000,0.000,0.000,0
2026-01-30 23:18:17,1122094,5443.000,673.000,7708.000,1376.000,951.000,-208.000,0.000,0.000,0
2026-01-30 23:18:17,1122134,4903.000,-694.000,7173.000,1905.000,1303.000,-242.000,0.000,0.000,0
2026-01-30 23:18:17,1122174,4018.000,87.000,7775.000,3207.000,360.000,-71.000,0.000,0.000,0
2026-01-30 23:18:18,1122214,2058.000,-674.000,8625.000,2194.000,-751.000,301.000,0.000,0.000,0
2026-01-30 23:18:18,1122254,2673.000,-1113.000,8925.000,-462.000,-485.000,121.000,0.000,0.000,0
2026-01-30 23:18:18,1122294,2319.000,728.000,8511.000,-85.000,12.000,-216.000,0.000,0.000,0
2026-01-30 23:18:18,1122334,1620.000,165.000,8726.000,-480.000,79.000,177.000,0.000,0.000,0
2026-01-30 23:18:18,1122374,1935.000,1258.000,7385.000,-814.000,313.000,-332.000,0.000,0.000,0
2026-01-30 23:18:18,1122414,5044.000,846.000,7067.000,-1996.000,-550.000,-386.000,0.000,0.000,0
2026-01-30 23:18:18,1122454,4397.000,460.000,5787.000,-1890.000,-346.000,-929.000,0.000,0.000,0
2026-01-30 23:18:18,1122494,2565.000,-838.000,6996.000,-1276.000,-723.000,-1007.000,0.000,0.000,0
2026-01-30 23:18:18,1122534,4729.000,-1672.000,7631.000,-1851.000,-573.000,-824.000,0.000,0.000,0
2026-01-30 23:18:18,1122574,5083.000,369.000,6453.000,3069.000,-517.000,-1467.000,0.000,0.000,0
2026-01-30 23:18:18,1122614,3961.000,-1229.000,6163.000,1060.000,-481.000,-1446.000,0.000,0.000,0
2026-01-30 23:18:18,1122654,5205.000,1531.000,6645.000,1223.000,-251.000,-856.000,0.000,0.000,0
2026-01-30 23:18:18,1122694,4271.000,153.000,6094.000,913.000,46.000,-201.000,0.000,0.000,0
2026-01-30 23:18:18,1122734,5539.000,114.000,6245.000,1264.000,-222.000,369.000,0.000,0.000,0
2026-01-30 23:18:18,1122774,5229.000,521.000,6239.000,1154.000,-657.000,408.000,0.000,0.000,0
2026-01-30 23:18:18,1122814,6303.000,2307.000,8039.000,925.000,-1451.000,747.000,0.000,0.000,0
2026-01-30 23:18:18,1122859,5566.000,3.000,8028.000,832.000,-1900.000,1053.000,0.000,0.000,0
2026-01-30 23:18:18,1122894,3939.000,-648.000,7368.000,1331.000,-2083.000,1025.000,0.000,0.000,0
2026-01-30 23:18:18,1122934,4378.000,-443.000,5688.000,1631.000,-1651.000,791.000,0.000,0.000,0
2026-01-30 23:18:18,1122974,5954.000,912.000,7970.000,701.000,-785.000,988.000,0.000,0.000,0
2026-01-30 23:18:18,1123014,3545.000,801.000,7519.000,1042.000,-377.000,766.000,0.000,0.000,0
2026-01-30 23:18:18,1123054,5263.000,1687.000,6675.000,-367.000,-190.000,1020.000,0.000,0.000,0
2026-01-30 23:18:18,1123094,3631.000,525.000,7341.000,-975.000,357.000,908.000,0.000,0.000,0
2026-01-30 23:18:18,1123137,6360.000,1240.000,6911.000,-731.000,335.000,364.000,0.000,0.000,0
2026-01-30 23:18:18,1123174,4155.000,-1348.000,6263.000,-843.000,-173.000,578.000,0.000,0.000,0
2026-01-30 23:18:19,1123214,7401.000,376.000,6367.000,-868.000,-1259.000,490.000,0.000,0.000,0
2026-01-30 23:18:19,1123254,4175.000,-469.000,6407.000,325.000,-1079.000,26.000,0.000,0.000,0
2026-01-30 23:18:19,1123294,4535.000,-620.000,5504.000,693.000,-582.000,9.000,0.000,0.000,0
2026-01-30 23:18:19,1123334,6881.000,290.000,5824.000,301.000,247.000,442.000,0.000,0.000,0
2026-01-30 23:18:19,1123374,5012.000,258.000,8185.000,1261.000,862.000,-157.000,0.000,0.000,0
2026-01-30 23:18:19,1123414,6591.000,1675.000,6506.000,1001.000,-763.000,51.000,0.000,0.000,0
2026-01-30 23:18:19,1123454,5187.000,347.000,5896.000,513.000,-655.000,237.000,0.000,0.000,0
2026-01-30 23:18:19,1123494,4323.000,944.000,6538.000,168.000,292.000,-272.000,0.000,0.000,0
2026-01-30 23:18:19,1123534,4661.000,328.000,7906.000,56.000,866.000,-322.000,0.000,0.000,0
