datetime_local,uptime_ms,acc_x,acc_y,acc_z,gyro_x,gyro_y,gyro_z,speed_mps,turn_rate_deg_s,gps_valid
2026-01-30 22:28:54,3468644,-351.000,-916.000,8187.000,604.000,62.000,-429.000,NA,0.000,0
2026-01-30 22:28:54,3468684,-191.000,-1061.000,8348.000,-95.000,37.000,-444.000,NA,0.000,0
2026-01-30 22:28:54,3468724,-250.000,-1556.000,8352.000,-386.000,108.000,-230.000,NA,0.000,0
2026-01-30 22:28:54,3468765,-307.000,-1397.000,8245.000,-17.000,62.000,-213.000,NA,0.000,0
2026-01-30 22:28:54,3468804,-240.000,-1006.000,8376.000,-132.000,37.000,-180.000,NA,0.000,0
2026-01-30 22:28:54,3468844,-239.000,-1271.000,8396.000,-272.000,51.000,-12.000,NA,0.000,0
2026-01-30 22:28:54,3468884,-267.000,-1299.000,8314.000,-65.000,62.000,-18.000,NA,0.000,0
2026-01-30 22:28:54,3468924,-293.000,-1181.000,8325.000,16.000,40.000,-15.000,NA,0.000,0
2026-01-30 22:28:54,3468964,-348.000,-1241.000,8312.000,-75.000,33.000,104.000,NA,0.000,0
2026-01-30 22:28:54,3469004,-266.000,-1215.000,8193.000,-156.000,-29.000,60.000,NA,0.000,0
2026-01-30 22:28:54,3469044,-308.000,-1403.000,8081.000,-33.000,-13.000,87.000,NA,0.000,0
2026-01-30 22:28:54,3469084,-265.000,-1274.000,7869.000,597.000,7.000,372.000,NA,0.000,0
2026-01-30 22:28:54,3469124,-185.000,-1488.000,7567.000,1050.000,-131.000,658.000,NA,0.000,0
2026-01-30 22:28:54,3469164,-700.000,-2615.000,7444.000,2024.000,-590.000,391.000,NA,0.000,0
2026-01-30 22:28:54,3469204,1561.000,-1773.000,6316.000,5317.000,-1018.000,680.000,NA,0.000,0
2026-01-30 22:28:54,3469244,504.000,-596.000,6903.000,7534.000,-1034.000,2836.000,NA,0.000,0
2026-01-30 22:28:55,3469284,858.000,956.000,7658.000,6396.000,-1532.000,3460.000,NA,0.000,0
2026-01-30 22:28:55,3469324,1387.000,2032.000,8267.000,3943.000,-1657.000,3996.000,NA,0.000,0
2026-01-30 22:28:55,3469364,1545.000,518.000,8172.000,2240.000,-1473.000,4704.000,NA,0.000,0
2026-01-30 22:28:55,3469404,981.000,795.000,8375.000,4722.000,-1326.000,4787.000,NA,0.000,0
2026-01-30 22:28:55,3469444,1766.000,2937.000,8923.000,6026.000,-903.000,4651.000,NA,0.000,0
2026-01-30 22:28:55,3469484,1434.000,3592.000,8138.000,4477.000,-71.000,4360.000,NA,0.000,0
2026-01-30 22:28:55,3469524,1367.000,3434.000,8119.000,2945.000,204.000,4357.000,NA,0.000,0
2026-01-30 22:28:55,3469564,1283.000,3748.000,7777.000,1838.000,59.000,3833.000,NA,0.000,0
2026-01-30 22:28:55,3469604,942.000,3841.000,8166.000,22.000,-505.000,3507.000,NA,0.000,0
2026-01-30 22:28:55,3469644,1507.000,4828.000,7589.000,-818.000,-1246.000,2468.000,NA,0.000,0
2026-01-30 22:28:55,3469684,1160.000,2522.000,7854.000,-5082.000,-1431.000,3231.000,NA,0.000,0
2026-01-30 22:28:55,3469724,1728.000,670.000,7093.000,-5589.000,-1314.000,3328.000,NA,0.000,0
2026-01-30 22:28:55,3469764,1416.000,966.000,7117.000,-3263.000,-1789.000,2339.000,NA,0.000,0
2026-01-30 22:28:55,3469804,2059.000,2048.000,7621.000,895.000,-2377.000,1861.000,NA,0.000,0
2026-01-30 22:28:55,3469844,2394.000,4433.000,7684.000,-866.000,-2389.000,1081.000,NA,0.000,0
2026-01-30 22:28:55,3469884,2935.000,1524.000,6434.000,-2780.000,-2623.000,423.000,NA,0.000,0
2026-01-30 22:28:55,3469924,3165.000,857.000,6863.000,644.000,-2980.000,-545.000,NA,0.000,0
2026-01-30 22:28:55,3469964,3856.000,1351.000,6645.000,4545.000,-3031.000,-910.000,NA,0.000,0
2026-01-30 22:28:55,3470004,3681.000,2926.000,6608.000,7017.000,-3089.000,-989.000,NA,0.000,0
2026-01-30 22:28:55,3470044,4715.000,849.000,7494.000,2176.000,-2171.000,278.000,NA,0.000,0
2026-01-30 22:28:55,3470084,4588.000,1399.000,6575.000,4943.000,-1990.000,871.000,NA,0.000,0
2026-01-30 22:28:55,3470124,5267.000,3648.000,8614.000,2485.000,-1208.000,704.000,NA,0.000,0
2026-01-30 22:28:55,3470164,5006.000,-117.000,9346.000,2556.000,282.000,1167.000,NA,0.000,0
2026-01-30 22:28:55,3470204,2681.000,3187.000,10719.000,1451.000,2328.000,824.000,NA,0.000,0
2026-01-30 22:28:55,3470244,2853.000,1443.000,11085.000,-2250.000,3248.000,1814.000,NA,0.000,0
2026-01-30 22:28:56,3470284,2311.000,3535.000,7956.000,-2820.000,4312.000,1595.000,NA,0.000,0
2026-01-30 22:28:56,3470324,1844.000,5855.000,5194.000,-6337.000,2912.000,-1101.000,NA,0.000,0
2026-01-30 22:28:56,3470364,4428.000,-695.000,7199.000,-5728.000,300.000,-1891.000,NA,0.000,0
2026-01-30 22:28:56,3470407,2683.000,3323.000,8009.000,-5667.000,1324.000,-1468.000,NA,0.000,0
2026-01-30 22:28:56,3470446,2333.000,3250.000,7350.000,-4738.000,1236.000,-2864.000,NA,0.000,0
2026-01-30 22:28:56,3470484,2804.000,363.000,6548.000,-3968.000,1169.000,-2304.000,NA,0.000,0
2026-01-30 22:28:56,3470524,2290.000,2409.000,5760.000,-1701.000,686.000,-2738.000,NA,0.000,0
2026-01-30 22:28:56,3470564,3845.000,240.000,5237.000,-58.000,-739.000,-2157.000,NA,0.000,0
2026-01-30 22:28:56,3470604,9517.000,-2128.000,7249.000,1014.000,-1510.000,304.000,NA,0.000,0
2026-01-30 22:28:56,3470644,2957.000,2874.000,7747.000,3334.000,890.000,-862.000,NA,0.000,0
2026-01-30 22:28:56,3470684,2472.000,1686.000,8605.000,867.000,484.000,1643.000,NA,0.000,0
2026-01-30 22:28:56,3470724,1301.000,3322.000,10407.000,-3047.000,656.000,461.000,NA,0.000,0
2026-01-30 22:28:56,3470764,2092.000,539.000,8025.000,-1540.000,-574.000,-1363.000,NA,0.000,0
2026-01-30 22:28:56,3470804,-833.000,-1734.000,6124.000,-129.000,-5.000,-2232.000,NA,0.000,0
2026-01-30 22:28:56,3470844,385.000,3393.000,11681.000,1704.000,-1179.000,-490.000,NA,0.000,0
2026-01-30 22:28:56,3470884,-138.000,-956.000,7522.000,-911.000,-1463.000,539.000,NA,0.000,0
2026-01-30 22:28:56,3470924,3507.000,1511.000,10798.000,-1752.000,-2244.000,712.000,NA,0.000,0
2026-01-30 22:28:56,3470964,1044.000,-2424.000,8432.000,-715.000,-2452.000,920.000,NA,0.000,0
2026-01-30 22:28:56,3471004,1533.000,1429.000,10047.000,-732.000,-3977.000,3196.000,NA,0.000,0
2026-01-30 22:28:56,3471044,1624.000,-2025.000,6239.000,-2386.000,-4923.000,2347.000,NA,0.000,0
2026-01-30 22:28:56,3471084,9113.000,1137.000,7062.000,-1369.000,-4761.000,2982.000,NA,0.000,0
2026-01-30 22:28:56,3471124,2532.000,-3296.000,5453.000,920.000,-3323.000,3434.000,NA,0.000,0
2026-01-30 22:28:56,3471164,16185.000,-4018.000,4461.000,965.000,-4057.000,4181.000,NA,0.000,0
2026-01-30 22:28:56,3471204,4891.000,-1670.000,8913.000,1891.000,-2624.000,2129.000,NA,0.000,0
2026-01-30 22:28:56,3471244,6073.000,1019.000,5627.000,-977.000,-2279.000,1899.000,NA,0.000,0
2026-01-30 22:28:57,3471284,3533.000,-3797.000,10811.000,-988.000,-1214.000,2946.000,NA,0.000,0
2026-01-30 22:28:57,3471324,3839.000,-858.000,9855.000,-1993.000,-249.000,2724.000,NA,0.000,0
2026-01-30 22:28:57,3471364,4381.000,-1004.000,5207.000,-1825.000,1410.000,2178.000,NA,0.000,0
2026-01-30 22:28:57,3471404,5700.000,-1485.000,6078.000,-2707.000,737.000,2077.000,NA,0.000,0
2026-01-30 22:28:57,3471444,5559.000,-1004.000,4183.000,-2330.000,984.000,1035.000,NA,0.000,0
2026-01-30 22:28:57,3471484,6469.000,-3136.000,2916.000,-2848.000,1913.000,204.000,NA,0.000,0
2026-01-30 22:28:57,3471524,5871.000,-1261.000,5267.000,-2377.000,1073.000,-990.000,NA,0.000,0
2026-01-30 22:28:57,3471564,8586.000,-3380.000,-1413.000,-1404.000,-984.000,-323.000,NA,0.000,0
2026-01-30 22:28:57,3471604,7760.000,-3038.000,3641.000,135.000,-1110.000,-1698.000,NA,0.000,0
2026-01-30 22:28:57,3471644,8816.000,-646.000,1031.000,3906.000,-1123.000,-2501.000,NA,0.000,0
2026-01-30 22:28:57,3471684,5651.000,-1346.000,5509.000,3869.000,393.000,-2537.000,NA,0.000,0
2026-01-30 22:28:57,3471724,5537.000,-1219.000,4709.000,5124.000,792.000,-1414.000,NA,0.000,0
2026-01-30 22:28:57,3471764,5527.000,-5874.000,12103.000,6768.000,1956.000,1011.000,NA,0.000,0
2026-01-30 22:28:57,3471804,4877.000,2208.000,11808.000,5302.000,52.000,-1884.000,NA,0.000,0
2026-01-30 22:28:57,3471844,2807.000,-1747.000,9766.000,1972.000,1254.000,681.000,NA,0.000,0
2026-01-30 22:28:57,3471884,9763.000,-555.000,10368.000,2010.000,2001.000,-1029.000,NA,0.000,0
2026-01-30 22:28:57,3471924,7938.000,5656.000,8908.000,4686.000,709.000,85.000,NA,0.000,0
2026-01-30 22:28:57,3471964,691.000,-3370.000,10636.000,2041.000,1026.000,607.000,NA,0.000,0
2026-01-30 22:28:57,3472004,6526.000,-886.000,4912.000,540.000,856.000,1090.000,NA,0.000,0
2026-01-30 22:28:57,3472044,8620.000,2202.000,4259.000,421.000,413.000,194.000,NA,0.000,0
2026-01-30 22:28:57,3472084,5238.000,-221.000,6743.000,2130.000,1555.000,509.000,NA,0.000,0
2026-01-30 22:28:57,3472124,3827.000,-402.000,8175.000,2665.000,782.000,24.000,NA,0.000,0
2026-01-30 22:28:57,3472164,4233.000,-1221.000,9192.000,1009.000,-523.000,588.000,NA,0.000,0
2026-01-30 22:28:57,3472204,1792.000,881.000,6616.000,-207.000,-41.000,589.000,NA,0.000,0
2026-01-30 22:28:57,3472244,3324.000,1200.000,8271.000,-1544.000,449.000,900.000,NA,0.000,0
2026-01-30 22:28:58,3472284,3377.000,1533.000,6365.000,639.000,1973.000,926.000,NA,0.000,0
2026-01-30 22:28:58,3472324,6570.000,1396.000,6076.000,-74.000,616.000,582.000,NA,0.000,0
2026-01-30 22:28:58,3472364,4366.000,921.000,5458.000,741.000,2371.000,84.000,NA,0.000,0
2026-01-30 22:28:58,3472407,307.000,-1310.000,11024.000,1172.000,2302.000,-397.000,NA,0.000,0
2026-01-30 22:28:58,3472444,-396.000,2053.000,8126.000,1556.000,1783.000,-431.000,NA,0.000,0
2026-01-30 22:28:58,3472484,6431.000,1588.000,6125.000,-1606.000,-566.000,-572.000,NA,0.000,0
2026-01-30 22:28:58,3472524,5344.000,-958.000,7073.000,-1105.000,784.000,-425.000,NA,0.000,0
2026-01-30 22:28:58,3472564,4092.000,242.000,8021.000,687.000,1200.000,-762.000,NA,0.000,0
2026-01-30 22:28:58,3472604,518.000,-138.000,6375.000,769.000,-36.000,-223.000,NA,0.000,0
2026-01-30 22:28:58,3472647,10441.000,-178.000,-79.000,29.000,-572.000,-830.000,NA,0.000,0
2026-01-30 22:28:58,3472684,5397.000,1425.000,9433.000,902.000,678.000,-1633.000,NA,0.000,0
2026-01-30 22:28:58,3472724,10328.000,226.000,8706.000,1616.000,846.000,-475.000,NA,0.000,0
2026-01-30 22:28:58,3472764,-1137.000,381.000,7284.000,4755.000,2379.000,513.000,NA,0.000,0
2026-01-30 22:28:58,3472804,-1649.000,1244.000,8399.000,3190.000,979.000,-62.000,NA,0.000,0
2026-01-30 22:28:58,3472844,3856.000,2076.000,8717.000,560.000,-261.000,-621.000,NA,0.000,0
2026-01-30 22:28:58,3472884,135.000,1894.000,9835.000,230.000,1228.000,-551.000,NA,0.000,0
2026-01-30 22:28:58,3472924,3271.000,1584.000,7983.000,724.000,796.000,-71.000,NA,0.000,0
2026-01-30 22:28:58,3472964,1727.000,427.000,6937.000,682.000,990.000,500.000,NA,0.000,0
2026-01-30 22:28:58,3473004,370.000,2605.000,8376.000,710.000,583.000,267.000,NA,0.000,0
2026-01-30 22:28:58,3473044,2054.000,1312.000,7523.000,-1211.000,-437.000,360.000,NA,0.000,0
2026-01-30 22:28:58,3473084,4761.000,1316.000,5983.000,-917.000,-967.000,929.000,NA,0.000,0
2026-01-30 22:28:58,3473124,3468.000,2886.000,8896.000,-743.000,-615.000,-50.000,NA,0.000,0
2026-01-30 22:28:58,3473164,1228.000,1046.000,6379.000,-1677.000,-997.000,185.000,NA,0.000,0
2026-01-30 22:28:58,3473204,-900.000,156.000,9250.000,-3347.000,-1270.000,-373.000,NA,0.000,0
2026-01-30 22:28:58,3473244,-759.000,1156.000,11787.000,-3884.000,-2274.000,-385.000,NA,0.000,0
2026-01-30 22:28:59,3473284,3017.000,4770.000,8185.000,-5308.000,-2312.000,53.000,NA,0.000,0
2026-01-30 22:28:59,3473324,4213.000,3307.000,4081.000,-6109.000,-2833.000,-502.000,NA,0.000,0
2026-01-30 22:28:59,3473364,10034.000,430.000,6364.000,-8348.000,-2433.000,-418.000,NA,0.000,0
2026-01-30 22:28:59,3473404,-666.000,245.000,8179.000,330.000,-732.000,-254.000,NA,0.000,0
2026-01-30 22:28:59,3473444,6285.000,-138.000,4839.000,-4721.000,-4320.000,351.000,NA,0.000,0
2026-01-30 22:28:59,3473484,5414.000,-1037.000,2551.000,-3756.000,-4241.000,-273.000,NA,0.000,0
2026-01-30 22:28:59,3473524,8917.000,-922.000,3616.000,-4256.000,-3971.000,-358.000,NA,0.000,0
2026-01-30 22:28:59,3473564,5939.000,-2639.000,3170.000,-2190.000,-1512.000,450.000,NA,0.000,0
2026-01-30 22:28:59,3473604,5725.000,-2300.000,5378.000,1050.000,-1421.000,321.000,NA,0.000,0
2026-01-30 22:28:59,3473644,7375.000,-2547.000,3212.000,1061.000,-2380.000,1100.000,NA,0.000,0
2026-01-30 22:28:59,3473684,7753.000,-1710.000,7370.000,1536.000,-2987.000,10.000,NA,0.000,0
2026-01-30 22:28:59,3473724,7256.000,-1428.000,1838.000,1651.000,-2787.000,-48.000,NA,0.000,0
2026-01-30 22:28:59,3473764,9959.000,-750.000,8046.000,2663.000,-1628.000,-1270.000,NA,0.000,0
2026-01-30 22:28:59,3473804,1466.000,-1066.000,4719.000,2049.000,-134.000,-1225.000,NA,0.000,0
2026-01-30 22:28:59,3473844,5263.000,-2597.000,10050.000,2133.000,131.000,436.000,NA,0.000,0
2026-01-30 22:28:59,3473884,3916.000,-407.000,7258.000,933.000,524.000,1135.000,NA,0.000,0
2026-01-30 22:28:59,3473924,5467.000,440.000,5295.000,276.000,587.000,1404.000,NA,0.000,0
2026-01-30 22:28:59,3473964,6982.000,-1972.000,6233.000,-25.000,388.000,1798.000,NA,0.000,0
2026-01-30 22:28:59,3474004,5200.000,-2067.000,8783.000,-323.000,839.000,1156.000,NA,0.000,0
2026-01-30 22:28:59,3474044,5002.000,1625.000,5276.000,-1825.000,530.000,-223.000,NA,0.000,0
2026-01-30 22:28:59,3474084,4904.000,-2713.000,6879.000,-2576.000,1095.000,35.000,NA,0.000,0
2026-01-30 22:28:59,3474124,5591.000,-1376.000,6068.000,-897.000,580.000,330.000,NA,0.000,0
2026-01-30 22:28:59,3474164,6477.000,-1594.000,7987.000,-794.000,929.000,-326.000,NA,0.000,0
2026-01-30 22:28:59,3474204,3157.000,793.000,5064.000,-639.000,512.000,-464.000,NA,0.000,0
2026-01-30 22:28:59,3474244,8710.000,-5452.000,4511.000,-1856.000,1966.000,-149.000,NA,0.000,0
2026-01-30 22:29:00,3474284,4355.000,-1060.000,6317.000,1700.000,1073.000,-339.000,NA,0.000,0
2026-01-30 22:29:00,3474324,7303.000,-2039.000,808.000,-274.000,-402.000,-15.000,NA,0.000,0
2026-01-30 22:29:00,3474364,7869.000,-2703.000,5005.000,-920.000,-1187.000,-597.000,NA,0.000,0
2026-01-30 22:29:00,3474407,5098.000,-1566.000,6836.000,2701.000,-936.000,-1601.000,NA,0.000,0
2026-01-30 22:29:00,3474446,5577.000,-658.000,7575.000,895.000,-1506.000,-971.000,NA,0.000,0
2026-01-30 22:29:00,3474484,3375.000,-2172.000,4676.000,2029.000,-853.000,-541.000,NA,0.000,0
2026-01-30 22:29:00,3474524,10173.000,-5195.000,3434.000,3121.000,-674.000,150.000,NA,0.000,0
2026-01-30 22:29:00,3474564,4980.000,-515.000,4877.000,6026.000,-153.000,-365.000,NA,0.000,0
2026-01-30 22:29:00,3474604,4251.000,1094.000,6854.000,5421.000,-32.000,-676.000,NA,0.000,0
2026-01-30 22:29:00,3474647,2645.000,1495.000,10455.000,2973.000,155.000,-101.000,NA,0.000,0
2026-01-30 22:29:00,3474684,4365.000,1190.000,6299.000,1562.000,-44.000,856.000,NA,0.000,0
2026-01-30 22:29:00,3474724,5541.000,-964.000,7807.000,651.000,284.000,684.000,NA,0.000,0
2026-01-30 22:29:00,3474764,3543.000,-103.000,6799.000,258.000,325.000,473.000,NA,0.000,0
2026-01-30 22:29:00,3474804,4681.000,-78.000,8267.000,-575.000,377.000,230.000,NA,0.000,0
2026-01-30 22:29:00,3474844,6347.000,-490.000,7312.000,-2066.000,654.000,332.000,NA,0.000,0
2026-01-30 22:29:00,3474884,3726.000,1143.000,4508.000,-1037.000,364.000,227.000,NA,0.000,0
2026-01-30 22:29:00,3474924,8353.000,-1869.000,5133.000,-3821.000,801.000,-227.000,NA,0.000,0
2026-01-30 22:29:00,3474964,10495.000,-1043.000,4174.000,224.000,872.000,-105.000,NA,0.000,0
2026-01-30 22:29:00,3475004,5024.000,1069.000,3944.000,140.000,807.000,-531.000,NA,0.000,0
2026-01-30 22:29:00,3475044,5055.000,-1554.000,4568.000,-1532.000,-225.000,-316.000,NA,0.000,0
2026-01-30 22:29:00,3475084,8766.000,-1702.000,4672.000,-1256.000,-924.000,315.000,NA,0.000,0
2026-01-30 22:29:00,3475124,5377.000,-2149.000,8671.000,-232.000,-497.000,-909.000,NA,0.000,0
2026-01-30 22:29:00,3475164,6597.000,-1548.000,4559.000,-83.000,-672.000,-1085.000,NA,0.000,0
2026-01-30 22:29:00,3475204,4704.000,-1024.000,6392.000,-79.000,-348.000,-1170.000,NA,0.000,0
2026-01-30 22:29:00,3475244,8079.000,-1392.000,5428.000,197.000,416.000,-730.000,NA,0.000,0
2026-01-30 22:29:01,3475284,5411.000,-1619.000,5947.000,1481.000,954.000,-148.000,NA,0.000,0
2026-01-30 22:29:01,3475324,5886.000,-1174.000,7112.000,604.000,1166.000,-821.000,NA,0.000,0
2026-01-30 22:29:01,3475364,13509.000,2974.000,482.000,-832.000,753.000,351.000,NA,0.000,0
2026-01-30 22:29:01,3475404,3537.000,-3580.000,5880.000,1895.000,1980.000,-593.000,NA,0.000,0
2026-01-30 22:29:01,3475444,4223.000,907.000,4724.000,1333.000,1787.000,-1181.000,NA,0.000,0
2026-01-30 22:29:01,3475484,7294.000,1954.000,7357.000,245.000,799.000,-410.000,NA,0.000,0
2026-01-30 22:29:01,3475524,3985.000,-4823.000,9245.000,-601.000,2479.000,-1.000,NA,0.000,0
2026-01-30 22:29:01,3475564,2537.000,2294.000,6605.000,3250.000,2075.000,-662.000,NA,0.000,0
2026-01-30 22:29:01,3475604,5892.000,-406.000,5807.000,124.000,1204.000,563.000,NA,0.000,0
2026-01-30 22:29:01,3475644,3019.000,-2368.000,5479.000,1048.000,1965.000,158.000,NA,0.000,0
2026-01-30 22:29:01,3475684,5963.000,191.000,9087.000,334.000,879.000,-195.000,NA,0.000,0
2026-01-30 22:29:01,3475724,8909.000,52.000,8252.000,1948.000,-144.000,258.000,NA,0.000,0
2026-01-30 22:29:01,3475764,1252.000,-452.000,12036.000,1022.000,-31.000,-436.000,NA,0.000,0
2026-01-30 22:29:01,3475804,4486.000,-110.000,6667.000,-1454.000,-576.000,352.000,NA,0.000,0
2026-01-30 22:29:01,3475844,3716.000,1834.000,8166.000,-593.000,-669.000,152.000,NA,0.000,0
2026-01-30 22:29:01,3475884,4644.000,-2252.000,5915.000,-1949.000,-432.000,636.000,NA,0.000,0
2026-01-30 22:29:01,3475924,5766.000,1232.000,3528.000,-739.000,-524.000,303.000,NA,0.000,0
2026-01-30 22:29:01,3475964,5681.000,-1099.000,5336.000,-1419.000,-38.000,-402.000,NA,0.000,0
2026-01-30 22:29:01,3476004,1840.000,-2520.000,6995.000,-346.000,111.000,-760.000,NA,0.000,0
2026-01-30 22:29:01,3476044,4220.000,-534.000,4349.000,188.000,-1631.000,307.000,NA,0.000,0
2026-01-30 22:29:01,3476084,3870.000,-1937.000,7965.000,-1258.000,-1162.000,-536.000,NA,0.000,0
2026-01-30 22:29:01,3476124,4331.000,-1692.000,8204.000,-1412.000,-1232.000,-69.000,NA,0.000,0
2026-01-30 22:29:01,3476164,7947.000,-844.000,4856.000,-1046.000,-777.000,776.000,NA,0.000,0
2026-01-30 22:29:01,3476204,3817.000,195.000,5930.000,899.000,127.000,300.000,NA,0.000,0
2026-01-30 22:29:01,3476244,5834.000,-2946.000,9339.000,-1491.000,355.000,-162.000,NA,0.000,0
2026-01-30 22:29:02,3476284,4948.000,272.000,7725.000,915.000,-363.000,-50.000,NA,0.000,0
2026-01-30 22:29:02,3476324,2725.000,56.000,4929.000,297.000,-1276.000,527.000,NA,0.000,0
2026-01-30 22:29:02,3476364,6326.000,-3721.000,5474.000,-1976.000,-600.000,635.000,NA,0.000,0
2026-01-30 22:29:02,3476404,5738.000,-185.000,5573.000,1942.000,-775.000,588.000,NA,0.000,0
2026-01-30 22:29:02,3476444,2886.000,-67.000,5590.000,1356.000,-1158.000,655.000,NA,0.000,0
2026-01-30 22:29:02,3476484,6251.000,-1383.000,5575.000,-1407.000,-1181.000,887.000,NA,0.000,0
2026-01-30 22:29:02,3476524,4700.000,256.000,8394.000,277.000,-1353.000,701.000,NA,0.000,0
2026-01-30 22:29:02,3476564,9151.000,-1378.000,7545.000,-1122.000,-723.000,610.000,NA,0.000,0
2026-01-30 22:29:02,3476604,-632.000,-521.000,5816.000,1017.000,-307.000,694.000,NA,0.000,0
2026-01-30 22:29:02,3476647,6440.000,-17.000,6697.000,-172.000,-495.000,893.000,NA,0.000,0
2026-01-30 22:29:02,3476684,7090.000,-2338.000,3663.000,-654.000,-225.000,1520.000,NA,0.000,0
2026-01-30 22:29:02,3476724,4246.000,2423.000,4578.000,222.000,-269.000,236.000,NA,0.000,0
2026-01-30 22:29:02,3476764,4868.000,110.000,5108.000,-2755.000,-64.000,-295.000,NA,0.000,0
2026-01-30 22:29:02,3476804,8981.000,-1509.000,1728.000,-1682.000,-234.000,204.000,NA,0.000,0
2026-01-30 22:29:02,3476844,3669.000,-1146.000,8058.000,1920.000,808.000,-433.000,NA,0.000,0
2026-01-30 22:29:02,3476884,5218.000,942.000,5002.000,554.000,-419.000,-311.000,NA,0.000,0
2026-01-30 22:29:02,3476924,10152.000,-5630.000,9878.000,-2240.000,-28.000,92.000,NA,0.000,0
2026-01-30 22:29:02,3476964,5605.000,-1989.000,6216.000,1857.000,-342.000,-1202.000,NA,0.000,0
2026-01-30 22:29:02,3477004,7053.000,-1016.000,6671.000,1542.000,-1107.000,-1029.000,NA,0.000,0
2026-01-30 22:29:02,3477044,2188.000,388.000,4456.000,1064.000,-1254.000,74.000,NA,0.000,0
2026-01-30 22:29:02,3477084,7610.000,-3239.000,4829.000,-281.000,-551.000,535.000,NA,0.000,0
2026-01-30 22:29:02,3477124,5927.000,-1782.000,6313.000,1948.000,-254.000,-265.000,NA,0.000,0
2026-01-30 22:29:02,3477164,4753.000,-1026.000,10467.000,1718.000,-357.000,-450.000,NA,0.000,0
2026-01-30 22:29:02,3477204,7488.000,-1576.000,3972.000,-14.000,-837.000,189.000,NA,0.000,0
2026-01-30 22:29:02,3477244,7831.000,-2717.000,8014.000,1552.000,-521.000,45.000,NA,0.000,0
2026-01-30 22:29:03,3477284,5057.000,824.000,6263.000,433.000,83.000,-608.000,NA,0.000,0
2026-01-30 22:29:03,3477324,4840.000,1937.000,4371.000,-604.000,-308.000,84.000,NA,0.000,0
2026-01-30 22:29:03,3477364,5478.000,-3569.000,9172.000,-1672.000,1206.000,234.000,NA,0.000,0
2026-01-30 22:29:03,3477404,7064.000,-2222.000,5967.000,-1103.000,1596.000,-853.000,NA,0.000,0
2026-01-30 22:29:03,3477444,1260.000,3407.000,6867.000,-611.000,645.000,-987.000,NA,0.000,0
2026-01-30 22:29:03,3477484,8762.000,-1811.000,4904.000,-4937.000,-163.000,-291.000,NA,0.000,0
2026-01-30 22:29:03,3477524,5324.000,-1056.000,4932.000,-411.000,1341.000,-795.000,NA,0.000,0
2026-01-30 22:29:03,3477564,4885.000,-331.000,3553.000,31.000,978.000,-943.000,NA,0.000,0
2026-01-30 22:29:03,3477604,4607.000,-2461.000,4462.000,33.000,1321.000,-627.000,NA,0.000,0
2026-01-30 22:29:03,3477644,7497.000,-194.000,4453.000,616.000,898.000,-583.000,NA,0.000,0
2026-01-30 22:29:03,3477684,5702.000,-2584.000,8857.000,282.000,117.000,-1283.000,NA,0.000,0
2026-01-30 22:29:03,3477724,8504.000,-1261.000,4542.000,772.000,-944.000,-1223.000,NA,0.000,0
2026-01-30 22:29:03,3477764,3913.000,-2301.000,4462.000,2272.000,-128.000,-1329.000,NA,0.000,0
2026-01-30 22:29:03,3477804,3824.000,-2684.000,7145.000,2239.000,399.000,-938.000,NA,0.000,0
2026-01-30 22:29:03,3477844,8241.000,-859.000,10589.000,1980.000,860.000,-98.000,NA,0.000,0
2026-01-30 22:29:03,3477884,4889.000,2236.000,5533.000,3242.000,1238.000,-368.000,NA,0.000,0
2026-01-30 22:29:03,3477924,5329.000,-217.000,6769.000,237.000,2208.000,-294.000,NA,0.000,0
2026-01-30 22:29:03,3477964,1393.000,408.000,7620.000,2465.000,2010.000,122.000,NA,0.000,0
2026-01-30 22:29:03,3478004,7949.000,-3380.000,7042.000,-576.000,783.000,528.000,NA,0.000,0
2026-01-30 22:29:03,3478044,2757.000,2267.000,7539.000,159.000,521.000,-89.000,NA,0.000,0
2026-01-30 22:29:03,3478084,4075.000,3713.000,5893.000,-293.000,184.000,659.000,NA,0.000,0
2026-01-30 22:29:03,3478124,491.000,-1574.000,3847.000,-2163.000,777.000,12.000,NA,0.000,0
2026-01-30 22:29:03,3478164,8748.000,-3147.000,8121.000,-3235.000,715.000,-53.000,NA,0.000,0
2026-01-30 22:29:03,3478204,6485.000,1652.000,7138.000,1153.000,1411.000,-187.000,NA,0.000,0
2026-01-30 22:29:03,3478244,4185.000,253.000,8757.000,84.000,48.000,-4.000,NA,0.000,0
2026-01-30 22:29:04,3478284,2979.000,-1415.000,5393.000,-427.000,-1191.000,182.000,NA,0.000,0
2026-01-30 22:29:04,3478324,6907.000,-1788.000,8178.000,-1850.000,-1475.000,242.000,NA,0.000,0
2026-01-30 22:29:04,3478364,4350.000,3069.000,4309.000,330.000,-1339.000,744.000,NA,0.000,0
2026-01-30 22:29:04,3478407,5970.000,-798.000,6634.000,-322.000,486.000,-576.000,NA,0.000,0
2026-01-30 22:29:04,3478446,527.000,-1535.000,6437.000,802.000,-586.000,-336.000,NA,0.000,0
2026-01-30 22:29:04,3478484,6204.000,-456.000,6990.000,319.000,-1459.000,701.000,NA,0.000,0
2026-01-30 22:29:04,3478524,3993.000,-1376.000,5806.000,-280.000,-1172.000,85.000,NA,0.000,0
2026-01-30 22:29:04,3478564,4394.000,-1795.000,6709.000,343.000,-1119.000,87.000,NA,0.000,0
2026-01-30 22:29:04,3478604,-1719.000,2317.000,-3250.000,2434.000,-1497.000,1193.000,NA,0.000,0
2026-01-30 22:29:04,3478647,985.000,-2323.000,9357.000,2786.000,-389.000,-634.000,NA,0.000,0
2026-01-30 22:29:04,3478684,-1716.000,2610.000,6730.000,2859.000,-1121.000,415.000,NA,0.000,0
2026-01-30 22:29:04,3478724,7825.000,-3875.000,9993.000,-1409.000,323.000,885.000,NA,0.000,0
2026-01-30 22:29:04,3478764,6048.000,-2973.000,6077.000,1128.000,-291.000,1237.000,NA,0.000,0
2026-01-30 22:29:04,3478804,14819.000,-933.000,6269.000,59.000,-927.000,1791.000,NA,0.000,0
2026-01-30 22:29:04,3478844,2489.000,1627.000,7319.000,1540.000,-1258.000,360.000,NA,0.000,0
2026-01-30 22:29:04,3478884,10587.000,-1187.000,5496.000,-2470.000,-323.000,833.000,NA,0.000,0
2026-01-30 22:29:04,3478924,-2599.000,-1667.000,1972.000,-404.000,764.000,22.000,NA,0.000,0
2026-01-30 22:29:04,3478964,5938.000,-3354.000,5616.000,-2060.000,1889.000,1671.000,NA,0.000,0
2026-01-30 22:29:04,3479004,4084.000,-1226.000,8456.000,104.000,907.000,537.000,NA,0.000,0
2026-01-30 22:29:04,3479044,4014.000,6556.000,-1231.000,4191.000,-821.000,1752.000,NA,0.000,0
2026-01-30 22:29:04,3479084,4207.000,-2710.000,4559.000,-415.000,-79.000,-420.000,NA,0.000,0
2026-01-30 22:29:04,3479124,16075.000,-1511.000,11205.000,-5159.000,-1275.000,-169.000,NA,0.000,0
2026-01-30 22:29:04,3479164,3359.000,2213.000,1854.000,-768.000,-2470.000,168.000,NA,0.000,0
2026-01-30 22:29:04,3479204,5708.000,-2794.000,3569.000,469.000,-177.000,456.000,NA,0.000,0
2026-01-30 22:29:04,3479244,7783.000,-4952.000,5273.000,-221.000,478.000,26.000,NA,0.000,0
2026-01-30 22:29:05,3479284,10361.000,-3796.000,10857.000,1077.000,1835.000,-2118.000,NA,0.000,0
2026-01-30 22:29:05,3479324,-2776.000,7882.000,-439.000,3554.000,-460.000,-859.000,NA,0.000,0
2026-01-30 22:29:05,3479364,4719.000,-1506.000,6925.000,-3263.000,-2208.000,1249.000,NA,0.000,0
2026-01-30 22:29:05,3479404,2674.000,-1375.000,-783.000,-1216.000,-797.000,1248.000,NA,0.000,0
2026-01-30 22:29:05,3479444,8339.000,-3936.000,10053.000,-200.000,345.000,-275.000,NA,0.000,0
2026-01-30 22:29:05,3479484,2944.000,245.000,6610.000,1467.000,1030.000,-1554.000,NA,0.000,0
2026-01-30 22:29:05,3479524,5138.000,761.000,7537.000,58.000,1061.000,751.000,NA,0.000,0
2026-01-30 22:29:05,3479564,5331.000,-791.000,6736.000,291.000,-387.000,-59.000,NA,0.000,0
2026-01-30 22:29:05,3479604,9670.000,-1964.000,4652.000,-824.000,-543.000,19.000,NA,0.000,0
2026-01-30 22:29:05,3479644,4568.000,-2919.000,10588.000,121.000,-746.000,-798.000,NA,0.000,0
2026-01-30 22:29:05,3479684,6498.000,2448.000,4608.000,-243.000,-2064.000,14.000,NA,0.000,0
2026-01-30 22:29:05,3479724,1446.000,-2602.000,5958.000,-1043.000,-823.000,-171.000,NA,0.000,0
2026-01-30 22:29:05,3479764,2203.000,-1152.000,7940.000,-1613.000,923.000,305.000,NA,0.000,0
2026-01-30 22:29:05,3479804,8693.000,-773.000,6767.000,-822.000,1540.000,-71.000,NA,0.000,0
2026-01-30 22:29:05,3479844,5182.000,-2585.000,8516.000,-895.000,3544.000,-65.000,NA,0.000,0
2026-01-30 22:29:05,3479884,7454.000,171.000,7882.000,474.000,2197.000,-491.000,NA,0.000,0
2026-01-30 22:29:05,3479924,5117.000,518.000,3452.000,344.000,692.000,35.000,NA,0.000,0
2026-01-30 22:29:05,3479964,4537.000,-581.000,2791.000,-57.000,819.000,-542.000,NA,0.000,0
2026-01-30 22:29:05,3480004,4209.000,-1923.000,7729.000,167.000,945.000,-870.000,NA,0.000,0
2026-01-30 22:29:05,3480044,5130.000,-2264.000,8120.000,-818.000,363.000,-509.000,NA,0.000,0
2026-01-30 22:29:05,3480084,5247.000,-1631.000,1101.000,-638.000,-388.000,325.000,NA,0.000,0
2026-01-30 22:29:05,3480124,4153.000,-1935.000,7986.000,380.000,190.000,-693.000,NA,0.000,0
2026-01-30 22:29:05,3480164,2948.000,-632.000,86.000,-749.000,-132.000,-262.000,NA,0.000,0
2026-01-30 22:29:05,3480204,8103.000,-2093.000,13264.000,-610.000,-884.000,-1083.000,NA,0.000,0
2026-01-30 22:29:05,3480244,4222.000,216.000,3464.000,-426.000,-168.000,-10.000,NA,0.000,0
2026-01-30 22:29:06,3480284,7902.000,-1823.000,10396.000,462.000,-1391.000,-1079.000,NA,0.000,0
2026-01-30 22:29:06,3480324,5717.000,-1790.000,8235.000,-374.000,-461.000,-452.000,NA,0.000,0
2026-01-30 22:29:06,3480364,3612.000,-482.000,1024.000,367.000,-1033.000,230.000,NA,0.000,0
2026-01-30 22:29:06,3480407,7251.000,-598.000,8627.000,579.000,281.000,-491.000,NA,0.000,0
2026-01-30 22:29:06,3480449,5968.000,-500.000,4409.000,783.000,45.000,-424.000,NA,0.000,0
2026-01-30 22:29:06,3480484,6418.000,-1733.000,6863.000,1414.000,197.000,-296.000,NA,0.000,0
2026-01-30 22:29:06,3480524,5990.000,-2996.000,9156.000,1213.000,664.000,-774.000,NA,0.000,0
2026-01-30 22:29:06,3480564,3051.000,2394.000,5591.000,1817.000,-1076.000,261.000,NA,0.000,0
2026-01-30 22:29:06,3480604,11200.000,-1941.000,3325.000,-568.000,-1517.000,549.000,NA,0.000,0
2026-01-30 22:29:06,3480647,16714.000,3076.000,10278.000,783.000,-402.000,732.000,NA,0.000,0
2026-01-30 22:29:06,3480684,785.000,-2085.000,9707.000,-117.000,1058.000,-883.000,NA,0.000,0
2026-01-30 22:29:06,3480724,-2062.000,3310.000,5350.000,-922.000,-214.000,2071.000,NA,0.000,0
2026-01-30 22:29:06,3480764,7964.000,-6014.000,7067.000,-4348.000,376.000,3420.000,NA,0.000,0
2026-01-30 22:29:06,3480804,137.000,-1815.000,8210.000,2109.000,21.000,964.000,NA,0.000,0
2026-01-30 22:29:06,3480844,14873.000,-3468.000,5528.000,-3664.000,-347.000,1596.000,NA,0.000,0
2026-01-30 22:29:06,3480884,10262.000,2723.000,5977.000,71.000,-14.000,-696.000,NA,0.000,0
2026-01-30 22:29:06,3480924,5651.000,97.000,5665.000,-1796.000,1398.000,-2125.000,NA,0.000,0
2026-01-30 22:29:06,3480964,-161.000,-563.000,7106.000,308.000,118.000,-849.000,NA,0.000,0
2026-01-30 22:29:06,3481004,9704.000,-4457.000,3066.000,-2002.000,-721.000,843.000,NA,0.000,0
2026-01-30 22:29:06,3481044,11228.000,-3464.000,12021.000,1249.000,-792.000,447.000,NA,0.000,0
2026-01-30 22:29:06,3481084,4617.000,-1217.000,3922.000,711.000,-2064.000,-828.000,NA,0.000,0
2026-01-30 22:29:06,3481124,6555.000,-2064.000,6813.000,347.000,-625.000,-709.000,NA,0.000,0
2026-01-30 22:29:06,3481164,3800.000,-3317.000,3423.000,1764.000,371.000,692.000,NA,0.000,0
2026-01-30 22:29:06,3481204,7761.000,-2058.000,5627.000,3038.000,930.000,334.000,NA,0.000,0
2026-01-30 22:29:06,3481244,3973.000,-2163.000,3476.000,987.000,-121.000,317.000,NA,0.000,0
2026-01-30 22:29:07,3481284,5546.000,-2069.000,11782.000,801.000,-782.000,-439.000,NA,0.000,0
2026-01-30 22:29:07,3481324,8350.000,919.000,5741.000,-209.000,-2780.000,25.000,NA,0.000,0
2026-01-30 22:29:07,3481364,3956.000,287.000,4927.000,265.000,-962.000,-179.000,NA,0.000,0
2026-01-30 22:29:07,3481404,4128.000,-1061.000,6958.000,-13.000,656.000,-196.000,NA,0.000,0
2026-01-30 22:29:07,3481444,11797.000,-1961.000,4806.000,622.000,2108.000,191.000,NA,0.000,0
2026-01-30 22:29:07,3481484,10365.000,-204.000,4102.000,1888.000,1262.000,-98.000,NA,0.000,0
2026-01-30 22:29:07,3481524,8352.000,730.000,8854.000,111.000,1094.000,-1449.000,NA,0.000,0
2026-01-30 22:29:07,3481564,1975.000,1480.000,8516.000,-1189.000,-1757.000,-486.000,NA,0.000,0
2026-01-30 22:29:07,3481604,2335.000,393.000,3703.000,-2223.000,-1998.000,232.000,NA,0.000,0
2026-01-30 22:29:07,3481644,9324.000,-1555.000,3359.000,-1686.000,-348.000,827.000,NA,0.000,0
2026-01-30 22:29:07,3481684,6390.000,208.000,3871.000,660.000,1667.000,-848.000,NA,0.000,0
2026-01-30 22:29:07,3481724,3894.000,-819.000,1786.000,526.000,1536.000,-410.000,NA,0.000,0
2026-01-30 22:29:07,3481764,10305.000,-4241.000,6468.000,-240.000,2488.000,363.000,NA,0.000,0
2026-01-30 22:29:07,3481804,2119.000,-1864.000,5633.000,1716.000,1277.000,-1386.000,NA,0.000,0
2026-01-30 22:29:07,3481844,9127.000,9.000,1149.000,249.000,-1400.000,57.000,NA,0.000,0
2026-01-30 22:29:07,3481884,3451.000,-3635.000,10023.000,1010.000,115.000,-657.000,NA,0.000,0
2026-01-30 22:29:07,3481924,2899.000,355.000,7509.000,1328.000,-824.000,-427.000,NA,0.000,0
2026-01-30 22:29:07,3481964,4073.000,1846.000,4261.000,752.000,-29.000,744.000,NA,0.000,0
2026-01-30 22:29:07,3482004,6346.000,355.000,6803.000,-1678.000,1219.000,562.000,NA,0.000,0
2026-01-30 22:29:07,3482044,4905.000,-925.000,9974.000,-730.000,3135.000,117.000,NA,0.000,0
2026-01-30 22:29:07,3482084,1028.000,1106.000,3879.000,1723.000,2145.000,434.000,NA,0.000,0
2026-01-30 22:29:07,3482124,9538.000,-3896.000,4843.000,-2638.000,105.000,1317.000,NA,0.000,0
2026-01-30 22:29:07,3482164,3149.000,-3073.000,10282.000,835.000,-310.000,-1265.000,NA,0.000,0
2026-01-30 22:29:07,3482204,4516.000,-4553.000,6143.000,-4015.000,-3096.000,-317.000,NA,0.000,0
2026-01-30 22:29:07,3482244,8704.000,1123.000,7566.000,-2825.000,-1608.000,363.000,NA,0.000,0
2026-01-30 22:29:08,3482284,7299.000,644.000,7053.000,22.000,921.000,-210.000,NA,0.000,0
2026-01-30 22:29:08,3482324,4175.000,-282.000,5537.000,540.000,1514.000,4.000,NA,0.000,0
2026-01-30 22:29:08,3482364,7941.000,-5539.000,7514.000,-1115.000,2012.000,346.000,NA,0.000,0
2026-01-30 22:29:08,3482404,-1687.000,1609.000,6368.000,3460.000,-799.000,-640.000,NA,0.000,0
2026-01-30 22:29:08,3482445,8398.000,-4865.000,5758.000,-5081.000,-1526.000,-11.000,NA,0.000,0
2026-01-30 22:29:08,3482484,3487.000,-402.000,4951.000,470.000,-1622.000,212.000,NA,0.000,0
2026-01-30 22:29:08,3482524,4998.000,-2773.000,5606.000,-676.000,77.000,-210.000,NA,0.000,0
2026-01-30 22:29:08,3482564,8631.000,-591.000,8062.000,1134.000,549.000,462.000,NA,0.000,0
2026-01-30 22:29:08,3482604,10838.000,-3842.000,11837.000,-520.000,607.000,129.000,NA,0.000,0
2026-01-30 22:29:08,3482647,1870.000,-324.000,6044.000,23.000,-1383.000,270.000,NA,0.000,0
2026-01-30 22:29:08,3482685,8681.000,704.000,3845.000,-797.000,-1906.000,389.000,NA,0.000,0
2026-01-30 22:29:08,3482724,-582.000,-326.000,4676.000,584.000,-1474.000,641.000,NA,0.000,0
2026-01-30 22:29:08,3482764,8343.000,-4619.000,5194.000,-1802.000,-128.000,1069.000,NA,0.000,0
2026-01-30 22:29:08,3482804,1626.000,-2173.000,5586.000,1343.000,952.000,-296.000,NA,0.000,0
2026-01-30 22:29:08,3482844,7240.000,-4159.000,9711.000,251.000,656.000,177.000,NA,0.000,0
2026-01-30 22:29:08,3482884,13477.000,-1309.000,5317.000,150.000,120.000,545.000,NA,0.000,0
2026-01-30 22:29:08,3482924,5566.000,1535.000,6637.000,1611.000,-596.000,-267.000,NA,0.000,0
2026-01-30 22:29:08,3482964,7511.000,-2050.000,5363.000,-833.000,-537.000,42.000,NA,0.000,0
2026-01-30 22:29:08,3483004,6218.000,-1222.000,6703.000,-90.000,-198.000,29.000,NA,0.000,0
2026-01-30 22:29:08,3483044,3169.000,792.000,6675.000,545.000,-235.000,-300.000,NA,0.000,0
2026-01-30 22:29:08,3483084,5779.000,-1781.000,2799.000,-575.000,319.000,20.000,NA,0.000,0
2026-01-30 22:29:08,3483124,2181.000,-2054.000,7294.000,377.000,727.000,-178.000,NA,0.000,0
2026-01-30 22:29:08,3483164,10358.000,-1974.000,8044.000,-590.000,93.000,-172.000,NA,0.000,0
2026-01-30 22:29:08,3483204,9148.000,-1156.000,5308.000,295.000,15.000,-432.000,NA,0.000,0
2026-01-30 22:29:08,3483244,6288.000,1002.000,3900.000,928.000,-1242.000,-529.000,NA,0.000,0
2026-01-30 22:29:09,3483284,3947.000,-390.000,4932.000,768.000,-1047.000,-628.000,NA,0.000,0
2026-01-30 22:29:09,3483324,6706.000,-2939.000,6031.000,298.000,-288.000,-295.000,NA,0.000,0
2026-01-30 22:29:09,3483364,5978.000,-551.000,7923.000,1396.000,412.000,-988.000,NA,0.000,0
2026-01-30 22:29:09,3483404,2838.000,1455.000,5127.000,129.000,-856.000,295.000,NA,0.000,0
2026-01-30 22:29:09,3483444,5110.000,-2665.000,6248.000,-275.000,-155.000,360.000,NA,0.000,0
2026-01-30 22:29:09,3483484,5494.000,-2627.000,6438.000,82.000,668.000,-51.000,NA,0.000,0
2026-01-30 22:29:09,3483524,1082.000,-1010.000,5205.000,-188.000,346.000,-196.000,NA,0.000,0
2026-01-30 22:29:09,3483564,14045.000,3622.000,-6977.000,-1138.000,-223.000,1112.000,NA,0.000,0
2026-01-30 22:29:09,3483604,4434.000,-137.000,4656.000,1609.000,1025.000,-322.000,NA,0.000,0
2026-01-30 22:29:09,3483644,96.000,-1064.000,2532.000,-247.000,1222.000,-54.000,NA,0.000,0
2026-01-30 22:29:09,3483684,5877.000,-5462.000,4578.000,-1198.000,940.000,616.000,NA,0.000,0
2026-01-30 22:29:09,3483724,5257.000,-1.000,8089.000,65.000,3.000,-651.000,NA,0.000,0
2026-01-30 22:29:09,3483764,1465.000,72.000,6239.000,-643.000,-790.000,-674.000,NA,0.000,0
2026-01-30 22:29:09,3483804,9308.000,-3731.000,8217.000,-2233.000,655.000,-175.000,NA,0.000,0
2026-01-30 22:29:09,3483844,2563.000,-1210.000,6679.000,558.000,1044.000,-432.000,NA,0.000,0
2026-01-30 22:29:09,3483884,-70.000,3579.000,-866.000,2411.000,1080.000,1535.000,NA,0.000,0
2026-01-30 22:29:09,3483924,7078.000,-4266.000,3701.000,-3445.000,1041.000,1282.000,NA,0.000,0
2026-01-30 22:29:09,3483964,5201.000,-1477.000,6750.000,-152.000,1807.000,-341.000,NA,0.000,0
2026-01-30 22:29:09,3484004,1654.000,-2396.000,7720.000,1336.000,879.000,-413.000,NA,0.000,0
2026-01-30 22:29:09,3484044,9341.000,-2690.000,6515.000,-2372.000,-262.000,341.000,NA,0.000,0
2026-01-30 22:29:09,3484084,4419.000,-1360.000,10981.000,399.000,-653.000,-843.000,NA,0.000,0
2026-01-30 22:29:09,3484124,15695.000,490.000,3042.000,-3582.000,-4781.000,2930.000,NA,0.000,0
2026-01-30 22:29:09,3484164,3259.000,-368.000,-3332.000,2159.000,-2858.000,581.000,NA,0.000,0
2026-01-30 22:29:09,3484204,13630.000,-2973.000,2371.000,-2478.000,-453.000,-754.000,NA,0.000,0
2026-01-30 22:29:09,3484244,741.000,-2212.000,5819.000,1495.000,2667.000,-2670.000,NA,0.000,0
2026-01-30 22:29:10,3484284,3138.000,-449.000,3737.000,-188.000,452.000,129.000,NA,0.000,0
2026-01-30 22:29:10,3484324,7838.000,-2222.000,8703.000,343.000,753.000,177.000,NA,0.000,0
2026-01-30 22:29:10,3484364,643.000,927.000,2469.000,1385.000,-1338.000,952.000,NA,0.000,0
2026-01-30 22:29:10,3484407,3191.000,3268.000,7676.000,1860.000,-1341.000,-1269.000,NA,0.000,0
2026-01-30 22:29:10,3484447,-5442.000,675.000,2242.000,-1398.000,920.000,1293.000,NA,0.000,0
2026-01-30 22:29:10,3484484,14335.000,6341.000,-612.000,-585.000,-778.000,2664.000,NA,0.000,0
2026-01-30 22:29:10,3484524,-4905.000,-73.000,-7821.000,906.000,1619.000,-43.000,NA,0.000,0
2026-01-30 22:29:10,3484564,6196.000,-9625.000,5744.000,-7789.000,2874.000,1278.000,NA,0.000,0
2026-01-30 22:29:10,3484604,5352.000,-1746.000,11000.000,-257.000,1444.000,-400.000,NA,0.000,0
2026-01-30 22:29:10,3484646,3987.000,2402.000,5285.000,-2545.000,-2153.000,-468.000,NA,0.000,0
2026-01-30 22:29:10,3484684,7242.000,-536.000,5101.000,-3184.000,-1728.000,-574.000,NA,0.000,0
2026-01-30 22:29:10,3484724,8666.000,-4670.000,6771.000,-1586.000,2202.000,-1422.000,NA,0.000,0
2026-01-30 22:29:10,3484764,-536.000,3307.000,3218.000,2267.000,-420.000,-211.000,NA,0.000,0
2026-01-30 22:29:10,3484804,7431.000,-4664.000,10311.000,37.000,438.000,823.000,NA,0.000,0
2026-01-30 22:29:10,3484844,8280.000,-4770.000,2889.000,1527.000,-1942.000,1439.000,NA,0.000,0
2026-01-30 22:29:10,3484884,6528.000,-1222.000,7801.000,1129.000,-159.000,-171.000,NA,0.000,0
2026-01-30 22:29:10,3484924,9393.000,-1727.000,6558.000,1109.000,-1079.000,254.000,NA,0.000,0
2026-01-30 22:29:10,3484964,696.000,-1728.000,7245.000,1685.000,-1523.000,-495.000,NA,0.000,0
2026-01-30 22:29:10,3485004,4276.000,-3367.000,6590.000,80.000,-1631.000,259.000,NA,0.000,0
2026-01-30 22:29:10,3485044,7599.000,-2113.000,8670.000,572.000,108.000,-365.000,NA,0.000,0
2026-01-30 22:29:10,3485084,7272.000,382.000,8747.000,975.000,-822.000,-1230.000,NA,0.000,0
2026-01-30 22:29:10,3485124,6032.000,18.000,5291.000,510.000,-611.000,-1365.000,NA,0.000,0
2026-01-30 22:29:10,3485164,2326.000,-1951.000,6587.000,370.000,18.000,-20.000,NA,0.000,0
2026-01-30 22:29:10,3485204,6261.000,-2084.000,3329.000,428.000,598.000,429.000,NA,0.000,0
2026-01-30 22:29:10,3485244,3726.000,1192.000,3315.000,3029.000,799.000,647.000,NA,0.000,0
2026-01-30 22:29:11,3485284,6737.000,-1044.000,6209.000,33.000,-57.000,519.000,NA,0.000,0
2026-01-30 22:29:11,3485324,3295.000,-1028.000,7374.000,270.000,-934.000,-65.000,NA,0.000,0
2026-01-30 22:29:11,3485364,6307.000,-2158.000,7432.000,-1743.000,-1614.000,-481.000,NA,0.000,0
2026-01-30 22:29:11,3485404,8292.000,-2161.000,8341.000,-235.000,-7.000,-439.000,NA,0.000,0
2026-01-30 22:29:11,3485444,3711.000,674.000,4100.000,855.000,-479.000,8.000,NA,0.000,0
2026-01-30 22:29:11,3485484,7141.000,-1782.000,5435.000,-81.000,223.000,547.000,NA,0.000,0
2026-01-30 22:29:11,3485524,4470.000,-1415.000,5632.000,842.000,736.000,414.000,NA,0.000,0
2026-01-30 22:29:11,3485564,7222.000,-1696.000,8246.000,135.000,587.000,-20.000,NA,0.000,0
2026-01-30 22:29:11,3485604,3706.000,607.000,5703.000,-175.000,53.000,-50.000,NA,0.000,0
2026-01-30 22:29:11,3485644,4456.000,-471.000,4436.000,488.000,-347.000,116.000,NA,0.000,0
2026-01-30 22:29:11,3485684,2624.000,-2207.000,8127.000,505.000,-409.000,549.000,NA,0.000,0
2026-01-30 22:29:11,3485724,11594.000,-831.000,7337.000,-630.000,-471.000,1123.000,NA,0.000,0
2026-01-30 22:29:11,3485764,9973.000,-1343.000,9187.000,835.000,305.000,-98.000,NA,0.000,0
2026-01-30 22:29:11,3485804,4159.000,2424.000,4216.000,-99.000,-649.000,-694.000,NA,0.000,0
2026-01-30 22:29:11,3485844,6404.000,-2603.000,3909.000,-891.000,193.000,-215.000,NA,0.000,0
2026-01-30 22:29:11,3485884,3990.000,-1686.000,6540.000,733.000,531.000,-46.000,NA,0.000,0
2026-01-30 22:29:11,3485924,3072.000,-1205.000,6928.000,60.000,-435.000,241.000,NA,0.000,0
2026-01-30 22:29:11,3485964,9818.000,-1182.000,4436.000,-746.000,-951.000,846.000,NA,0.000,0
2026-01-30 22:29:11,3486004,5651.000,-1503.000,4555.000,-195.000,-665.000,237.000,NA,0.000,0
2026-01-30 22:29:11,3486044,5448.000,-1042.000,5726.000,-105.000,1136.000,-195.000,NA,0.000,0
2026-01-30 22:29:11,3486084,5346.000,-1942.000,5345.000,-547.000,1803.000,-385.000,NA,0.000,0
2026-01-30 22:29:11,3486124,5496.000,-1475.000,5753.000,397.000,899.000,558.000,NA,0.000,0
2026-01-30 22:29:11,3486164,5354.000,-2577.000,5666.000,797.000,1052.000,582.000,NA,0.000,0
2026-01-30 22:29:11,3486204,1845.000,141.000,4513.000,1067.000,-1208.000,731.000,NA,0.000,0
2026-01-30 22:29:11,3486244,9259.000,-3101.000,7342.000,-1880.000,-228.000,274.000,NA,0.000,0
2026-01-30 22:29:12,3486284,-4479.000,1561.000,1311.000,2402.000,-1090.000,77.000,NA,0.000,0
2026-01-30 22:29:12,3486324,5929.000,-6200.000,4785.000,-3914.000,796.000,-3.000,NA,0.000,0
2026-01-30 22:29:12,3486364,-1.000,-1671.000,6945.000,1490.000,1329.000,-290.000,NA,0.000,0
2026-01-30 22:29:12,3486407,6771.000,-2618.000,6387.000,1026.000,719.000,765.000,NA,0.000,0
2026-01-30 22:29:12,3486446,7331.000,973.000,7169.000,61.000,-986.000,55.000,NA,0.000,0
2026-01-30 22:29:12,3486484,3493.000,-789.000,7313.000,-1013.000,-1551.000,-8.000,NA,0.000,0
2026-01-30 22:29:12,3486524,4693.000,429.000,-206.000,-1402.000,-2656.000,586.000,NA,0.000,0
2026-01-30 22:29:12,3486564,2153.000,-1818.000,-1694.000,687.000,42.000,290.000,NA,0.000,0
2026-01-30 22:29:12,3486604,1554.000,-4647.000,7533.000,744.000,569.000,-1389.000,NA,0.000,0
2026-01-30 22:29:12,3486647,5288.000,-390.000,4929.000,167.000,628.000,-1071.000,NA,0.000,0
2026-01-30 22:29:12,3486684,9739.000,-3167.000,3315.000,-511.000,513.000,-260.000,NA,0.000,0
2026-01-30 22:29:12,3486724,5768.000,-1941.000,4865.000,1248.000,308.000,-628.000,NA,0.000,0
2026-01-30 22:29:12,3486764,11681.000,-818.000,3442.000,2701.000,-2364.000,1019.000,NA,0.000,0
2026-01-30 22:29:12,3486804,4557.000,-577.000,7541.000,2017.000,-829.000,-644.000,NA,0.000,0
2026-01-30 22:29:12,3486844,4844.000,-767.000,8375.000,-452.000,-517.000,504.000,NA,0.000,0
2026-01-30 22:29:12,3486884,2021.000,-710.000,9887.000,-504.000,1185.000,649.000,NA,0.000,0
2026-01-30 22:29:12,3486924,16655.000,3825.000,2290.000,-2330.000,1625.000,1537.000,NA,0.000,0
2026-01-30 22:29:12,3486964,1133.000,2429.000,3349.000,2300.000,777.000,91.000,NA,0.000,0
2026-01-30 22:29:12,3487004,17050.000,-7416.000,9150.000,-4451.000,3674.000,928.000,NA,0.000,0
2026-01-30 22:29:12,3487044,-5250.000,2423.000,8147.000,5012.000,-308.000,-671.000,NA,0.000,0
2026-01-30 22:29:12,3487084,16965.000,1912.000,-628.000,-9360.000,-3081.000,121.000,NA,0.000,0
2026-01-30 22:29:12,3487124,6777.000,-172.000,6993.000,1061.000,-355.000,-732.000,NA,0.000,0
2026-01-30 22:29:12,3487164,8488.000,-1835.000,2683.000,-1347.000,491.000,-886.000,NA,0.000,0
2026-01-30 22:29:12,3487204,5566.000,-2256.000,3602.000,619.000,1408.000,-724.000,NA,0.000,0
2026-01-30 22:29:12,3487244,343.000,-3486.000,10753.000,1259.000,467.000,-1052.000,NA,0.000,0
2026-01-30 22:29:13,3487284,13848.000,-3192.000,9385.000,-1494.000,-734.000,668.000,NA,0.000,0
2026-01-30 22:29:13,3487324,4945.000,-774.000,9629.000,759.000,-563.000,-1170.000,NA,0.000,0
2026-01-30 22:29:13,3487364,-1344.000,1353.000,-479.000,-474.000,-847.000,298.000,NA,0.000,0
2026-01-30 22:29:13,3487404,5124.000,-5498.000,10835.000,-761.000,450.000,-23.000,NA,0.000,0
2026-01-30 22:29:13,3487444,2132.000,-1084.000,7998.000,1522.000,1168.000,-609.000,NA,0.000,0
2026-01-30 22:29:13,3487484,8162.000,-1733.000,2613.000,-610.000,37.000,-164.000,NA,0.000,0
2026-01-30 22:29:13,3487524,7268.000,-1410.000,8371.000,1277.000,755.000,-629.000,NA,0.000,0
2026-01-30 22:29:13,3487564,6444.000,-893.000,5167.000,862.000,-933.000,-327.000,NA,0.000,0
2026-01-30 22:29:13,3487604,2428.000,-1686.000,7110.000,1566.000,-1077.000,-669.000,NA,0.000,0
2026-01-30 22:29:13,3487644,7591.000,-4019.000,8147.000,8.000,-781.000,764.000,NA,0.000,0
2026-01-30 22:29:13,3487684,6276.000,-1822.000,2751.000,953.000,-86.000,758.000,NA,0.000,0
2026-01-30 22:29:13,3487724,2309.000,385.000,5074.000,1565.000,622.000,193.000,NA,0.000,0
2026-01-30 22:29:13,3487764,1699.000,-3764.000,7736.000,-682.000,1629.000,32.000,NA,0.000,0
2026-01-30 22:29:13,3487804,7084.000,228.000,8747.000,-1002.000,-98.000,1607.000,NA,0.000,0
2026-01-30 22:29:13,3487844,6097.000,2532.000,5462.000,-584.000,-909.000,1267.000,NA,0.000,0
2026-01-30 22:29:13,3487884,7228.000,-2798.000,6667.000,-2227.000,1613.000,575.000,NA,0.000,0
2026-01-30 22:29:13,3487924,5495.000,2912.000,5676.000,-1649.000,152.000,-224.000,NA,0.000,0
2026-01-30 22:29:13,3487964,2840.000,-2718.000,7186.000,-2370.000,284.000,-202.000,NA,0.000,0
2026-01-30 22:29:13,3488004,9535.000,-2014.000,4173.000,-2280.000,-251.000,529.000,NA,0.000,0
2026-01-30 22:29:13,3488044,7371.000,-61.000,4372.000,463.000,56.000,-510.000,NA,0.000,0
2026-01-30 22:29:13,3488084,1506.000,-2025.000,3912.000,1637.000,614.000,-1162.000,NA,0.000,0
2026-01-30 22:29:13,3488124,7003.000,-5501.000,11776.000,-1081.000,-10.000,-668.000,NA,0.000,0
2026-01-30 22:29:13,3488164,6740.000,-771.000,5075.000,569.000,-1105.000,-607.000,NA,0.000,0
2026-01-30 22:29:13,3488204,4537.000,1913.000,5184.000,253.000,-671.000,-2001.000,NA,0.000,0
2026-01-30 22:29:13,3488244,2464.000,-4811.000,3114.000,-1404.000,626.000,-778.000,NA,0.000,0
2026-01-30 22:29:14,3488284,432.000,-6385.000,10920.000,-207.000,1407.000,-1490.000,NA,0.000,0
2026-01-30 22:29:14,3488324,10231.000,2348.000,1383.000,-47.000,-55.000,54.000,NA,0.000,0
2026-01-30 22:29:14,3488364,3791.000,-310.000,4092.000,1737.000,534.000,-588.000,NA,0.000,0
2026-01-30 22:29:14,3488407,6545.000,-255.000,4037.000,776.000,-173.000,-1421.000,NA,0.000,0
2026-01-30 22:29:14,3488444,7484.000,-407.000,5844.000,583.000,244.000,-1052.000,NA,0.000,0
2026-01-30 22:29:14,3488484,6658.000,413.000,2265.000,-217.000,638.000,-1058.000,NA,0.000,0
2026-01-30 22:29:14,3488524,5448.000,-4365.000,8714.000,-908.000,2944.000,-1926.000,NA,0.000,0
2026-01-30 22:29:14,3488564,3240.000,-514.000,6574.000,1214.000,2375.000,-1514.000,NA,0.000,0
2026-01-30 22:29:14,3488604,3987.000,-624.000,3547.000,1189.000,413.000,27.000,NA,0.000,0
2026-01-30 22:29:14,3488647,7280.000,-2265.000,10449.000,2359.000,-202.000,475.000,NA,0.000,0
2026-01-30 22:29:14,3488684,1756.000,-2631.000,8208.000,1203.000,884.000,-216.000,NA,0.000,0
2026-01-30 22:29:14,3488724,1354.000,-4028.000,8631.000,-208.000,1834.000,-165.000,NA,0.000,0
2026-01-30 22:29:14,3488764,1839.000,2970.000,7970.000,381.000,1171.000,222.000,NA,0.000,0
2026-01-30 22:29:14,3488804,2181.000,1786.000,4395.000,-42.000,-470.000,1174.000,NA,0.000,0
2026-01-30 22:29:14,3488844,4870.000,-2882.000,6975.000,-2909.000,-362.000,736.000,NA,0.000,0
2026-01-30 22:29:14,3488884,5368.000,-148.000,6351.000,-926.000,111.000,-461.000,NA,0.000,0
2026-01-30 22:29:14,3488924,7146.000,-220.000,5225.000,-833.000,-345.000,-428.000,NA,0.000,0
2026-01-30 22:29:14,3488964,-1220.000,169.000,3293.000,1344.000,-204.000,-946.000,NA,0.000,0
2026-01-30 22:29:14,3489004,7796.000,-4716.000,6106.000,-3735.000,-2187.000,-474.000,NA,0.000,0
2026-01-30 22:29:14,3489044,2702.000,-2782.000,2712.000,310.000,-1613.000,15.000,NA,0.000,0
2026-01-30 22:29:14,3489084,10258.000,-3182.000,9956.000,-1992.000,-295.000,-783.000,NA,0.000,0
2026-01-30 22:29:14,3489124,3570.000,2472.000,4259.000,2845.000,-245.000,-37.000,NA,0.000,0
2026-01-30 22:29:14,3489164,5934.000,-1945.000,5671.000,-1138.000,-1347.000,-1083.000,NA,0.000,0
2026-01-30 22:29:14,3489204,28.000,-2798.000,6002.000,428.000,-1215.000,200.000,NA,0.000,0
2026-01-30 22:29:14,3489244,12514.000,-1390.000,8866.000,709.000,-1691.000,761.000,NA,0.000,0
2026-01-30 22:29:15,3489284,6580.000,1287.000,5566.000,3895.000,-544.000,879.000,NA,0.000,0
2026-01-30 22:29:15,3489324,6020.000,1156.000,6901.000,896.000,48.000,440.000,NA,0.000,0
2026-01-30 22:29:15,3489364,2607.000,-2650.000,4634.000,-1135.000,-528.000,740.000,NA,0.000,0
2026-01-30 22:29:15,3489404,9685.000,-888.000,7452.000,-1130.000,-1953.000,1479.000,NA,0.000,0
2026-01-30 22:29:15,3489444,6135.000,-2648.000,8166.000,-377.000,-1735.000,834.000,NA,0.000,0
2026-01-30 22:29:15,3489484,4979.000,109.000,3524.000,1682.000,-1372.000,1030.000,NA,0.000,0
2026-01-30 22:29:15,3489524,7303.000,-1452.000,5382.000,1308.000,-196.000,1602.000,NA,0.000,0
2026-01-30 22:29:15,3489564,2984.000,-2966.000,7415.000,1520.000,875.000,1220.000,NA,0.000,0
2026-01-30 22:29:15,3489604,3634.000,-2053.000,9405.000,223.000,946.000,780.000,NA,0.000,0
2026-01-30 22:29:15,3489644,7951.000,-155.000,5302.000,-865.000,625.000,713.000,NA,0.000,0
2026-01-30 22:29:15,3489684,8499.000,1353.000,5788.000,680.000,989.000,-294.000,NA,0.000,0
2026-01-30 22:29:15,3489724,788.000,-124.000,7824.000,620.000,1697.000,-451.000,NA,0.000,0
2026-01-30 22:29:15,3489764,6607.000,273.000,7489.000,-3079.000,715.000,-586.000,NA,0.000,0
2026-01-30 22:29:15,3489804,4054.000,-1279.000,4922.000,-785.000,253.000,-392.000,NA,0.000,0
2026-01-30 22:29:15,3489844,5475.000,-1898.000,4262.000,469.000,198.000,-67.000,NA,0.000,0
2026-01-30 22:29:15,3489884,5296.000,-2390.000,5987.000,943.000,128.000,-249.000,NA,0.000,0
2026-01-30 22:29:15,3489924,15136.000,-1040.000,-8342.000,1139.000,-1347.000,738.000,NA,0.000,0
2026-01-30 22:29:15,3489964,2700.000,-1177.000,5424.000,5442.000,-312.000,-81.000,NA,0.000,0
2026-01-30 22:29:15,3490004,18740.000,965.000,8301.000,-2229.000,-1008.000,-327.000,NA,0.000,0
2026-01-30 22:29:15,3490044,3093.000,4369.000,2723.000,4318.000,-1713.000,224.000,NA,0.000,0
2026-01-30 22:29:15,3490084,4665.000,-6981.000,8888.000,-2185.000,-727.000,410.000,NA,0.000,0
2026-01-30 22:29:15,3490124,20429.000,-3776.000,1134.000,374.000,967.000,-52.000,NA,0.000,0
2026-01-30 22:29:15,3490164,-2848.000,882.000,14091.000,3228.000,1008.000,-2702.000,NA,0.000,0
2026-01-30 22:29:15,3490204,15294.000,-12259.000,7866.000,-5332.000,-2817.000,2102.000,NA,0.000,0
2026-01-30 22:29:15,3490244,6593.000,-3014.000,13303.000,4416.000,1204.000,378.000,NA,0.000,0
2026-01-30 22:29:16,3490284,-499.000,7168.000,-8551.000,2189.000,679.000,839.000,NA,0.000,0
2026-01-30 22:29:16,3490324,3185.000,-7659.000,332.000,-2394.000,1742.000,928.000,NA,0.000,0
2026-01-30 22:29:16,3490364,1311.000,2207.000,14035.000,266.000,-357.000,-476.000,NA,0.000,0
2026-01-30 22:29:16,3490407,16173.000,-3285.000,5820.000,-1782.000,-1602.000,1745.000,NA,0.000,0
2026-01-30 22:29:16,3490446,6321.000,-6048.000,12017.000,-527.000,1637.000,-1446.000,NA,0.000,0
2026-01-30 22:29:16,3490484,283.000,-2743.000,2894.000,-913.000,535.000,-973.000,NA,0.000,0
2026-01-30 22:29:16,3490524,7071.000,-460.000,10635.000,-1334.000,-8.000,-1120.000,NA,0.000,0
2026-01-30 22:29:16,3490564,6164.000,-15.000,7739.000,710.000,-1478.000,141.000,NA,0.000,0
2026-01-30 22:29:16,3490604,7415.000,-4395.000,10147.000,534.000,1634.000,58.000,NA,0.000,0
2026-01-30 22:29:16,3490647,15004.000,-4518.000,10156.000,-2824.000,3413.000,471.000,NA,0.000,0
2026-01-30 22:29:16,3490684,1861.000,-5997.000,5999.000,-2201.000,3857.000,-353.000,NA,0.000,0
2026-01-30 22:29:16,3490724,3995.000,-2121.000,6234.000,2732.000,2946.000,-733.000,NA,0.000,0
2026-01-30 22:29:16,3490764,1665.000,-595.000,8101.000,3552.000,1220.000,-154.000,NA,0.000,0
2026-01-30 22:29:16,3490804,4598.000,481.000,3826.000,1354.000,146.000,971.000,NA,0.000,0
2026-01-30 22:29:16,3490844,6783.000,-3656.000,8018.000,-457.000,1324.000,-339.000,NA,0.000,0
2026-01-30 22:29:16,3490884,-282.000,-263.000,9479.000,2620.000,2176.000,-344.000,NA,0.000,0
2026-01-30 22:29:16,3490924,5672.000,1188.000,9764.000,14.000,-557.000,585.000,NA,0.000,0
2026-01-30 22:29:16,3490964,8936.000,-1224.000,11510.000,-2294.000,325.000,-566.000,NA,0.000,0
2026-01-30 22:29:16,3491004,305.000,4073.000,4042.000,2076.000,-365.000,-38.000,NA,0.000,0
2026-01-30 22:29:16,3491044,5799.000,-2917.000,5874.000,-2052.000,-1033.000,611.000,NA,0.000,0
2026-01-30 22:29:16,3491084,4257.000,-2423.000,6535.000,-108.000,-494.000,-186.000,NA,0.000,0
2026-01-30 22:29:16,3491124,5576.000,-1012.000,9578.000,809.000,-1752.000,245.000,NA,0.000,0
2026-01-30 22:29:16,3491164,4943.000,3626.000,-974.000,2247.000,-2702.000,1555.000,NA,0.000,0
2026-01-30 22:29:16,3491204,5476.000,-4090.000,2195.000,-1543.000,-888.000,-1120.000,NA,0.000,0
2026-01-30 22:29:16,3491244,-3463.000,-2962.000,7906.000,2770.000,-539.000,501.000,NA,0.000,0
2026-01-30 22:29:17,3491284,10080.000,-3061.000,8144.000,-1153.000,-930.000,1105.000,NA,0.000,0
2026-01-30 22:29:17,3491324,4957.000,-861.000,7551.000,1223.000,-1769.000,1516.000,NA,0.000,0
2026-01-30 22:29:17,3491364,3506.000,-1755.000,8003.000,-106.000,-1352.000,939.000,NA,0.000,0
2026-01-30 22:29:17,3491404,7833.000,1472.000,5127.000,-63.000,-1739.000,1468.000,NA,0.000,0
2026-01-30 22:29:17,3491444,2668.000,-2868.000,5308.000,-338.000,-571.000,1465.000,NA,0.000,0
2026-01-30 22:29:17,3491484,7402.000,798.000,8662.000,572.000,4.000,1533.000,NA,0.000,0
2026-01-30 22:29:17,3491524,230.000,-626.000,5123.000,1165.000,-318.000,1507.000,NA,0.000,0
2026-01-30 22:29:17,3491564,12771.000,-5015.000,10485.000,-1518.000,1477.000,2375.000,NA,0.000,0
2026-01-30 22:29:17,3491604,3871.000,3083.000,4392.000,2571.000,-311.000,443.000,NA,0.000,0
2026-01-30 22:29:17,3491644,5592.000,-1067.000,4804.000,-1174.000,59.000,143.000,NA,0.000,0
2026-01-30 22:29:17,3491684,998.000,-2255.000,6276.000,161.000,-102.000,491.000,NA,0.000,0
2026-01-30 22:29:17,3491724,3725.000,228.000,5905.000,83.000,-101.000,203.000,NA,0.000,0
2026-01-30 22:29:17,3491764,4533.000,-3676.000,6417.000,-1251.000,-225.000,1367.000,NA,0.000,0
2026-01-30 22:29:17,3491804,14810.000,504.000,4383.000,-899.000,420.000,459.000,NA,0.000,0
2026-01-30 22:29:17,3491844,5772.000,5016.000,4017.000,2724.000,-202.000,-925.000,NA,0.000,0
2026-01-30 22:29:17,3491884,-1258.000,-1224.000,6693.000,1484.000,-518.000,72.000,NA,0.000,0
2026-01-30 22:29:17,3491924,5112.000,-9276.000,10053.000,-3265.000,247.000,785.000,NA,0.000,0
2026-01-30 22:29:17,3491964,4901.000,-9.000,7523.000,2004.000,-206.000,-92.000,NA,0.000,0
2026-01-30 22:29:17,3492004,7760.000,-361.000,1255.000,1590.000,-1035.000,97.000,NA,0.000,0
2026-01-30 22:29:17,3492044,6814.000,1666.000,5656.000,1585.000,-269.000,-375.000,NA,0.000,0
2026-01-30 22:29:17,3492084,-1580.000,2855.000,945.000,673.000,-690.000,-279.000,NA,0.000,0
2026-01-30 22:29:17,3492124,2565.000,-5552.000,7847.000,-335.000,-169.000,382.000,NA,0.000,0
2026-01-30 22:29:17,3492164,4515.000,-5305.000,10723.000,27.000,838.000,-156.000,NA,0.000,0
2026-01-30 22:29:17,3492204,6515.000,-2564.000,10233.000,560.000,306.000,-1310.000,NA,0.000,0
2026-01-30 22:29:17,3492244,5565.000,2198.000,6810.000,498.000,-158.000,-961.000,NA,0.000,0
2026-01-30 22:29:18,3492284,5742.000,307.000,5296.000,-167.000,-369.000,231.000,NA,0.000,0
2026-01-30 22:29:18,3492324,3687.000,-2567.000,11226.000,203.000,745.000,242.000,NA,0.000,0
2026-01-30 22:29:18,3492364,3846.000,-279.000,4633.000,-805.000,-201.000,251.000,NA,0.000,0
2026-01-30 22:29:18,3492409,3368.000,-6606.000,8955.000,-1302.000,1558.000,985.000,NA,0.000,0
2026-01-30 22:29:18,3492444,5013.000,1010.000,8409.000,1090.000,1333.000,-554.000,NA,0.000,0
2026-01-30 22:29:18,3492484,16219.000,2544.000,-1576.000,-2676.000,-301.000,972.000,NA,0.000,0
2026-01-30 22:29:18,3492524,6491.000,-1643.000,3508.000,799.000,1243.000,-374.000,NA,0.000,0
2026-01-30 22:29:18,3492564,5618.000,-2243.000,8469.000,-430.000,609.000,-229.000,NA,0.000,0
2026-01-30 22:29:18,3492604,6853.000,666.000,8503.000,678.000,-1068.000,-477.000,NA,0.000,0
2026-01-30 22:29:18,3492647,4014.000,-1445.000,2583.000,1092.000,-1168.000,71.000,NA,0.000,0
2026-01-30 22:29:18,3492684,8912.000,-726.000,5564.000,2353.000,-363.000,-497.000,NA,0.000,0
2026-01-30 22:29:18,3492724,2039.000,2269.000,7588.000,5560.000,1578.000,-998.000,NA,0.000,0
2026-01-30 22:29:18,3492764,7100.000,-598.000,4427.000,-2009.000,1881.000,-480.000,NA,0.000,0
2026-01-30 22:29:18,3492804,6718.000,-1596.000,11097.000,74.000,2268.000,-411.000,NA,0.000,0
2026-01-30 22:29:18,3492844,4226.000,1538.000,4769.000,1160.000,2056.000,-282.000,NA,0.000,0
2026-01-30 22:29:18,3492884,4796.000,-740.000,5532.000,-1181.000,427.000,85.000,NA,0.000,0
2026-01-30 22:29:18,3492924,6414.000,2787.000,7387.000,-649.000,271.000,-724.000,NA,0.000,0
2026-01-30 22:29:18,3492964,5069.000,-444.000,6740.000,-1897.000,565.000,-893.000,NA,0.000,0
2026-01-30 22:29:18,3493004,2147.000,466.000,6591.000,-649.000,1492.000,-1216.000,NA,0.000,0
2026-01-30 22:29:18,3493044,5093.000,-1704.000,7966.000,-1325.000,553.000,-235.000,NA,0.000,0
2026-01-30 22:29:18,3493084,5253.000,-1338.000,7004.000,-765.000,98.000,63.000,NA,0.000,0
2026-01-30 22:29:18,3493124,6946.000,757.000,7087.000,53.000,-812.000,159.000,NA,0.000,0
2026-01-30 22:29:18,3493164,3747.000,-661.000,6365.000,-167.000,-886.000,5.000,NA,0.000,0
2026-01-30 22:29:18,3493204,4783.000,-1188.000,5847.000,-851.000,-919.000,-44.000,NA,0.000,0
2026-01-30 22:29:18,3493244,4134.000,-994.000,7398.000,110.000,-601.000,449.000,NA,0.000,0
2026-01-30 22:29:19,3493284,5710.000,-2260.000,6910.000,-993.000,-752.000,563.000,NA,0.000,0
2026-01-30 22:29:19,3493324,8041.000,-1336.000,9453.000,-904.000,-683.000,627.000,NA,0.000,0
2026-01-30 22:29:19,3493364,3392.000,485.000,8684.000,181.000,-1612.000,259.000,NA,0.000,0
2026-01-30 22:29:19,3493404,4611.000,-1292.000,7358.000,-3283.000,-2383.000,545.000,NA,0.000,0
2026-01-30 22:29:19,3493444,4240.000,-287.000,4953.000,-1538.000,-2110.000,1387.000,NA,0.000,0
2026-01-30 22:29:19,3493484,6973.000,-1002.000,5181.000,-705.000,-666.000,1660.000,NA,0.000,0
2026-01-30 22:29:19,3493524,4471.000,-1718.000,7542.000,68.000,690.000,838.000,NA,0.000,0
2026-01-30 22:29:19,3493564,4690.000,72.000,5750.000,-572.000,-317.000,503.000,NA,0.000,0
2026-01-30 22:29:19,3493604,3823.000,-1798.000,6246.000,-702.000,-192.000,678.000,NA,0.000,0
2026-01-30 22:29:19,3493644,6905.000,-1713.000,5242.000,-1157.000,-1274.000,739.000,NA,0.000,0
2026-01-30 22:29:19,3493684,6450.000,-1495.000,5614.000,-833.000,-850.000,240.000,NA,0.000,0
2026-01-30 22:29:19,3493724,5527.000,-803.000,5300.000,-149.000,-224.000,-424.000,NA,0.000,0
2026-01-30 22:29:19,3493764,6528.000,-1533.000,5703.000,-718.000,-545.000,-45.000,NA,0.000,0
2026-01-30 22:29:19,3493804,4605.000,-1275.000,4798.000,70.000,-738.000,58.000,NA,0.000,0
2026-01-30 22:29:19,3493844,4884.000,-823.000,5833.000,662.000,-767.000,385.000,NA,0.000,0
2026-01-30 22:29:19,3493884,5567.000,-1859.000,7374.000,160.000,-295.000,265.000,NA,0.000,0
2026-01-30 22:29:19,3493924,6957.000,-2645.000,5021.000,-271.000,27.000,-287.000,NA,0.000,0
2026-01-30 22:29:19,3493964,5996.000,-1111.000,5562.000,23.000,399.000,-665.000,NA,0.000,0
2026-01-30 22:29:19,3494004,4924.000,-1096.000,4401.000,52.000,150.000,-746.000,NA,0.000,0
2026-01-30 22:29:19,3494044,5117.000,-667.000,4950.000,385.000,-10.000,-319.000,NA,0.000,0
2026-01-30 22:29:19,3494084,5952.000,-1944.000,5574.000,-146.000,-295.000,-569.000,NA,0.000,0
2026-01-30 22:29:19,3494124,5592.000,-1989.000,6644.000,0.000,-170.000,-1118.000,NA,0.000,0
2026-01-30 22:29:19,3494164,6414.000,-1026.000,5850.000,211.000,-94.000,-1119.000,NA,0.000,0
2026-01-30 22:29:19,3494204,4436.000,-1715.000,5193.000,211.000,269.000,-854.000,NA,0.000,0
2026-01-30 22:29:19,3494244,5395.000,-2746.000,6385.000,340.000,891.000,-648.000,NA,0.000,0
2026-01-30 22:29:20,3494284,7366.000,-2926.000,4830.000,98.000,468.000,-587.000,NA,0.000,0
2026-01-30 22:29:20,3494324,5176.000,-1321.000,7053.000,770.000,-403.000,-514.000,NA,0.000,0
2026-01-30 22:29:20,3494364,3455.000,561.000,6174.000,-1369.000,-395.000,-764.000,NA,0.000,0
2026-01-30 22:29:20,3494407,7274.000,-953.000,4411.000,-712.000,896.000,-166.000,NA,0.000,0
2026-01-30 22:29:20,3494446,4010.000,-2157.000,7534.000,-37.000,1772.000,-384.000,NA,0.000,0
2026-01-30 22:29:20,3494484,3506.000,-603.000,5547.000,205.000,1581.000,-567.000,NA,0.000,0
2026-01-30 22:29:20,3494524,7074.000,-1166.000,3196.000,-716.000,524.000,62.000,NA,0.000,0
2026-01-30 22:29:20,3494564,8699.000,-1726.000,5729.000,-118.000,371.000,-74.000,NA,0.000,0
2026-01-30 22:29:20,3494604,5091.000,-218.000,9049.000,-199.000,841.000,-1825.000,NA,0.000,0
2026-01-30 22:29:20,3494649,4129.000,-1522.000,5880.000,-1821.000,1055.000,-2074.000,NA,0.000,0
2026-01-30 22:29:20,3494684,4182.000,-1894.000,4577.000,-1389.000,790.000,-1445.000,NA,0.000,0
2026-01-30 22:29:20,3494724,4495.000,-363.000,6679.000,-810.000,1516.000,-1280.000,NA,0.000,0
2026-01-30 22:29:20,3494764,4659.000,-503.000,4937.000,-520.000,1992.000,-1254.000,NA,0.000,0
2026-01-30 22:29:20,3494804,5409.000,-52.000,7424.000,79.000,1271.000,-1152.000,NA,0.000,0
2026-01-30 22:29:20,3494844,4122.000,-1639.000,7855.000,-166.000,899.000,-1163.000,NA,0.000,0
2026-01-30 22:29:20,3494884,6315.000,-696.000,5884.000,-1480.000,515.000,-926.000,NA,0.000,0
2026-01-30 22:29:20,3494924,2680.000,-1453.000,6414.000,-63.000,637.000,-654.000,NA,0.000,0
2026-01-30 22:29:20,3494964,8253.000,-2170.000,6757.000,-819.000,-879.000,400.000,NA,0.000,0
2026-01-30 22:29:20,3495004,4988.000,-690.000,7042.000,481.000,-607.000,-311.000,NA,0.000,0
2026-01-30 22:29:20,3495044,6725.000,-2355.000,6265.000,-1148.000,-728.000,-444.000,NA,0.000,0
2026-01-30 22:29:20,3495084,4260.000,-1679.000,7333.000,-825.000,-367.000,-329.000,NA,0.000,0
2026-01-30 22:29:20,3495124,6606.000,-1000.000,7314.000,-510.000,-721.000,176.000,NA,0.000,0
2026-01-30 22:29:20,3495164,2150.000,-1831.000,7060.000,982.000,186.000,92.000,NA,0.000,0
2026-01-30 22:29:20,3495204,6314.000,-976.000,5865.000,605.000,-1045.000,1185.000,NA,0.000,0
2026-01-30 22:29:20,3495244,3901.000,279.000,6242.000,627.000,-873.000,593.000,NA,0.000,0
2026-01-30 22:29:21,3495284,6016.000,-1194.000,6265.000,-369.000,-912.000,705.000,NA,0.000,0
2026-01-30 22:29:21,3495324,4871.000,-1414.000,5836.000,713.000,-428.000,1155.000,NA,0.000,0
2026-01-30 22:29:21,3495364,5612.000,-2303.000,6582.000,-329.000,-271.000,448.000,NA,0.000,0
2026-01-30 22:29:21,3495404,4636.000,-1399.000,6264.000,-363.000,-676.000,-56.000,NA,0.000,0
2026-01-30 22:29:21,3495444,8387.000,-1863.000,6648.000,-190.000,-1013.000,543.000,NA,0.000,0
2026-01-30 22:29:21,3495484,5311.000,-1662.000,6382.000,502.000,-902.000,173.000,NA,0.000,0
2026-01-30 22:29:21,3495524,4788.000,-1776.000,5998.000,350.000,-969.000,402.000,NA,0.000,0
2026-01-30 22:29:21,3495564,5612.000,-1186.000,5208.000,813.000,-772.000,1115.000,NA,0.000,0
2026-01-30 22:29:21,3495604,5596.000,-1789.000,6651.000,931.000,287.000,746.000,NA,0.000,0
2026-01-30 22:29:21,3495644,5500.000,-953.000,5613.000,436.000,-231.000,341.000,NA,0.000,0
2026-01-30 22:29:21,3495684,5502.000,-775.000,4426.000,536.000,-620.000,618.000,NA,0.000,0
2026-01-30 22:29:21,3495724,5450.000,-883.000,5560.000,619.000,-539.000,470.000,NA,0.000,0
2026-01-30 22:29:21,3495764,7413.000,-2254.000,6311.000,271.000,27.000,-247.000,NA,0.000,0
2026-01-30 22:29:21,3495804,6780.000,-1287.000,7358.000,241.000,220.000,-996.000,NA,0.000,0
2026-01-30 22:29:21,3495844,4854.000,437.000,5968.000,-270.000,-860.000,-341.000,NA,0.000,0
2026-01-30 22:29:21,3495884,6268.000,-1414.000,2809.000,-147.000,-735.000,-56.000,NA,0.000,0
2026-01-30 22:29:21,3495924,6898.000,-1296.000,5862.000,878.000,741.000,-233.000,NA,0.000,0
2026-01-30 22:29:21,3495964,4682.000,-852.000,5953.000,594.000,826.000,-978.000,NA,0.000,0
2026-01-30 22:29:21,3496004,5483.000,-2265.000,6164.000,338.000,478.000,-322.000,NA,0.000,0
2026-01-30 22:29:21,3496044,6966.000,-2188.000,6220.000,364.000,506.000,-161.000,NA,0.000,0
2026-01-30 22:29:21,3496084,6745.000,-1341.000,6117.000,718.000,442.000,-410.000,NA,0.000,0
2026-01-30 22:29:21,3496124,2606.000,-393.000,6127.000,1088.000,-508.000,-15.000,NA,0.000,0
2026-01-30 22:29:21,3496164,7910.000,-1266.000,2607.000,-211.000,-1310.000,745.000,NA,0.000,0
2026-01-30 22:29:21,3496204,4884.000,-3237.000,7077.000,1324.000,-356.000,146.000,NA,0.000,0
2026-01-30 22:29:21,3496244,6102.000,-1072.000,6934.000,-238.000,-71.000,-507.000,NA,0.000,0
2026-01-30 22:29:22,3496284,4802.000,-144.000,4986.000,-307.000,884.000,-207.000,NA,0.000,0
2026-01-30 22:29:22,3496324,6072.000,-885.000,7567.000,315.000,534.000,547.000,NA,0.000,0
2026-01-30 22:29:22,3496364,4568.000,-1706.000,6742.000,66.000,-46.000,533.000,NA,0.000,0
2026-01-30 22:29:22,3496407,6194.000,-1584.000,5249.000,-259.000,-438.000,532.000,NA,0.000,0
2026-01-30 22:29:22,3496446,3335.000,-663.000,7803.000,-259.000,-824.000,189.000,NA,0.000,0
2026-01-30 22:29:22,3496484,3968.000,988.000,5989.000,-828.000,-709.000,109.000,NA,0.000,0
2026-01-30 22:29:22,3496524,6562.000,-2283.000,3609.000,-1250.000,273.000,450.000,NA,0.000,0
2026-01-30 22:29:22,3496564,4990.000,-2802.000,4865.000,573.000,767.000,910.000,NA,0.000,0
2026-01-30 22:29:22,3496604,7941.000,-2285.000,6224.000,381.000,1005.000,551.000,NA,0.000,0
2026-01-30 22:29:22,3496647,6372.000,-713.000,5077.000,-162.000,-1413.000,-333.000,NA,0.000,0
2026-01-30 22:29:22,3496685,4942.000,-803.000,6182.000,-83.000,-1942.000,-446.000,NA,0.000,0
2026-01-30 22:29:22,3496724,4863.000,-2548.000,6734.000,200.000,-1078.000,-397.000,NA,0.000,0
2026-01-30 22:29:22,3496764,5273.000,-2984.000,6350.000,370.000,314.000,-152.000,NA,0.000,0
2026-01-30 22:29:22,3496804,8256.000,-1983.000,7410.000,367.000,1671.000,-136.000,NA,0.000,0
2026-01-30 22:29:22,3496844,624.000,-593.000,6457.000,639.000,1122.000,486.000,NA,0.000,0
2026-01-30 22:29:22,3496884,7062.000,-2043.000,6312.000,137.000,584.000,1975.000,NA,0.000,0
2026-01-30 22:29:22,3496924,7949.000,-2295.000,7802.000,959.000,657.000,1504.000,NA,0.000,0
2026-01-30 22:29:22,3496964,4949.000,-337.000,7494.000,-10.000,-213.000,-259.000,NA,0.000,0
2026-01-30 22:29:22,3497004,7782.000,-1297.000,5487.000,-1820.000,-682.000,-775.000,NA,0.000,0
2026-01-30 22:29:22,3497044,4039.000,-725.000,6205.000,-899.000,-571.000,-448.000,NA,0.000,0
2026-01-30 22:29:22,3497084,6523.000,-1989.000,5757.000,-726.000,292.000,-321.000,NA,0.000,0
2026-01-30 22:29:22,3497124,5416.000,-1596.000,5888.000,-395.000,1120.000,-138.000,NA,0.000,0
2026-01-30 22:29:22,3497164,7310.000,-2149.000,6073.000,-394.000,646.000,-199.000,NA,0.000,0
2026-01-30 22:29:22,3497204,4451.000,-231.000,6670.000,121.000,-275.000,-521.000,NA,0.000,0
2026-01-30 22:29:22,3497244,6417.000,-2053.000,4998.000,-1292.000,-230.000,-531.000,NA,0.000,0
2026-01-30 22:29:23,3497284,6601.000,-2631.000,4663.000,-196.000,390.000,-159.000,NA,0.000,0
2026-01-30 22:29:23,3497324,5674.000,-1874.000,6200.000,1315.000,1043.000,-138.000,NA,0.000,0
2026-01-30 22:29:23,3497364,2077.000,-1360.000,6796.000,1232.000,9.000,-471.000,NA,0.000,0
2026-01-30 22:29:23,3497404,5114.000,-222.000,6614.000,-572.000,-357.000,197.000,NA,0.000,0
2026-01-30 22:29:23,3497444,6006.000,-1505.000,6160.000,-479.000,-505.000,-508.000,NA,0.000,0
2026-01-30 22:29:23,3497484,5690.000,-1668.000,6365.000,-166.000,206.000,-315.000,NA,0.000,0
2026-01-30 22:29:23,3497524,5335.000,-1553.000,6322.000,-201.000,751.000,-143.000,NA,0.000,0
2026-01-30 22:29:23,3497564,7779.000,-526.000,5026.000,292.000,260.000,76.000,NA,0.000,0
2026-01-30 22:29:23,3497604,6563.000,-1025.000,6027.000,952.000,508.000,-25.000,NA,0.000,0
2026-01-30 22:29:23,3497644,5050.000,-1047.000,6337.000,460.000,-527.000,-48.000,NA,0.000,0
2026-01-30 22:29:23,3497684,7894.000,-1330.000,5520.000,-102.000,-1051.000,-249.000,NA,0.000,0
2026-01-30 22:29:23,3497724,2809.000,-884.000,6037.000,593.000,-1134.000,-309.000,NA,0.000,0
2026-01-30 22:29:23,3497764,5219.000,-1525.000,3052.000,-463.000,-951.000,157.000,NA,0.000,0
2026-01-30 22:29:23,3497804,12364.000,-1416.000,3436.000,619.000,403.000,902.000,NA,0.000,0
2026-01-30 22:29:23,3497844,6641.000,-1226.000,7193.000,2013.000,1332.000,-741.000,NA,0.000,0
2026-01-30 22:29:23,3497884,3648.000,977.000,7810.000,828.000,-467.000,-691.000,NA,0.000,0
2026-01-30 22:29:23,3497924,7546.000,135.000,3536.000,-862.000,-1720.000,827.000,NA,0.000,0
2026-01-30 22:29:23,3497964,5520.000,-1795.000,5944.000,647.000,-522.000,366.000,NA,0.000,0
2026-01-30 22:29:23,3498004,4195.000,1030.000,4152.000,93.000,-562.000,171.000,NA,0.000,0
2026-01-30 22:29:23,3498044,5000.000,-802.000,4581.000,238.000,499.000,279.000,NA,0.000,0
2026-01-30 22:29:23,3498084,5038.000,-1420.000,6799.000,383.000,561.000,602.000,NA,0.000,0
2026-01-30 22:29:23,3498124,7979.000,-1650.000,6697.000,41.000,457.000,177.000,NA,0.000,0
2026-01-30 22:29:23,3498164,6802.000,303.000,4777.000,275.000,19.000,129.000,NA,0.000,0
2026-01-30 22:29:23,3498204,6083.000,-1212.000,5715.000,-506.000,-418.000,859.000,NA,0.000,0
2026-01-30 22:29:23,3498244,5022.000,-452.000,6355.000,-230.000,-255.000,360.000,NA,0.000,0
2026-01-30 22:29:24,3498284,4903.000,-139.000,6197.000,-813.000,-694.000,183.000,NA,0.000,0
2026-01-30 22:29:24,3498324,5158.000,-1990.000,6017.000,-1212.000,138.000,120.000,NA,0.000,0
2026-01-30 22:29:24,3498364,1915.000,-134.000,4711.000,-738.000,-24.000,391.000,NA,0.000,0
2026-01-30 22:29:24,3498404,6948.000,-2578.000,6203.000,-1307.000,837.000,721.000,NA,0.000,0
2026-01-30 22:29:24,3498444,3717.000,-1672.000,6512.000,167.000,621.000,561.000,NA,0.000,0
2026-01-30 22:29:24,3498484,8721.000,-868.000,2882.000,-1201.000,131.000,621.000,NA,0.000,0
2026-01-30 22:29:24,3498524,7369.000,-1302.000,6085.000,-365.000,715.000,-291.000,NA,0.000,0
2026-01-30 22:29:24,3498564,4652.000,-206.000,5696.000,-960.000,-499.000,-786.000,NA,0.000,0
2026-01-30 22:29:24,3498604,5956.000,-1153.000,4547.000,-1266.000,-1004.000,-163.000,NA,0.000,0
2026-01-30 22:29:24,3498644,3877.000,-706.000,4406.000,-156.000,-989.000,34.000,NA,0.000,0
2026-01-30 22:29:24,3498684,11039.000,-2034.000,1255.000,-34.000,-460.000,183.000,NA,0.000,0
2026-01-30 22:29:24,3498724,3177.000,-2376.000,7253.000,2108.000,756.000,-765.000,NA,0.000,0
2026-01-30 22:29:24,3498764,3056.000,-319.000,5173.000,-14.000,-173.000,-198.000,NA,0.000,0
2026-01-30 22:29:24,3498804,6560.000,-2943.000,5124.000,-333.000,-13.000,780.000,NA,0.000,0
2026-01-30 22:29:24,3498844,6786.000,-2461.000,7021.000,507.000,338.000,411.000,NA,0.000,0
2026-01-30 22:29:24,3498884,6084.000,-1404.000,5300.000,557.000,260.000,-335.000,NA,0.000,0
2026-01-30 22:29:24,3498924,7198.000,-1956.000,7549.000,-125.000,-107.000,-263.000,NA,0.000,0
2026-01-30 22:29:24,3498964,5754.000,-1020.000,6605.000,-382.000,-783.000,-720.000,NA,0.000,0
2026-01-30 22:29:24,3499004,5461.000,-89.000,5191.000,-935.000,-823.000,-714.000,NA,0.000,0
2026-01-30 22:29:24,3499044,1870.000,-1287.000,7380.000,-940.000,596.000,57.000,NA,0.000,0
2026-01-30 22:29:24,3499084,5630.000,-3702.000,3325.000,-1004.000,768.000,1010.000,NA,0.000,0
2026-01-30 22:29:24,3499124,5401.000,-2109.000,7832.000,1472.000,1785.000,1038.000,NA,0.000,0
2026-01-30 22:29:24,3499164,6703.000,-82.000,6756.000,93.000,799.000,176.000,NA,0.000,0
2026-01-30 22:29:24,3499204,7206.000,-1406.000,6222.000,-1740.000,-90.000,-174.000,NA,0.000,0
2026-01-30 22:29:24,3499244,3997.000,-946.000,5128.000,-2001.000,-562.000,-344.000,NA,0.000,0
2026-01-30 22:29:25,3499284,6637.000,-1373.000,5243.000,-1334.000,-259.000,-399.000,NA,0.000,0
2026-01-30 22:29:25,3499324,4332.000,-2352.000,5734.000,-889.000,47.000,-412.000,NA,0.000,0
2026-01-30 22:29:25,3499364,5652.000,-547.000,5323.000,-464.000,-294.000,-316.000,NA,0.000,0
2026-01-30 22:29:25,3499404,7561.000,-2329.000,6297.000,-528.000,338.000,-353.000,NA,0.000,0
2026-01-30 22:29:25,3499444,5095.000,-1856.000,6943.000,-419.000,-62.000,-795.000,NA,0.000,0
2026-01-30 22:29:25,3499484,5543.000,-1967.000,5777.000,-1573.000,-145.000,-724.000,NA,0.000,0
2026-01-30 22:29:25,3499524,4909.000,-2262.000,6582.000,-1111.000,200.000,-441.000,NA,0.000,0
2026-01-30 22:29:25,3499564,4102.000,-1081.000,5615.000,-70.000,188.000,-144.000,NA,0.000,0
2026-01-30 22:29:25,3499604,10972.000,-3848.000,5816.000,-1527.000,741.000,-57.000,NA,0.000,0
2026-01-30 22:29:25,3499644,3935.000,-1817.000,6216.000,744.000,268.000,-1095.000,NA,0.000,0
2026-01-30 22:29:25,3499684,6230.000,896.000,4951.000,-1774.000,-174.000,-970.000,NA,0.000,0
2026-01-30 22:29:25,3499724,4905.000,-1887.000,5470.000,-2458.000,235.000,-918.000,NA,0.000,0
2026-01-30 22:29:25,3499764,5391.000,-3111.000,6561.000,-627.000,1246.000,-774.000,NA,0.000,0
2026-01-30 22:29:25,3499804,5253.000,-1389.000,6179.000,386.000,1749.000,-552.000,NA,0.000,0
2026-01-30 22:29:25,3499844,5788.000,-1935.000,7803.000,-468.000,1340.000,-476.000,NA,0.000,0
2026-01-30 22:29:25,3499884,7049.000,-3586.000,8342.000,-1853.000,395.000,-193.000,NA,0.000,0
2026-01-30 22:29:25,3499924,5813.000,-61.000,9142.000,-2236.000,-644.000,376.000,NA,0.000,0
2026-01-30 22:29:25,3499964,5636.000,-2459.000,7529.000,-4824.000,526.000,-178.000,NA,0.000,0
2026-01-30 22:29:25,3500004,4543.000,-1692.000,5456.000,-4087.000,1620.000,-157.000,NA,0.000,0
2026-01-30 22:29:25,3500044,1512.000,825.000,1460.000,-2780.000,1317.000,66.000,NA,0.000,0
2026-01-30 22:29:25,3500084,5620.000,-7747.000,1548.000,-8194.000,-2293.000,375.000,NA,0.000,0
2026-01-30 22:29:25,3500124,3966.000,-3105.000,5012.000,-2106.000,-178.000,-872.000,NA,0.000,0
2026-01-30 22:29:25,3500164,6607.000,-1860.000,5433.000,-1953.000,-1179.000,-393.000,NA,0.000,0
2026-01-30 22:29:25,3500204,6828.000,-4153.000,5694.000,1172.000,-394.000,-216.000,NA,0.000,0
2026-01-30 22:29:25,3500244,8022.000,-3039.000,6630.000,2011.000,449.000,-751.000,NA,0.000,0
2026-01-30 22:29:26,3500284,5477.000,-2657.000,5691.000,813.000,911.000,-1139.000,NA,0.000,0
2026-01-30 22:29:26,3500324,3863.000,-3225.000,5394.000,1034.000,703.000,-777.000,NA,0.000,0
2026-01-30 22:29:26,3500364,4883.000,-2783.000,4671.000,491.000,670.000,-262.000,NA,0.000,0
2026-01-30 22:29:26,3500404,6337.000,-3689.000,6307.000,1255.000,703.000,-129.000,NA,0.000,0
2026-01-30 22:29:26,3500444,4065.000,-2671.000,5941.000,455.000,758.000,-588.000,NA,0.000,0
2026-01-30 22:29:26,3500484,7451.000,-2976.000,4945.000,-1379.000,705.000,-404.000,NA,0.000,0
2026-01-30 22:29:26,3500524,6036.000,-5368.000,5856.000,-1638.000,1858.000,-1109.000,NA,0.000,0
2026-01-30 22:29:26,3500564,3300.000,195.000,6397.000,-924.000,798.000,-1985.000,NA,0.000,0
2026-01-30 22:29:26,3500604,4973.000,-1914.000,5034.000,-1940.000,688.000,-1368.000,NA,0.000,0
2026-01-30 22:29:26,3500647,11009.000,-5564.000,3896.000,-2109.000,-468.000,714.000,NA,0.000,0
2026-01-30 22:29:26,3500684,12987.000,-5142.000,4597.000,-1658.000,1647.000,-130.000,NA,0.000,0
2026-01-30 22:29:26,3500724,771.000,-1957.000,7124.000,522.000,2190.000,-1670.000,NA,0.000,0
2026-01-30 22:29:26,3500764,8653.000,-3748.000,4880.000,-2090.000,1161.000,-197.000,NA,0.000,0
2026-01-30 22:29:26,3500804,2013.000,-1829.000,5460.000,-268.000,589.000,-197.000,NA,0.000,0
2026-01-30 22:29:26,3500844,6867.000,-182.000,6939.000,330.000,1046.000,-1176.000,NA,0.000,0
2026-01-30 22:29:26,3500884,9317.000,-2954.000,2953.000,-1662.000,4.000,-1167.000,NA,0.000,0
2026-01-30 22:29:26,3500924,2248.000,-1428.000,7188.000,-333.000,183.000,-2151.000,NA,0.000,0
2026-01-30 22:29:26,3500964,3279.000,-2623.000,7201.000,-1259.000,-828.000,-1238.000,NA,0.000,0
2026-01-30 22:29:26,3501004,10828.000,-4945.000,3014.000,-926.000,529.000,307.000,NA,0.000,0
2026-01-30 22:29:26,3501044,9046.000,-5823.000,9363.000,316.000,1665.000,-715.000,NA,0.000,0
2026-01-30 22:29:26,3501084,1075.000,-2554.000,6242.000,-133.000,3156.000,-2432.000,NA,0.000,0
2026-01-30 22:29:26,3501124,7647.000,-5203.000,5481.000,-1496.000,1081.000,387.000,NA,0.000,0
2026-01-30 22:29:26,3501164,2130.000,-1663.000,9232.000,638.000,586.000,-407.000,NA,0.000,0
2026-01-30 22:29:26,3501204,3108.000,-2940.000,3932.000,-362.000,-680.000,-743.000,NA,0.000,0
2026-01-30 22:29:26,3501244,-133.000,229.000,5029.000,-546.000,1404.000,-2090.000,NA,0.000,0
2026-01-30 22:29:27,3501284,9147.000,-3836.000,2498.000,-2081.000,682.000,448.000,NA,0.000,0
2026-01-30 22:29:27,3501324,4293.000,-3948.000,2153.000,573.000,1605.000,38.000,NA,0.000,0
2026-01-30 22:29:27,3501364,5192.000,-4547.000,3396.000,638.000,980.000,-331.000,NA,0.000,0
2026-01-30 22:29:27,3501404,9973.000,-2083.000,10188.000,511.000,814.000,-1248.000,NA,0.000,0
2026-01-30 22:29:27,3501444,9338.000,-922.000,10878.000,-229.000,-728.000,-1288.000,NA,0.000,0
2026-01-30 22:29:27,3501484,6597.000,-2574.000,5632.000,-356.000,-856.000,-1652.000,NA,0.000,0
2026-01-30 22:29:27,3501524,2392.000,-4774.000,264.000,1172.000,-13.000,-731.000,NA,0.000,0
2026-01-30 22:29:27,3501564,5905.000,-2418.000,3349.000,2722.000,60.000,-236.000,NA,0.000,0
2026-01-30 22:29:27,3501604,4421.000,-1705.000,10221.000,2700.000,-98.000,-421.000,NA,0.000,0
2026-01-30 22:29:27,3501644,5865.000,-1800.000,8976.000,-370.000,-1474.000,-825.000,NA,0.000,0
2026-01-30 22:29:27,3501684,-1183.000,-3820.000,6863.000,-378.000,-497.000,-1320.000,NA,0.000,0
2026-01-30 22:29:27,3501724,5150.000,-2751.000,2661.000,-1419.000,293.000,181.000,NA,0.000,0
2026-01-30 22:29:27,3501764,6671.000,-5493.000,6998.000,-495.000,1107.000,511.000,NA,0.000,0
2026-01-30 22:29:27,3501804,10461.000,-1040.000,9441.000,628.000,1334.000,-500.000,NA,0.000,0
2026-01-30 22:29:27,3501844,2096.000,16.000,6989.000,50.000,998.000,-621.000,NA,0.000,0
2026-01-30 22:29:27,3501884,8882.000,-3546.000,9074.000,-2913.000,548.000,-350.000,NA,0.000,0
2026-01-30 22:29:27,3501924,3774.000,1075.000,6910.000,288.000,92.000,-186.000,NA,0.000,0
2026-01-30 22:29:27,3501964,4279.000,-3415.000,294.000,-2166.000,275.000,-35.000,NA,0.000,0
2026-01-30 22:29:27,3502004,7594.000,-265.000,4724.000,-1670.000,606.000,-983.000,NA,0.000,0
2026-01-30 22:29:27,3502044,4360.000,-2675.000,6726.000,-2772.000,595.000,-1294.000,NA,0.000,0
2026-01-30 22:29:27,3502084,4205.000,-3109.000,9248.000,-3574.000,-56.000,-867.000,NA,0.000,0
2026-01-30 22:29:27,3502124,5876.000,-1969.000,5616.000,-3957.000,319.000,-1162.000,NA,0.000,0
2026-01-30 22:29:27,3502164,6045.000,-308.000,3758.000,-2733.000,413.000,-1004.000,NA,0.000,0
2026-01-30 22:29:27,3502204,6563.000,-1556.000,3273.000,-1722.000,848.000,-537.000,NA,0.000,0
2026-01-30 22:29:27,3502244,6683.000,-3438.000,2239.000,-1972.000,581.000,-759.000,NA,0.000,0
2026-01-30 22:29:28,3502284,4584.000,-4230.000,3868.000,415.000,670.000,-1077.000,NA,0.000,0
2026-01-30 22:29:28,3502324,6635.000,-3017.000,4930.000,99.000,-375.000,-1565.000,NA,0.000,0
2026-01-30 22:29:28,3502364,6642.000,-3268.000,4344.000,-101.000,-1150.000,-1363.000,NA,0.000,0
2026-01-30 22:29:28,3502407,5890.000,-1985.000,3707.000,759.000,431.000,-1400.000,NA,0.000,0
2026-01-30 22:29:28,3502446,5797.000,-2611.000,7250.000,153.000,1581.000,-1186.000,NA,0.000,0
2026-01-30 22:29:28,3502484,5018.000,-675.000,5037.000,567.000,1417.000,-1546.000,NA,0.000,0
2026-01-30 22:29:28,3502524,5065.000,-1795.000,7394.000,1261.000,551.000,-957.000,NA,0.000,0
2026-01-30 22:29:28,3502564,1618.000,-3837.000,5600.000,254.000,54.000,-590.000,NA,0.000,0
2026-01-30 22:29:28,3502604,4557.000,-2946.000,5412.000,-143.000,-417.000,651.000,NA,0.000,0
2026-01-30 22:29:28,3502649,14835.000,-4655.000,7575.000,-1140.000,1282.000,533.000,NA,0.000,0
2026-01-30 22:29:28,3502684,12416.000,-7201.000,3970.000,-2951.000,3507.000,-1239.000,NA,0.000,0
2026-01-30 22:29:28,3502724,723.000,-1594.000,9192.000,-126.000,2705.000,-3218.000,NA,0.000,0
2026-01-30 22:29:28,3502764,9555.000,-3247.000,5271.000,-4229.000,-565.000,516.000,NA,0.000,0
2026-01-30 22:29:28,3502804,3427.000,-3350.000,6011.000,1317.000,-306.000,-368.000,NA,0.000,0
2026-01-30 22:29:28,3502844,6763.000,-4135.000,3512.000,-2347.000,695.000,-1016.000,NA,0.000,0
2026-01-30 22:29:28,3502884,1359.000,-2626.000,7941.000,1150.000,152.000,-594.000,NA,0.000,0
2026-01-30 22:29:28,3502924,5925.000,-3745.000,7757.000,-1535.000,-178.000,619.000,NA,0.000,0
2026-01-30 22:29:28,3502964,3913.000,-2029.000,6904.000,-567.000,898.000,-404.000,NA,0.000,0
2026-01-30 22:29:28,3503004,6002.000,-1358.000,6307.000,-2750.000,692.000,-1062.000,NA,0.000,0
2026-01-30 22:29:28,3503044,5590.000,-3918.000,5478.000,-2383.000,362.000,-1136.000,NA,0.000,0
2026-01-30 22:29:28,3503084,3883.000,-1304.000,2881.000,-700.000,-401.000,-1356.000,NA,0.000,0
2026-01-30 22:29:28,3503124,3792.000,-3513.000,2475.000,-710.000,-225.000,-861.000,NA,0.000,0
2026-01-30 22:29:28,3503164,5582.000,-3226.000,2472.000,288.000,-610.000,-792.000,NA,0.000,0
2026-01-30 22:29:28,3503204,5507.000,-5217.000,3967.000,143.000,-619.000,-813.000,NA,0.000,0
2026-01-30 22:29:28,3503244,7464.000,-2560.000,4767.000,219.000,-1242.000,-2330.000,NA,0.000,0
2026-01-30 22:29:29,3503284,1021.000,-3213.000,6950.000,555.000,-1376.000,-2008.000,NA,0.000,0
2026-01-30 22:29:29,3503324,11512.000,-7468.000,2892.000,-1535.000,-1854.000,-1620.000,NA,0.000,0
2026-01-30 22:29:29,3503364,7529.000,-3518.000,8031.000,3643.000,313.000,-2576.000,NA,0.000,0
2026-01-30 22:29:29,3503404,1672.000,4897.000,6846.000,5269.000,-1098.000,-3611.000,NA,0.000,0
2026-01-30 22:29:29,3503444,5578.000,-5856.000,4280.000,-1472.000,-1811.000,-1900.000,NA,0.000,0
2026-01-30 22:29:29,3503484,2133.000,-4275.000,3439.000,3161.000,-610.000,-1129.000,NA,0.000,0
2026-01-30 22:29:29,3503524,8211.000,-3241.000,1577.000,3675.000,1979.000,764.000,NA,0.000,0
2026-01-30 22:29:29,3503564,3762.000,-2344.000,8260.000,3526.000,2310.000,251.000,NA,0.000,0
2026-01-30 22:29:29,3503604,16380.000,-230.000,9268.000,1768.000,2801.000,130.000,NA,0.000,0
2026-01-30 22:29:29,3503644,2878.000,-5458.000,12079.000,-578.000,789.000,-969.000,NA,0.000,0
2026-01-30 22:29:29,3503684,-519.000,-1049.000,7287.000,742.000,-804.000,-407.000,NA,0.000,0
2026-01-30 22:29:29,3503724,-121.000,-1966.000,7902.000,77.000,-1887.000,867.000,NA,0.000,0
2026-01-30 22:29:29,3503764,1463.000,320.000,8237.000,2836.000,-1888.000,458.000,NA,0.000,0
2026-01-30 22:29:29,3503804,1840.000,58.000,1403.000,12248.000,-3605.000,-865.000,NA,0.000,0
2026-01-30 22:29:29,3503844,-8903.000,-15443.000,18658.000,-11231.000,5319.000,-6742.000,NA,0.000,0
2026-01-30 22:29:29,3503884,9040.000,-8342.000,4424.000,-8033.000,1544.000,1124.000,NA,0.000,0
2026-01-30 22:29:29,3503924,3574.000,2019.000,9902.000,3529.000,1761.000,1241.000,NA,0.000,0
2026-01-30 22:29:29,3503964,6238.000,-1716.000,6861.000,904.000,989.000,763.000,NA,0.000,0
2026-01-30 22:29:29,3504004,5555.000,-252.000,3128.000,2612.000,675.000,774.000,NA,0.000,0
2026-01-30 22:29:29,3504044,3685.000,-1412.000,3112.000,2925.000,737.000,1826.000,NA,0.000,0
2026-01-30 22:29:29,3504084,4417.000,-1260.000,7094.000,2918.000,1098.000,1346.000,NA,0.000,0
2026-01-30 22:29:29,3504124,9762.000,-190.000,620.000,-207.000,1674.000,1681.000,NA,0.000,0
2026-01-30 22:29:29,3504164,5215.000,1080.000,9661.000,646.000,1017.000,627.000,NA,0.000,0
2026-01-30 22:29:29,3504204,4291.000,1650.000,7785.000,-473.000,-287.000,-497.000,NA,0.000,0
2026-01-30 22:29:29,3504244,1575.000,2040.000,30087.000,-2133.000,-2590.000,-1069.000,NA,0.000,0
2026-01-30 22:29:30,3504284,22718.000,-10233.000,-3382.000,-7968.000,538.000,1860.000,NA,0.000,0
2026-01-30 22:29:30,3504324,8972.000,2645.000,13731.000,3170.000,-99.000,795.000,NA,0.000,0
2026-01-30 22:29:30,3504364,8587.000,2130.000,1942.000,-3476.000,1403.000,-1294.000,NA,0.000,0
2026-01-30 22:29:30,3504406,1687.000,-2504.000,6612.000,70.000,63.000,-324.000,NA,0.000,0
2026-01-30 22:29:30,3504446,3456.000,-1489.000,9973.000,773.000,-1357.000,-251.000,NA,0.000,0
2026-01-30 22:29:30,3504484,4796.000,-492.000,6069.000,-942.000,-1663.000,-371.000,NA,0.000,0
2026-01-30 22:29:30,3504524,2456.000,-1058.000,5444.000,-1479.000,-1103.000,-120.000,NA,0.000,0
2026-01-30 22:29:30,3504564,5210.000,-1477.000,6110.000,-3082.000,19.000,989.000,NA,0.000,0
2026-01-30 22:29:30,3504604,4736.000,-1440.000,6189.000,-1089.000,611.000,1010.000,NA,0.000,0
2026-01-30 22:29:30,3504647,4549.000,-1263.000,7323.000,-1962.000,-305.000,963.000,NA,0.000,0
2026-01-30 22:29:30,3504684,7164.000,-677.000,5337.000,-2577.000,-464.000,727.000,NA,0.000,0
2026-01-30 22:29:30,3504724,6681.000,262.000,6585.000,-2089.000,-269.000,-616.000,NA,0.000,0
2026-01-30 22:29:30,3504764,5762.000,-2156.000,4513.000,-1922.000,-260.000,-1183.000,NA,0.000,0
2026-01-30 22:29:30,3504804,5542.000,-3081.000,5323.000,64.000,-970.000,-326.000,NA,0.000,0
2026-01-30 22:29:30,3504844,5560.000,-2547.000,4023.000,915.000,-1177.000,-388.000,NA,0.000,0
2026-01-30 22:29:30,3504884,6720.000,-2144.000,4059.000,864.000,-1234.000,72.000,NA,0.000,0
2026-01-30 22:29:30,3504924,6165.000,-1106.000,5414.000,1007.000,-614.000,-378.000,NA,0.000,0
2026-01-30 22:29:30,3504964,5815.000,-3622.000,3735.000,1232.000,532.000,-499.000,NA,0.000,0
2026-01-30 22:29:30,3505004,5165.000,-2364.000,5161.000,1923.000,178.000,-227.000,NA,0.000,0
2026-01-30 22:29:30,3505044,5628.000,-1697.000,9047.000,-248.000,299.000,-637.000,NA,0.000,0
2026-01-30 22:29:30,3505084,3805.000,-1069.000,6620.000,-200.000,838.000,-1134.000,NA,0.000,0
2026-01-30 22:29:30,3505124,4534.000,-1518.000,6950.000,-235.000,1076.000,-985.000,NA,0.000,0
2026-01-30 22:29:30,3505164,3990.000,-1281.000,6746.000,1369.000,1795.000,-497.000,NA,0.000,0
2026-01-30 22:29:30,3505204,6074.000,-1464.000,6912.000,1319.000,2157.000,-599.000,NA,0.000,0
2026-01-30 22:29:30,3505244,5018.000,-1060.000,7430.000,1875.000,2060.000,-331.000,NA,0.000,0
2026-01-30 22:29:31,3505284,4154.000,-745.000,6809.000,1730.000,2262.000,-830.000,NA,0.000,0
2026-01-30 22:29:31,3505324,4623.000,-771.000,7708.000,1943.000,1751.000,-1499.000,NA,0.000,0
2026-01-30 22:29:31,3505364,4257.000,-1113.000,6418.000,1044.000,1456.000,-933.000,NA,0.000,0
2026-01-30 22:29:31,3505404,3270.000,-883.000,7500.000,1029.000,1708.000,-779.000,NA,0.000,0
2026-01-30 22:29:31,3505444,4143.000,-508.000,7859.000,425.000,1488.000,-937.000,NA,0.000,0
2026-01-30 22:29:31,3505484,3189.000,510.000,7332.000,345.000,1430.000,-712.000,NA,0.000,0
2026-01-30 22:29:31,3505524,3017.000,-861.000,7388.000,-792.000,1388.000,-1033.000,NA,0.000,0
2026-01-30 22:29:31,3505564,2719.000,121.000,7278.000,-104.000,1120.000,-558.000,NA,0.000,0
2026-01-30 22:29:31,3505604,3240.000,-672.000,7663.000,-524.000,431.000,-652.000,NA,0.000,0
2026-01-30 22:29:31,3505644,2371.000,-1000.000,8037.000,-1129.000,148.000,-811.000,NA,0.000,0
2026-01-30 22:29:31,3505684,4136.000,-699.000,7323.000,-1153.000,-488.000,-584.000,NA,0.000,0
2026-01-30 22:29:31,3505724,4595.000,-440.000,7198.000,-1238.000,-242.000,-495.000,NA,0.000,0
2026-01-30 22:29:31,3505764,3906.000,-585.000,8006.000,-1149.000,-204.000,-993.000,NA,0.000,0
2026-01-30 22:29:31,3505804,2077.000,-762.000,7412.000,-272.000,-328.000,-913.000,NA,0.000,0
2026-01-30 22:29:31,3505844,4040.000,-1003.000,7888.000,-1161.000,-1208.000,-804.000,NA,0.000,0
2026-01-30 22:29:31,3505884,3316.000,-574.000,7309.000,-504.000,-1373.000,-758.000,NA,0.000,0
2026-01-30 22:29:31,3505924,4762.000,-1126.000,7397.000,-1697.000,-1443.000,-678.000,NA,0.000,0
2026-01-30 22:29:31,3505964,4166.000,-555.000,7270.000,-763.000,-1039.000,-560.000,NA,0.000,0
2026-01-30 22:29:31,3506004,4286.000,-1451.000,5914.000,-847.000,-1097.000,-74.000,NA,0.000,0
2026-01-30 22:29:31,3506044,5415.000,-1155.000,6527.000,-154.000,-1342.000,-41.000,NA,0.000,0
2026-01-30 22:29:31,3506084,5948.000,-2361.000,6815.000,49.000,-1466.000,-124.000,NA,0.000,0
2026-01-30 22:29:31,3506124,3922.000,-1229.000,7290.000,2320.000,-1846.000,-18.000,NA,0.000,0
2026-01-30 22:29:31,3506164,6139.000,-1979.000,5817.000,-28.000,-2040.000,334.000,NA,0.000,0
2026-01-30 22:29:31,3506204,4618.000,-1096.000,6238.000,1654.000,-2066.000,624.000,NA,0.000,0
2026-01-30 22:29:31,3506244,5540.000,-946.000,7174.000,1356.000,-2010.000,971.000,NA,0.000,0
2026-01-30 22:29:32,3506284,4217.000,-1783.000,6549.000,1372.000,-1553.000,1370.000,NA,0.000,0
2026-01-30 22:29:32,3506324,5620.000,-1718.000,6834.000,1157.000,-1391.000,1633.000,NA,0.000,0
2026-01-30 22:29:32,3506364,5787.000,-976.000,6631.000,1694.000,-1395.000,1696.000,NA,0.000,0
2026-01-30 22:29:32,3506404,5460.000,-1182.000,9014.000,759.000,-1263.000,1902.000,NA,0.000,0
2026-01-30 22:29:32,3506444,4949.000,-1159.000,7271.000,122.000,-980.000,1411.000,NA,0.000,0
2026-01-30 22:29:32,3506484,5175.000,-694.000,6259.000,542.000,-619.000,1577.000,NA,0.000,0
2026-01-30 22:29:32,3506524,5053.000,-1148.000,5689.000,234.000,-76.000,1440.000,NA,0.000,0
2026-01-30 22:29:32,3506564,5428.000,-1615.000,5958.000,-406.000,-353.000,1203.000,NA,0.000,0
2026-01-30 22:29:32,3506604,5187.000,-481.000,4898.000,-438.000,-93.000,909.000,NA,0.000,0
2026-01-30 22:29:32,3506647,5491.000,-1025.000,5783.000,-278.000,353.000,227.000,NA,0.000,0
2026-01-30 22:29:32,3506684,4867.000,-745.000,5363.000,749.000,268.000,191.000,NA,0.000,0
2026-01-30 22:29:32,3506724,6495.000,-1482.000,5475.000,-473.000,47.000,141.000,NA,0.000,0
2026-01-30 22:29:32,3506764,4706.000,-1249.000,5694.000,1157.000,90.000,-309.000,NA,0.000,0
2026-01-30 22:29:32,3506804,7241.000,-2057.000,5269.000,1005.000,-217.000,530.000,NA,0.000,0
2026-01-30 22:29:32,3506844,4795.000,-1692.000,5564.000,1245.000,-126.000,-91.000,NA,0.000,0
2026-01-30 22:29:32,3506884,5755.000,-1479.000,7252.000,1324.000,-198.000,241.000,NA,0.000,0
2026-01-30 22:29:32,3506924,4114.000,397.000,7663.000,1061.000,-562.000,244.000,NA,0.000,0
2026-01-30 22:29:32,3506964,5718.000,-666.000,6830.000,455.000,-685.000,468.000,NA,0.000,0
2026-01-30 22:29:32,3507004,5256.000,-1188.000,6218.000,-37.000,-457.000,242.000,NA,0.000,0
2026-01-30 22:29:32,3507044,6037.000,-3041.000,7083.000,-928.000,801.000,-165.000,NA,0.000,0
2026-01-30 22:29:32,3507084,4010.000,2103.000,5811.000,783.000,-377.000,-169.000,NA,0.000,0
2026-01-30 22:29:32,3507124,5840.000,-447.000,6090.000,-94.000,-472.000,308.000,NA,0.000,0
2026-01-30 22:29:32,3507164,5157.000,-2794.000,5938.000,-349.000,-266.000,461.000,NA,0.000,0
2026-01-30 22:29:32,3507204,5244.000,-1000.000,5348.000,53.000,-449.000,-112.000,NA,0.000,0
2026-01-30 22:29:32,3507244,6300.000,-1110.000,4845.000,-728.000,-441.000,-7.000,NA,0.000,0
2026-01-30 22:29:33,3507284,5972.000,-485.000,5494.000,-348.000,-53.000,101.000,NA,0.000,0
2026-01-30 22:29:33,3507324,5373.000,-584.000,5341.000,-296.000,-71.000,-315.000,NA,0.000,0
2026-01-30 22:29:33,3507364,5779.000,-661.000,5396.000,-655.000,-261.000,-141.000,NA,0.000,0
2026-01-30 22:29:33,3507404,6415.000,-1850.000,3596.000,-712.000,406.000,-192.000,NA,0.000,0
2026-01-30 22:29:33,3507444,6902.000,-843.000,5606.000,301.000,-77.000,-416.000,NA,0.000,0
2026-01-30 22:29:33,3507484,5170.000,-1019.000,5815.000,140.000,-539.000,-605.000,NA,0.000,0
2026-01-30 22:29:33,3507524,5828.000,-1850.000,6543.000,-386.000,-593.000,-332.000,NA,0.000,0
2026-01-30 22:29:33,3507564,6117.000,-891.000,4827.000,-777.000,-249.000,-514.000,NA,0.000,0
2026-01-30 22:29:33,3507604,5280.000,-1355.000,5015.000,-199.000,907.000,-811.000,NA,0.000,0
2026-01-30 22:29:33,3507644,7073.000,-1587.000,5561.000,-79.000,1218.000,-587.000,NA,0.000,0
2026-01-30 22:29:33,3507684,6613.000,-1106.000,5566.000,759.000,1078.000,-658.000,NA,0.000,0
2026-01-30 22:29:33,3507724,5622.000,-1283.000,5759.000,1284.000,428.000,-616.000,NA,0.000,0
2026-01-30 22:29:33,3507764,5273.000,-2063.000,5113.000,624.000,417.000,-304.000,NA,0.000,0
2026-01-30 22:29:33,3507804,5539.000,-1864.000,6229.000,814.000,500.000,-184.000,NA,0.000,0
2026-01-30 22:29:33,3507844,4584.000,-809.000,7465.000,738.000,613.000,-250.000,NA,0.000,0
2026-01-30 22:29:33,3507884,5432.000,-187.000,6353.000,237.000,267.000,6.000,NA,0.000,0
2026-01-30 22:29:33,3507924,6207.000,-1438.000,7002.000,-531.000,548.000,134.000,NA,0.000,0
2026-01-30 22:29:33,3507964,4828.000,-771.000,6374.000,108.000,771.000,-366.000,NA,0.000,0
2026-01-30 22:29:33,3508004,5041.000,-1292.000,6810.000,-205.000,328.000,-173.000,NA,0.000,0
2026-01-30 22:29:33,3508044,5940.000,-514.000,5253.000,-142.000,-576.000,389.000,NA,0.000,0
2026-01-30 22:29:33,3508084,6721.000,-443.000,6098.000,92.000,-417.000,-25.000,NA,0.000,0
2026-01-30 22:29:33,3508124,4860.000,-995.000,5134.000,115.000,-301.000,-230.000,NA,0.000,0
2026-01-30 22:29:33,3508164,6316.000,-1520.000,5851.000,814.000,-252.000,125.000,NA,0.000,0
2026-01-30 22:29:33,3508204,5218.000,-865.000,7222.000,824.000,-110.000,366.000,NA,0.000,0
2026-01-30 22:29:33,3508244,5454.000,-1066.000,5577.000,633.000,161.000,486.000,NA,0.000,0
2026-01-30 22:29:34,3508284,4848.000,-1398.000,6569.000,819.000,335.000,651.000,NA,0.000,0
2026-01-30 22:29:34,3508324,5453.000,-1095.000,7080.000,809.000,553.000,728.000,NA,0.000,0
2026-01-30 22:29:34,3508364,4603.000,-1034.000,6607.000,512.000,138.000,754.000,NA,0.000,0
2026-01-30 22:29:34,3508404,5501.000,-249.000,5935.000,358.000,-707.000,712.000,NA,0.000,0
2026-01-30 22:29:34,3508449,5285.000,-793.000,5822.000,913.000,-723.000,1085.000,NA,0.000,0
2026-01-30 22:29:34,3508484,6419.000,-1148.000,5764.000,313.000,-702.000,1197.000,NA,0.000,0
2026-01-30 22:29:34,3508524,6926.000,-742.000,5663.000,584.000,-424.000,1317.000,NA,0.000,0
2026-01-30 22:29:34,3508564,4560.000,-1566.000,6955.000,1306.000,-368.000,942.000,NA,0.000,0
2026-01-30 22:29:34,3508604,5806.000,-1512.000,7450.000,92.000,-810.000,1534.000,NA,0.000,0
2026-01-30 22:29:34,3508647,4878.000,-1531.000,5679.000,296.000,-875.000,1306.000,NA,0.000,0
2026-01-30 22:29:34,3508684,5856.000,-843.000,6064.000,515.000,-791.000,1323.000,NA,0.000,0
2026-01-30 22:29:34,3508724,4657.000,-974.000,5452.000,379.000,-298.000,1068.000,NA,0.000,0
2026-01-30 22:29:34,3508764,6170.000,-622.000,6414.000,-100.000,-575.000,1369.000,NA,0.000,0
2026-01-30 22:29:34,3508804,5425.000,-1821.000,5212.000,233.000,-632.000,1473.000,NA,0.000,0
2026-01-30 22:29:34,3508844,7226.000,-982.000,5578.000,525.000,-514.000,816.000,NA,0.000,0
2026-01-30 22:29:34,3508884,5435.000,-1575.000,5479.000,728.000,-479.000,395.000,NA,0.000,0
2026-01-30 22:29:34,3508924,6112.000,-1823.000,6500.000,314.000,-397.000,569.000,NA,0.000,0
2026-01-30 22:29:34,3508964,4472.000,-1126.000,5368.000,356.000,-597.000,573.000,NA,0.000,0
2026-01-30 22:29:34,3509004,5210.000,-1049.000,5548.000,495.000,-348.000,1049.000,NA,0.000,0
2026-01-30 22:29:34,3509044,6168.000,-1886.000,5568.000,-8.000,179.000,807.000,NA,0.000,0
2026-01-30 22:29:34,3509084,6000.000,-1743.000,6353.000,-65.000,264.000,317.000,NA,0.000,0
2026-01-30 22:29:34,3509124,4839.000,-716.000,5828.000,-32.000,151.000,56.000,NA,0.000,0
2026-01-30 22:29:34,3509164,5926.000,-1393.000,5885.000,-396.000,-97.000,438.000,NA,0.000,0
2026-01-30 22:29:34,3509204,5498.000,-1648.000,5851.000,-3.000,-368.000,92.000,NA,0.000,0
2026-01-30 22:29:34,3509244,5589.000,-1352.000,5720.000,-173.000,-413.000,37.000,NA,0.000,0
2026-01-30 22:29:35,3509284,5551.000,-1792.000,5270.000,163.000,-346.000,300.000,NA,0.000,0
2026-01-30 22:29:35,3509324,5943.000,-1601.000,6492.000,273.000,-121.000,181.000,NA,0.000,0
2026-01-30 22:29:35,3509364,5823.000,-1649.000,5251.000,163.000,61.000,108.000,NA,0.000,0
2026-01-30 22:29:35,3509404,5976.000,-1275.000,6088.000,-124.000,16.000,144.000,NA,0.000,0
2026-01-30 22:29:35,3509444,5908.000,-1492.000,5506.000,-269.000,58.000,41.000,NA,0.000,0
2026-01-30 22:29:35,3509484,5447.000,-1055.000,5519.000,-207.000,-142.000,88.000,NA,0.000,0
2026-01-30 22:29:35,3509524,6753.000,-1774.000,5634.000,-880.000,228.000,-144.000,NA,0.000,0
2026-01-30 22:29:35,3509564,5716.000,-844.000,5791.000,-331.000,344.000,-300.000,NA,0.000,0
2026-01-30 22:29:35,3509604,6150.000,-1203.000,5451.000,-462.000,480.000,144.000,NA,0.000,0
2026-01-30 22:29:35,3509644,5889.000,-844.000,5994.000,-128.000,393.000,238.000,NA,0.000,0
2026-01-30 22:29:35,3509684,5537.000,-1400.000,6019.000,-616.000,583.000,202.000,NA,0.000,0
2026-01-30 22:29:35,3509724,4799.000,-1162.000,5772.000,-696.000,342.000,329.000,NA,0.000,0
2026-01-30 22:29:35,3509764,6075.000,-2122.000,5778.000,-1339.000,536.000,512.000,NA,0.000,0
2026-01-30 22:29:35,3509804,5098.000,-1224.000,6756.000,-782.000,758.000,100.000,NA,0.000,0
2026-01-30 22:29:35,3509844,5029.000,-1341.000,5701.000,-1531.000,611.000,-272.000,NA,0.000,0
2026-01-30 22:29:35,3509884,6522.000,-1560.000,6078.000,-1987.000,399.000,-505.000,NA,0.000,0
2026-01-30 22:29:35,3509924,5644.000,-978.000,5179.000,-1614.000,756.000,-801.000,NA,0.000,0
2026-01-30 22:29:35,3509964,4234.000,-1418.000,5795.000,-1319.000,423.000,-693.000,NA,0.000,0
2026-01-30 22:29:35,3510004,5149.000,-2898.000,4447.000,-653.000,124.000,56.000,NA,0.000,0
2026-01-30 22:29:35,3510044,4405.000,-2160.000,7582.000,385.000,546.000,-1.000,NA,0.000,0
2026-01-30 22:29:35,3510084,8638.000,-1851.000,5450.000,-1038.000,30.000,64.000,NA,0.000,0
2026-01-30 22:29:35,3510124,2806.000,-992.000,7085.000,1088.000,78.000,-554.000,NA,0.000,0
2026-01-30 22:29:35,3510164,5958.000,-1993.000,5037.000,-1595.000,-756.000,83.000,NA,0.000,0
2026-01-30 22:29:35,3510204,7076.000,-1825.000,6241.000,-1143.000,-218.000,-401.000,NA,0.000,0
2026-01-30 22:29:35,3510244,3575.000,-892.000,4495.000,-355.000,-155.000,-1124.000,NA,0.000,0
2026-01-30 22:29:36,3510284,8220.000,-2343.000,5048.000,-1013.000,-562.000,-684.000,NA,0.000,0
2026-01-30 22:29:36,3510324,4262.000,-2126.000,3930.000,-66.000,-639.000,-974.000,NA,0.000,0
2026-01-30 22:29:36,3510364,-4906.000,-1967.000,5756.000,1737.000,-484.000,-1857.000,NA,0.000,0
2026-01-30 22:29:36,3510404,15226.000,-5753.000,8777.000,-2883.000,-888.000,1626.000,NA,0.000,0
2026-01-30 22:29:36,3510444,4896.000,-1254.000,6250.000,1761.000,93.000,-27.000,NA,0.000,0
2026-01-30 22:29:36,3510484,6011.000,-1756.000,7032.000,-170.000,798.000,-571.000,NA,0.000,0
2026-01-30 22:29:36,3510524,4649.000,-1186.000,6129.000,-127.000,239.000,8.000,NA,0.000,0
2026-01-30 22:29:36,3510564,5756.000,-1770.000,6792.000,-1101.000,-549.000,397.000,NA,0.000,0
2026-01-30 22:29:36,3510604,7780.000,-2341.000,6144.000,-1244.000,-53.000,-89.000,NA,0.000,0
2026-01-30 22:29:36,3510647,4375.000,-2243.000,992.000,-1666.000,133.000,119.000,NA,0.000,0
2026-01-30 22:29:36,3510685,7391.000,-3205.000,7449.000,-1731.000,-141.000,-152.000,NA,0.000,0
2026-01-30 22:29:36,3510724,2534.000,3270.000,-959.000,-198.000,-296.000,614.000,NA,0.000,0
2026-01-30 22:29:36,3510764,1632.000,368.000,2614.000,-1112.000,842.000,86.000,NA,0.000,0
2026-01-30 22:29:36,3510804,4745.000,-6909.000,7132.000,-2578.000,1839.000,182.000,NA,0.000,0
2026-01-30 22:29:36,3510844,9073.000,136.000,2008.000,938.000,-1206.000,31.000,NA,0.000,0
2026-01-30 22:29:36,3510884,2468.000,212.000,6777.000,363.000,456.000,-1716.000,NA,0.000,0
2026-01-30 22:29:36,3510924,7842.000,-4260.000,7068.000,-2695.000,-605.000,-614.000,NA,0.000,0
2026-01-30 22:29:36,3510964,7444.000,-2113.000,6848.000,-784.000,77.000,-1336.000,NA,0.000,0
2026-01-30 22:29:36,3511004,4525.000,-1359.000,6110.000,-438.000,684.000,-1429.000,NA,0.000,0
2026-01-30 22:29:36,3511044,5893.000,-1633.000,6633.000,-863.000,141.000,-691.000,NA,0.000,0
2026-01-30 22:29:36,3511084,4627.000,-1735.000,6661.000,-19.000,286.000,-338.000,NA,0.000,0
2026-01-30 22:29:36,3511124,5315.000,-1773.000,6308.000,-77.000,483.000,-743.000,NA,0.000,0
2026-01-30 22:29:36,3511164,6505.000,-3460.000,6213.000,-525.000,1762.000,-1046.000,NA,0.000,0
2026-01-30 22:29:36,3511204,6513.000,-2991.000,6461.000,-567.000,2605.000,-1324.000,NA,0.000,0
2026-01-30 22:29:36,3511244,1475.000,914.000,6229.000,520.000,3.000,-660.000,NA,0.000,0
2026-01-30 22:29:37,3511284,8348.000,-4026.000,3978.000,-1584.000,-1376.000,570.000,NA,0.000,0
2026-01-30 22:29:37,3511324,5963.000,-1594.000,6040.000,520.000,-1104.000,-485.000,NA,0.000,0
2026-01-30 22:29:37,3511364,5178.000,-1523.000,7020.000,-169.000,-1078.000,-909.000,NA,0.000,0
2026-01-30 22:29:37,3511404,4263.000,-2927.000,4760.000,-687.000,378.000,-380.000,NA,0.000,0
2026-01-30 22:29:37,3511444,7281.000,-2865.000,6582.000,334.000,1111.000,79.000,NA,0.000,0
2026-01-30 22:29:37,3511484,5540.000,-1413.000,5510.000,1472.000,746.000,330.000,NA,0.000,0
2026-01-30 22:29:37,3511524,7216.000,-1893.000,6618.000,351.000,-1379.000,184.000,NA,0.000,0
2026-01-30 22:29:37,3511564,5081.000,-207.000,6933.000,-1024.000,-2005.000,-1129.000,NA,0.000,0
2026-01-30 22:29:37,3511604,3475.000,-947.000,6967.000,-1939.000,-1796.000,-1259.000,NA,0.000,0
2026-01-30 22:29:37,3511644,2981.000,-914.000,1376.000,-1428.000,-715.000,-409.000,NA,0.000,0
2026-01-30 22:29:37,3511684,4971.000,-4767.000,6776.000,-1276.000,2211.000,-148.000,NA,0.000,0
2026-01-30 22:29:37,3511724,4263.000,-1463.000,5554.000,-501.000,1666.000,-768.000,NA,0.000,0
2026-01-30 22:29:37,3511764,8972.000,-2584.000,5414.000,-1027.000,1359.000,-105.000,NA,0.000,0
2026-01-30 22:29:37,3511804,6135.000,-1586.000,6987.000,188.000,425.000,-388.000,NA,0.000,0
2026-01-30 22:29:37,3511844,5761.000,-987.000,5981.000,-715.000,-1025.000,-933.000,NA,0.000,0
2026-01-30 22:29:37,3511884,4694.000,-1987.000,3881.000,-1012.000,-765.000,-489.000,NA,0.000,0
2026-01-30 22:29:37,3511924,4634.000,-2492.000,5316.000,-23.000,389.000,-770.000,NA,0.000,0
2026-01-30 22:29:37,3511964,4930.000,-2364.000,3330.000,745.000,1349.000,-250.000,NA,0.000,0
2026-01-30 22:29:37,3512004,7970.000,-3476.000,5858.000,581.000,1186.000,-79.000,NA,0.000,0
2026-01-30 22:29:37,3512044,5768.000,-1750.000,7610.000,1397.000,886.000,-827.000,NA,0.000,0
2026-01-30 22:29:37,3512084,6462.000,-914.000,7119.000,-274.000,-1354.000,-364.000,NA,0.000,0
2026-01-30 22:29:37,3512124,5709.000,-1769.000,6092.000,-1408.000,-1989.000,-144.000,NA,0.000,0
2026-01-30 22:29:37,3512164,4767.000,-2050.000,4903.000,-1000.000,-1110.000,-419.000,NA,0.000,0
2026-01-30 22:29:37,3512204,5728.000,-1675.000,4676.000,-545.000,561.000,-332.000,NA,0.000,0
2026-01-30 22:29:37,3512244,5681.000,-1001.000,6172.000,106.000,1011.000,-165.000,NA,0.000,0
2026-01-30 22:29:38,3512284,5982.000,-2417.000,6178.000,-695.000,601.000,-199.000,NA,0.000,0
2026-01-30 22:29:38,3512324,5784.000,-1715.000,5014.000,-474.000,-95.000,231.000,NA,0.000,0
2026-01-30 22:29:38,3512364,5550.000,-2289.000,4875.000,-361.000,-360.000,87.000,NA,0.000,0
2026-01-30 22:29:38,3512407,5020.000,-2390.000,6055.000,-62.000,-343.000,-284.000,NA,0.000,0
2026-01-30 22:29:38,3512444,5530.000,-1416.000,5426.000,-360.000,-582.000,-470.000,NA,0.000,0
2026-01-30 22:29:38,3512484,5334.000,-1631.000,5264.000,-611.000,-29.000,-699.000,NA,0.000,0
2026-01-30 22:29:38,3512524,5910.000,-2591.000,5456.000,-322.000,274.000,-557.000,NA,0.000,0
2026-01-30 22:29:38,3512564,5053.000,-2783.000,6192.000,-60.000,549.000,-622.000,NA,0.000,0
2026-01-30 22:29:38,3512604,5444.000,-2712.000,6287.000,-342.000,285.000,-414.000,NA,0.000,0
2026-01-30 22:29:38,3512644,6628.000,-2150.000,5602.000,-467.000,94.000,-488.000,NA,0.000,0
2026-01-30 22:29:38,3512684,3117.000,-2386.000,7194.000,-42.000,573.000,-783.000,NA,0.000,0
2026-01-30 22:29:38,3512724,12066.000,-2575.000,7923.000,-1958.000,764.000,-676.000,NA,0.000,0
2026-01-30 22:29:38,3512764,918.000,1409.000,4100.000,1523.000,-1038.000,-760.000,NA,0.000,0
2026-01-30 22:29:38,3512804,6501.000,-5652.000,6815.000,-1363.000,1525.000,181.000,NA,0.000,0
2026-01-30 22:29:38,3512844,8622.000,-2418.000,5400.000,420.000,817.000,-607.000,NA,0.000,0
2026-01-30 22:29:38,3512884,1399.000,566.000,3939.000,534.000,-519.000,-1018.000,NA,0.000,0
2026-01-30 22:29:38,3512924,5313.000,-3718.000,7464.000,-1751.000,-104.000,131.000,NA,0.000,0
2026-01-30 22:29:38,3512964,14421.000,-3892.000,4971.000,-537.000,29.000,538.000,NA,0.000,0
2026-01-30 22:29:38,3513004,3931.000,-383.000,7402.000,2190.000,-218.000,-1107.000,NA,0.000,0
2026-01-30 22:29:38,3513044,6798.000,-1759.000,5708.000,-1337.000,-782.000,-993.000,NA,0.000,0
2026-01-30 22:29:38,3513084,4600.000,-2802.000,6147.000,-256.000,-46.000,35.000,NA,0.000,0
2026-01-30 22:29:38,3513124,4177.000,-2729.000,4478.000,482.000,453.000,204.000,NA,0.000,0
2026-01-30 22:29:38,3513164,6803.000,-1342.000,7007.000,1372.000,715.000,290.000,NA,0.000,0
2026-01-30 22:29:38,3513204,6945.000,-3180.000,6629.000,731.000,287.000,291.000,NA,0.000,0
2026-01-30 22:29:38,3513244,5631.000,-1099.000,6411.000,63.000,134.000,-56.000,NA,0.000,0
2026-01-30 22:29:39,3513284,5667.000,-1656.000,5146.000,-643.000,-468.000,-214.000,NA,0.000,0
2026-01-30 22:29:39,3513324,8483.000,-2144.000,5791.000,84.000,378.000,28.000,NA,0.000,0
2026-01-30 22:29:39,3513364,6719.000,-857.000,6656.000,660.000,170.000,-634.000,NA,0.000,0
2026-01-30 22:29:39,3513404,4969.000,-455.000,4999.000,-499.000,-1054.000,164.000,NA,0.000,0
2026-01-30 22:29:39,3513444,4512.000,-1393.000,5459.000,-449.000,63.000,359.000,NA,0.000,0
2026-01-30 22:29:39,3513484,5109.000,-2263.000,5709.000,-236.000,702.000,611.000,NA,0.000,0
2026-01-30 22:29:39,3513524,6194.000,-2447.000,6150.000,27.000,1701.000,264.000,NA,0.000,0
2026-01-30 22:29:39,3513564,5844.000,-1631.000,7803.000,688.000,1354.000,83.000,NA,0.000,0
2026-01-30 22:29:39,3513604,7787.000,-975.000,7377.000,-1038.000,239.000,-131.000,NA,0.000,0
2026-01-30 22:29:39,3513644,4748.000,-1943.000,5991.000,-1188.000,-599.000,-350.000,NA,0.000,0
2026-01-30 22:29:39,3513684,4059.000,-1230.000,5976.000,-1397.000,-1065.000,-541.000,NA,0.000,0
2026-01-30 22:29:39,3513724,5880.000,-2121.000,4658.000,-1161.000,-88.000,-385.000,NA,0.000,0
2026-01-30 22:29:39,3513764,3642.000,-1192.000,6208.000,13.000,909.000,-679.000,NA,0.000,0
2026-01-30 22:29:39,3513804,4752.000,-2496.000,5213.000,-303.000,393.000,-151.000,NA,0.000,0
2026-01-30 22:29:39,3513844,6400.000,-2544.000,5203.000,424.000,217.000,154.000,NA,0.000,0
2026-01-30 22:29:39,3513884,6895.000,-2490.000,5137.000,930.000,-128.000,-196.000,NA,0.000,0
2026-01-30 22:29:39,3513924,7320.000,-1898.000,5531.000,698.000,-540.000,-992.000,NA,0.000,0
2026-01-30 22:29:39,3513964,5472.000,-679.000,5942.000,201.000,-1763.000,-1011.000,NA,0.000,0
2026-01-30 22:29:39,3514004,5214.000,-1879.000,5138.000,-462.000,-1653.000,-543.000,NA,0.000,0
2026-01-30 22:29:39,3514044,6803.000,-2819.000,5352.000,676.000,-267.000,-159.000,NA,0.000,0
2026-01-30 22:29:39,3514084,4546.000,-1705.000,6658.000,1311.000,280.000,-190.000,NA,0.000,0
2026-01-30 22:29:39,3514124,5936.000,-1640.000,6106.000,412.000,479.000,205.000,NA,0.000,0
2026-01-30 22:29:39,3514164,6231.000,-1801.000,6296.000,363.000,373.000,560.000,NA,0.000,0
2026-01-30 22:29:39,3514204,5170.000,-1811.000,5315.000,520.000,58.000,425.000,NA,0.000,0
2026-01-30 22:29:39,3514244,6200.000,-1447.000,5311.000,314.000,-266.000,425.000,NA,0.000,0
2026-01-30 22:29:40,3514284,5651.000,-1643.000,5520.000,166.000,-820.000,113.000,NA,0.000,0
2026-01-30 22:29:40,3514324,5828.000,-1912.000,5750.000,-230.000,-407.000,-329.000,NA,0.000,0
2026-01-30 22:29:40,3514364,4943.000,-1769.000,6416.000,-699.000,-330.000,-361.000,NA,0.000,0
2026-01-30 22:29:40,3514407,5555.000,-2703.000,5801.000,-346.000,566.000,376.000,NA,0.000,0
2026-01-30 22:29:40,3514446,6039.000,-1773.000,5968.000,215.000,387.000,392.000,NA,0.000,0
2026-01-30 22:29:40,3514484,5531.000,-1739.000,6454.000,10.000,92.000,455.000,NA,0.000,0
2026-01-30 22:29:40,3514524,5740.000,-906.000,5252.000,-382.000,-36.000,44.000,NA,0.000,0
2026-01-30 22:29:40,3514564,5190.000,-649.000,5995.000,-517.000,-147.000,-217.000,NA,0.000,0
2026-01-30 22:29:40,3514604,5314.000,-1965.000,3800.000,-515.000,-29.000,274.000,NA,0.000,0
2026-01-30 22:29:40,3514647,6451.000,-2760.000,5461.000,220.000,155.000,-24.000,NA,0.000,0
2026-01-30 22:29:40,3514684,6834.000,-1571.000,6396.000,332.000,370.000,-382.000,NA,0.000,0
2026-01-30 22:29:40,3514724,5241.000,-2196.000,5578.000,393.000,383.000,-646.000,NA,0.000,0
2026-01-30 22:29:40,3514764,4789.000,-1849.000,6227.000,108.000,-204.000,-34.000,NA,0.000,0
2026-01-30 22:29:40,3514804,6693.000,-2704.000,5411.000,-276.000,-177.000,67.000,NA,0.000,0
2026-01-30 22:29:40,3514844,5841.000,-1685.000,5340.000,441.000,-309.000,-332.000,NA,0.000,0
2026-01-30 22:29:40,3514884,7747.000,-1301.000,5506.000,-154.000,-75.000,-309.000,NA,0.000,0
2026-01-30 22:29:40,3514924,4036.000,-1332.000,5520.000,134.000,-347.000,-315.000,NA,0.000,0
2026-01-30 22:29:40,3514964,6069.000,-2902.000,6124.000,-100.000,365.000,68.000,NA,0.000,0
2026-01-30 22:29:40,3515004,5272.000,-1883.000,6243.000,521.000,330.000,19.000,NA,0.000,0
2026-01-30 22:29:40,3515044,7031.000,-2211.000,5629.000,236.000,26.000,169.000,NA,0.000,0
2026-01-30 22:29:40,3515084,6632.000,-1151.000,5989.000,321.000,168.000,-73.000,NA,0.000,0
2026-01-30 22:29:40,3515124,4594.000,-1351.000,5239.000,209.000,-187.000,22.000,NA,0.000,0
2026-01-30 22:29:40,3515164,8204.000,-2123.000,4367.000,-309.000,-210.000,193.000,NA,0.000,0
2026-01-30 22:29:40,3515204,6101.000,-1783.000,5549.000,916.000,257.000,-295.000,NA,0.000,0
2026-01-30 22:29:40,3515244,3733.000,-1211.000,7142.000,241.000,-355.000,-565.000,NA,0.000,0
2026-01-30 22:29:41,3515284,6516.000,-2390.000,5061.000,-712.000,-957.000,300.000,NA,0.000,0
2026-01-30 22:29:41,3515324,5813.000,-1822.000,6002.000,504.000,68.000,-78.000,NA,0.000,0
2026-01-30 22:29:41,3515364,8303.000,-1640.000,5163.000,74.000,430.000,-1.000,NA,0.000,0
2026-01-30 22:29:41,3515404,5845.000,-1979.000,5814.000,598.000,965.000,-183.000,NA,0.000,0
2026-01-30 22:29:41,3515444,6401.000,-1232.000,7167.000,228.000,212.000,90.000,NA,0.000,0
2026-01-30 22:29:41,3515484,6591.000,-1535.000,5292.000,157.000,-632.000,498.000,NA,0.000,0
2026-01-30 22:29:41,3515524,5005.000,-1318.000,6554.000,266.000,-718.000,189.000,NA,0.000,0
2026-01-30 22:29:41,3515564,5879.000,-1955.000,5886.000,-507.000,-418.000,36.000,NA,0.000,0
2026-01-30 22:29:41,3515604,4264.000,-2088.000,5443.000,-338.000,98.000,36.000,NA,0.000,0
2026-01-30 22:29:41,3515644,6169.000,-2291.000,6136.000,-130.000,728.000,392.000,NA,0.000,0
2026-01-30 22:29:41,3515684,6638.000,-284.000,5620.000,416.000,339.000,151.000,NA,0.000,0
2026-01-30 22:29:41,3515724,6599.000,-757.000,6368.000,-320.000,-733.000,167.000,NA,0.000,0
2026-01-30 22:29:41,3515764,4965.000,-1620.000,4685.000,-790.000,-1260.000,319.000,NA,0.000,0
2026-01-30 22:29:41,3515804,5294.000,-2070.000,5728.000,-258.000,-271.000,102.000,NA,0.000,0
2026-01-30 22:29:41,3515844,5685.000,-2383.000,6122.000,22.000,785.000,-214.000,NA,0.000,0
2026-01-30 22:29:41,3515884,4602.000,-1013.000,6001.000,260.000,774.000,-60.000,NA,0.000,0
2026-01-30 22:29:41,3515924,6232.000,-2468.000,6422.000,-329.000,597.000,367.000,NA,0.000,0
2026-01-30 22:29:41,3515964,4936.000,-867.000,5838.000,-99.000,-251.000,391.000,NA,0.000,0
2026-01-30 22:29:41,3516004,6282.000,-1516.000,5752.000,-523.000,-102.000,217.000,NA,0.000,0
2026-01-30 22:29:41,3516044,6601.000,-1382.000,5670.000,-154.000,45.000,0.000,NA,0.000,0
2026-01-30 22:29:41,3516084,5433.000,-1427.000,5297.000,-293.000,307.000,-321.000,NA,0.000,0
2026-01-30 22:29:41,3516124,6742.000,-1932.000,5550.000,-351.000,272.000,-330.000,NA,0.000,0
2026-01-30 22:29:41,3516164,6398.000,-1754.000,5679.000,24.000,10.000,-337.000,NA,0.000,0
2026-01-30 22:29:41,3516204,4671.000,-1538.000,6479.000,92.000,-415.000,-353.000,NA,0.000,0
2026-01-30 22:29:41,3516244,5877.000,-1195.000,3943.000,-448.000,-388.000,44.000,NA,0.000,0
2026-01-30 22:29:42,3516284,5611.000,-1863.000,5556.000,86.000,229.000,-67.000,NA,0.000,0
2026-01-30 22:29:42,3516324,6508.000,-1934.000,5475.000,9.000,438.000,-105.000,NA,0.000,0
2026-01-30 22:29:42,3516364,5650.000,-2287.000,7954.000,195.000,1162.000,-624.000,NA,0.000,0
2026-01-30 22:29:42,3516404,6538.000,-460.000,6013.000,-601.000,-948.000,-248.000,NA,0.000,0
2026-01-30 22:29:42,3516449,4647.000,-1264.000,4043.000,247.000,-151.000,239.000,NA,0.000,0
2026-01-30 22:29:42,3516484,4268.000,-2124.000,5886.000,313.000,-347.000,-495.000,NA,0.000,0
2026-01-30 22:29:42,3516524,6434.000,-4230.000,8552.000,-124.000,1902.000,-878.000,NA,0.000,0
2026-01-30 22:29:42,3516564,-2254.000,1381.000,8094.000,2174.000,-1413.000,-907.000,NA,0.000,0
2026-01-30 22:29:42,3516604,7734.000,-11578.000,12427.000,-5753.000,2620.000,1158.000,NA,0.000,0
2026-01-30 22:29:42,3516647,-462.000,1591.000,-1035.000,810.000,-884.000,137.000,NA,0.000,0
2026-01-30 22:29:42,3516684,15159.000,-6774.000,10467.000,-8603.000,-453.000,206.000,NA,0.000,0
2026-01-30 22:29:42,3516724,3715.000,571.000,6048.000,2451.000,64.000,-1148.000,NA,0.000,0
2026-01-30 22:29:42,3516764,6884.000,-1433.000,5135.000,-652.000,355.000,-214.000,NA,0.000,0
2026-01-30 22:29:42,3516804,3416.000,-725.000,10841.000,761.000,331.000,-639.000,NA,0.000,0
2026-01-30 22:29:42,3516844,10280.000,480.000,1018.000,-2364.000,-540.000,-199.000,NA,0.000,0
2026-01-30 22:29:42,3516884,6566.000,-1343.000,6499.000,458.000,-102.000,-768.000,NA,0.000,0
2026-01-30 22:29:42,3516924,3652.000,2717.000,4642.000,261.000,11.000,-597.000,NA,0.000,0
2026-01-30 22:29:42,3516964,7975.000,-3974.000,5500.000,-872.000,655.000,866.000,NA,0.000,0
2026-01-30 22:29:42,3517004,4988.000,-1859.000,6376.000,961.000,981.000,588.000,NA,0.000,0
2026-01-30 22:29:42,3517044,7336.000,-1027.000,5370.000,501.000,711.000,-147.000,NA,0.000,0
2026-01-30 22:29:42,3517084,5527.000,-976.000,6699.000,253.000,-150.000,-157.000,NA,0.000,0
2026-01-30 22:29:42,3517124,6529.000,-2788.000,5899.000,-1013.000,-807.000,-94.000,NA,0.000,0
2026-01-30 22:29:42,3517164,5674.000,-2132.000,4822.000,-374.000,-618.000,-643.000,NA,0.000,0
2026-01-30 22:29:42,3517204,6222.000,-1591.000,5749.000,-4.000,-2.000,-262.000,NA,0.000,0
2026-01-30 22:29:42,3517244,4373.000,-1813.000,6626.000,181.000,62.000,-147.000,NA,0.000,0
2026-01-30 22:29:43,3517284,5740.000,-1837.000,5238.000,-170.000,-93.000,415.000,NA,0.000,0
2026-01-30 22:29:43,3517324,6017.000,-1962.000,5199.000,237.000,388.000,550.000,NA,0.000,0
2026-01-30 22:29:43,3517364,5276.000,-1123.000,6003.000,584.000,-175.000,238.000,NA,0.000,0
2026-01-30 22:29:43,3517404,7226.000,-2077.000,5447.000,-38.000,-330.000,113.000,NA,0.000,0
2026-01-30 22:29:43,3517444,4651.000,-768.000,5362.000,-72.000,-788.000,-264.000,NA,0.000,0
2026-01-30 22:29:43,3517484,5636.000,-1999.000,5249.000,-671.000,-417.000,-494.000,NA,0.000,0
2026-01-30 22:29:43,3517524,4268.000,-2789.000,5654.000,159.000,35.000,-250.000,NA,0.000,0
2026-01-30 22:29:43,3517564,6591.000,-2228.000,6374.000,136.000,360.000,-207.000,NA,0.000,0
2026-01-30 22:29:43,3517604,4855.000,-828.000,6333.000,249.000,-96.000,-104.000,NA,0.000,0
2026-01-30 22:29:43,3517644,7042.000,-1633.000,5442.000,-293.000,-195.000,447.000,NA,0.000,0
2026-01-30 22:29:43,3517684,6315.000,-2388.000,6433.000,193.000,514.000,-51.000,NA,0.000,0
2026-01-30 22:29:43,3517724,4035.000,-224.000,5438.000,329.000,-85.000,-270.000,NA,0.000,0
2026-01-30 22:29:43,3517764,5609.000,-1424.000,5133.000,-580.000,-212.000,248.000,NA,0.000,0
2026-01-30 22:29:43,3517804,6383.000,-2488.000,5653.000,-81.000,485.000,380.000,NA,0.000,0
2026-01-30 22:29:43,3517844,4142.000,-1615.000,6317.000,444.000,538.000,-393.000,NA,0.000,0
2026-01-30 22:29:43,3517884,7636.000,-1917.000,4999.000,-688.000,364.000,86.000,NA,0.000,0
2026-01-30 22:29:43,3517924,5829.000,-1268.000,5490.000,471.000,246.000,78.000,NA,0.000,0
2026-01-30 22:29:43,3517964,6708.000,-1213.000,6791.000,-46.000,-552.000,-231.000,NA,0.000,0
2026-01-30 22:29:43,3518004,5322.000,-1843.000,6585.000,-245.000,-725.000,-264.000,NA,0.000,0
2026-01-30 22:29:43,3518044,5103.000,-737.000,3773.000,-390.000,-382.000,-153.000,NA,0.000,0
2026-01-30 22:29:43,3518084,6307.000,-2213.000,6474.000,46.000,472.000,-336.000,NA,0.000,0
2026-01-30 22:29:43,3518124,6112.000,-1409.000,6187.000,239.000,363.000,-311.000,NA,0.000,0
2026-01-30 22:29:43,3518164,5526.000,-2625.000,5530.000,-21.000,-100.000,236.000,NA,0.000,0
2026-01-30 22:29:43,3518204,6363.000,-2389.000,5150.000,-110.000,-300.000,378.000,NA,0.000,0
2026-01-30 22:29:43,3518244,6036.000,-1307.000,6544.000,507.000,-181.000,103.000,NA,0.000,0
2026-01-30 22:29:44,3518284,4497.000,-1573.000,5954.000,254.000,-22.000,-100.000,NA,0.000,0
2026-01-30 22:29:44,3518324,5868.000,-2025.000,7371.000,-16.000,729.000,-32.000,NA,0.000,0
2026-01-30 22:29:44,3518364,6292.000,-614.000,5613.000,-378.000,-355.000,-129.000,NA,0.000,0
2026-01-30 22:29:44,3518407,5132.000,-1296.000,5368.000,-184.000,-441.000,76.000,NA,0.000,0
2026-01-30 22:29:44,3518455,5832.000,-1206.000,4758.000,45.000,230.000,50.000,NA,0.000,0
2026-01-30 22:29:44,3518484,4506.000,-2562.000,6189.000,126.000,220.000,-47.000,NA,0.000,0
2026-01-30 22:29:44,3518524,7697.000,-3636.000,5920.000,-192.000,809.000,291.000,NA,0.000,0
2026-01-30 22:29:44,3518564,5373.000,-1357.000,5764.000,942.000,406.000,72.000,NA,0.000,0
2026-01-30 22:29:44,3518604,3832.000,-1439.000,5651.000,119.000,-164.000,197.000,NA,0.000,0
2026-01-30 22:29:44,3518647,5192.000,-914.000,6154.000,467.000,-40.000,116.000,NA,0.000,0
2026-01-30 22:29:44,3518684,3225.000,-1521.000,7118.000,337.000,-367.000,-44.000,NA,0.000,0
2026-01-30 22:29:44,3518724,5709.000,-1238.000,5744.000,150.000,138.000,-66.000,NA,0.000,0
2026-01-30 22:29:44,3518764,5955.000,-1649.000,6315.000,-441.000,201.000,-221.000,NA,0.000,0
2026-01-30 22:29:44,3518804,4958.000,-2410.000,5721.000,-253.000,184.000,-350.000,NA,0.000,0
2026-01-30 22:29:44,3518844,6640.000,-2826.000,5778.000,-515.000,-148.000,300.000,NA,0.000,0
2026-01-30 22:29:44,3518884,5637.000,-1442.000,5731.000,-25.000,-80.000,-37.000,NA,0.000,0
2026-01-30 22:29:44,3518924,4474.000,-1257.000,5426.000,-138.000,-69.000,72.000,NA,0.000,0
2026-01-30 22:29:44,3518964,5505.000,-1863.000,5449.000,-311.000,364.000,430.000,NA,0.000,0
2026-01-30 22:29:44,3519004,5443.000,-2167.000,6061.000,-175.000,347.000,9.000,NA,0.000,0
2026-01-30 22:29:44,3519044,5580.000,-1359.000,5561.000,-6.000,96.000,-178.000,NA,0.000,0
2026-01-30 22:29:44,3519084,5591.000,-3105.000,6312.000,-260.000,-206.000,-35.000,NA,0.000,0
2026-01-30 22:29:44,3519124,4395.000,-1683.000,5484.000,213.000,-234.000,-89.000,NA,0.000,0
2026-01-30 22:29:44,3519164,7229.000,-2628.000,5068.000,-101.000,231.000,-119.000,NA,0.000,0
2026-01-30 22:29:44,3519204,4782.000,-713.000,5987.000,768.000,-165.000,-388.000,NA,0.000,0
2026-01-30 22:29:44,3519244,6344.000,-1461.000,5114.000,104.000,-193.000,74.000,NA,0.000,0
2026-01-30 22:29:45,3519284,6104.000,-935.000,6004.000,114.000,-198.000,13.000,NA,0.000,0
2026-01-30 22:29:45,3519324,5031.000,-759.000,4705.000,-23.000,-221.000,-173.000,NA,0.000,0
2026-01-30 22:29:45,3519364,6570.000,-1967.000,5934.000,-148.000,45.000,19.000,NA,0.000,0
2026-01-30 22:29:45,3519404,6164.000,-1671.000,5797.000,60.000,115.000,-223.000,NA,0.000,0
2026-01-30 22:29:45,3519444,4670.000,-2195.000,6461.000,133.000,36.000,-150.000,NA,0.000,0
2026-01-30 22:29:45,3519484,3967.000,-3597.000,7885.000,544.000,666.000,-13.000,NA,0.000,0
2026-01-30 22:29:45,3519524,6784.000,-1154.000,5534.000,-143.000,99.000,-386.000,NA,0.000,0
2026-01-30 22:29:45,3519564,7194.000,-1009.000,5978.000,44.000,-348.000,-212.000,NA,0.000,0
2026-01-30 22:29:45,3519604,4388.000,-1893.000,6194.000,567.000,-94.000,-12.000,NA,0.000,0
2026-01-30 22:29:45,3519644,7787.000,-1313.000,4950.000,107.000,-189.000,106.000,NA,0.000,0
2026-01-30 22:29:45,3519684,3308.000,-2251.000,7444.000,1079.000,-333.000,-91.000,NA,0.000,0
2026-01-30 22:29:45,3519724,6767.000,-3421.000,6779.000,-321.000,64.000,2.000,NA,0.000,0
2026-01-30 22:29:45,3519764,3922.000,-1363.000,4449.000,1088.000,-277.000,2.000,NA,0.000,0
2026-01-30 22:29:45,3519804,7024.000,-2383.000,6418.000,82.000,242.000,-174.000,NA,0.000,0
2026-01-30 22:29:45,3519844,4005.000,-1416.000,5444.000,96.000,-758.000,-265.000,NA,0.000,0
2026-01-30 22:29:45,3519884,6358.000,-1777.000,5525.000,321.000,0.000,198.000,NA,0.000,0
2026-01-30 22:29:45,3519924,4036.000,-1558.000,7087.000,651.000,635.000,-185.000,NA,0.000,0
2026-01-30 22:29:45,3519964,5548.000,-1524.000,6188.000,-366.000,-142.000,125.000,NA,0.000,0
2026-01-30 22:29:45,3520004,6825.000,-1434.000,4595.000,-122.000,153.000,586.000,NA,0.000,0
2026-01-30 22:29:45,3520044,6116.000,-1966.000,5744.000,465.000,492.000,89.000,NA,0.000,0
2026-01-30 22:29:45,3520084,5253.000,257.000,4623.000,269.000,-371.000,-46.000,NA,0.000,0
2026-01-30 22:29:45,3520124,5945.000,-2133.000,6580.000,45.000,188.000,418.000,NA,0.000,0
2026-01-30 22:29:45,3520164,5314.000,-1864.000,5195.000,-90.000,-136.000,-34.000,NA,0.000,0
2026-01-30 22:29:45,3520204,6278.000,-2162.000,6809.000,340.000,38.000,33.000,NA,0.000,0
2026-01-30 22:29:45,3520244,6088.000,-1403.000,4612.000,-556.000,-489.000,113.000,NA,0.000,0
2026-01-30 22:29:46,3520284,6076.000,-2781.000,6094.000,-128.000,-200.000,17.000,NA,0.000,0
2026-01-30 22:29:46,3520324,6457.000,-1234.000,5584.000,155.000,-260.000,-66.000,NA,0.000,0
