datetime_local,uptime_ms,acc_x,acc_y,acc_z,gyro_x,gyro_y,gyro_z,speed_mps,turn_rate_deg_s,gps_valid
2026-01-30 22:20:17,2952124,-709.000,-4384.000,7792.000,622.000,269.000,117.000,NA,0.000,0
2026-01-30 22:20:17,2952164,-899.000,-3595.000,7478.000,874.000,306.000,174.000,NA,0.000,0
2026-01-30 22:20:17,2952207,-1203.000,-3939.000,7221.000,-92.000,47.000,108.000,NA,0.000,0
2026-01-30 22:20:17,2952246,-950.000,-3735.000,7434.000,-39.000,-166.000,25.000,NA,0.000,0
2026-01-30 22:20:18,2952286,-878.000,-3788.000,7425.000,-130.000,-163.000,64.000,NA,0.000,0
2026-01-30 22:20:18,2952326,-867.000,-3718.000,7501.000,156.000,-58.000,77.000,NA,0.000,0
2026-01-30 22:20:18,2952365,-892.000,-3700.000,7545.000,235.000,-35.000,79.000,NA,0.000,0
2026-01-30 22:20:18,2952405,-926.000,-3757.000,7544.000,197.000,-90.000,15.000,NA,0.000,0
2026-01-30 22:20:18,2952446,-865.000,-3778.000,7599.000,215.000,-159.000,-10.000,NA,0.000,0
2026-01-30 22:20:18,2952486,-826.000,-3793.000,7589.000,127.000,-154.000,27.000,NA,0.000,0
2026-01-30 22:20:18,2952525,-867.000,-3859.000,7583.000,178.000,-114.000,94.000,NA,0.000,0
2026-01-30 22:20:18,2952565,-895.000,-3682.000,7636.000,220.000,-118.000,117.000,NA,0.000,0
2026-01-30 22:20:18,2952604,-936.000,-3724.000,7606.000,136.000,-127.000,114.000,NA,0.000,0
2026-01-30 22:20:18,2952644,-946.000,-3668.000,7650.000,169.000,-144.000,56.000,NA,0.000,0
2026-01-30 22:20:18,2952686,-880.000,-3764.000,7640.000,45.000,-123.000,3.000,NA,0.000,0
2026-01-30 22:20:18,2952725,-881.000,-3615.000,7703.000,189.000,-45.000,-17.000,NA,0.000,0
2026-01-30 22:20:18,2952764,-920.000,-3673.000,7637.000,18.000,-11.000,-8.000,NA,0.000,0
2026-01-30 22:20:18,2952804,-867.000,-3596.000,7695.000,58.000,8.000,-6.000,NA,0.000,0
2026-01-30 22:20:18,2952844,-841.000,-3675.000,7634.000,49.000,15.000,-47.000,NA,0.000,0
2026-01-30 22:20:18,2952884,-787.000,-3605.000,7656.000,88.000,35.000,-59.000,NA,0.000,0
2026-01-30 22:20:18,2952924,-833.000,-3674.000,7599.000,4.000,33.000,-7.000,NA,0.000,0
2026-01-30 22:20:18,2952964,-779.000,-3611.000,7637.000,77.000,-5.000,21.000,NA,0.000,0
2026-01-30 22:20:18,2953004,-810.000,-3576.000,7641.000,4.000,-18.000,20.000,NA,0.000,0
2026-01-30 22:20:18,2953044,-777.000,-3694.000,7590.000,10.000,-43.000,21.000,NA,0.000,0
2026-01-30 22:20:18,2953084,-824.000,-3570.000,7634.000,28.000,-66.000,26.000,NA,0.000,0
2026-01-30 22:20:18,2953124,-762.000,-3675.000,7607.000,85.000,-91.000,6.000,NA,0.000,0
2026-01-30 22:20:18,2953164,-836.000,-3634.000,7640.000,174.000,-84.000,-6.000,NA,0.000,0
2026-01-30 22:20:18,2953207,-809.000,-3685.000,7635.000,15.000,-109.000,15.000,NA,0.000,0
2026-01-30 22:20:18,2953244,-782.000,-3736.000,7605.000,90.000,-116.000,-3.000,NA,0.000,0
2026-01-30 22:20:19,2953284,-761.000,-3564.000,7607.000,214.000,-109.000,4.000,NA,0.000,0
2026-01-30 22:20:19,2953324,-776.000,-3583.000,7549.000,92.000,-107.000,33.000,NA,0.000,0
2026-01-30 22:20:19,2953364,-713.000,-3523.000,7507.000,291.000,-134.000,-8.000,NA,0.000,0
2026-01-30 22:20:19,2953404,-676.000,-3516.000,7446.000,357.000,-135.000,27.000,NA,0.000,0
2026-01-30 22:20:19,2953444,-737.000,-3406.000,7534.000,518.000,-153.000,50.000,NA,0.000,0
2026-01-30 22:20:19,2953484,-820.000,-3468.000,7693.000,449.000,-275.000,44.000,NA,0.000,0
2026-01-30 22:20:19,2953524,-658.000,-3351.000,7717.000,472.000,-334.000,-5.000,NA,0.000,0
2026-01-30 22:20:19,2953564,-453.000,-3528.000,7639.000,564.000,-331.000,-7.000,NA,0.000,0
2026-01-30 22:20:19,2953604,-179.000,-3572.000,7362.000,855.000,-362.000,143.000,NA,0.000,0
2026-01-30 22:20:19,2953644,383.000,-3713.000,6602.000,1666.000,-437.000,737.000,NA,0.000,0
2026-01-30 22:20:19,2953684,862.000,-3636.000,5731.000,3061.000,-774.000,1377.000,NA,0.000,0
2026-01-30 22:20:19,2953724,960.000,-3429.000,4630.000,5744.000,-1411.000,2314.000,NA,0.000,0
2026-01-30 22:20:19,2953764,1246.000,-2343.000,4544.000,8526.000,-2204.000,4368.000,NA,0.000,0
2026-01-30 22:20:19,2953804,1524.000,-247.000,5325.000,8346.000,-2836.000,6701.000,NA,0.000,0
2026-01-30 22:20:19,2953844,-213.000,657.000,7144.000,5472.000,-3940.000,8756.000,NA,0.000,0
2026-01-30 22:20:19,2953884,41.000,468.000,8496.000,6507.000,-5001.000,8737.000,NA,0.000,0
2026-01-30 22:20:19,2953927,684.000,2755.000,9340.000,6677.000,-4075.000,8402.000,NA,0.000,0
2026-01-30 22:20:19,2953966,1504.000,3251.000,8167.000,4710.000,-4045.000,7086.000,NA,0.000,0
2026-01-30 22:20:19,2954004,1883.000,3194.000,8503.000,5530.000,-4122.000,6186.000,NA,0.000,0
2026-01-30 22:20:19,2954044,2660.000,4411.000,8528.000,7268.000,-3712.000,4251.000,NA,0.000,0
2026-01-30 22:20:19,2954084,3140.000,4921.000,7962.000,5961.000,-3242.000,3112.000,NA,0.000,0
2026-01-30 22:20:19,2954124,3463.000,3815.000,6873.000,4116.000,-3051.000,1827.000,NA,0.000,0
2026-01-30 22:20:19,2954164,3883.000,4075.000,7314.000,2713.000,-2751.000,1614.000,NA,0.000,0
2026-01-30 22:20:19,2954204,6182.000,6227.000,7190.000,760.000,-2577.000,1967.000,NA,0.000,0
2026-01-30 22:20:19,2954244,4716.000,19.000,8103.000,-4864.000,-1167.000,1254.000,NA,0.000,0
2026-01-30 22:20:20,2954284,5179.000,1506.000,8507.000,2560.000,-612.000,842.000,NA,0.000,0
2026-01-30 22:20:20,2954324,3335.000,2876.000,7628.000,1770.000,14.000,1294.000,NA,0.000,0
2026-01-30 22:20:20,2954364,3276.000,2293.000,7496.000,581.000,-904.000,724.000,NA,0.000,0
2026-01-30 22:20:20,2954404,3638.000,2748.000,4888.000,473.000,-1187.000,944.000,NA,0.000,0
2026-01-30 22:20:20,2954444,5518.000,-723.000,9620.000,-3840.000,-1341.000,436.000,NA,0.000,0
2026-01-30 22:20:20,2954484,5922.000,5262.000,10962.000,57.000,386.000,-560.000,NA,0.000,0
2026-01-30 22:20:20,2954524,5138.000,3080.000,11152.000,-481.000,2423.000,-635.000,NA,0.000,0
2026-01-30 22:20:20,2954564,2151.000,4001.000,6368.000,2206.000,4532.000,-1054.000,NA,0.000,0
2026-01-30 22:20:20,2954604,3705.000,411.000,5069.000,-3476.000,2234.000,-419.000,NA,0.000,0
2026-01-30 22:20:20,2954644,4141.000,1254.000,7913.000,643.000,745.000,-500.000,NA,0.000,0
2026-01-30 22:20:20,2954684,2498.000,3170.000,7616.000,494.000,633.000,-648.000,NA,0.000,0
2026-01-30 22:20:20,2954724,2104.000,4687.000,8221.000,-515.000,-48.000,-1683.000,NA,0.000,0
2026-01-30 22:20:20,2954764,3725.000,2151.000,6999.000,-689.000,-801.000,-821.000,NA,0.000,0
2026-01-30 22:20:20,2954804,3087.000,3526.000,7721.000,-2229.000,-1433.000,-488.000,NA,0.000,0
2026-01-30 22:20:20,2954844,3237.000,2012.000,7107.000,-982.000,-1528.000,-554.000,NA,0.000,0
2026-01-30 22:20:20,2954884,3442.000,2548.000,7374.000,-496.000,-950.000,125.000,NA,0.000,0
2026-01-30 22:20:20,2954924,3687.000,3092.000,7980.000,81.000,-777.000,691.000,NA,0.000,0
2026-01-30 22:20:20,2954964,3025.000,1643.000,6616.000,1906.000,-203.000,1218.000,NA,0.000,0
2026-01-30 22:20:20,2955004,2638.000,2691.000,7898.000,1122.000,-1481.000,1981.000,NA,0.000,0
2026-01-30 22:20:20,2955044,3021.000,900.000,7789.000,-1320.000,-1776.000,2177.000,NA,0.000,0
2026-01-30 22:20:20,2955084,3133.000,2182.000,6582.000,51.000,-1945.000,3026.000,NA,0.000,0
2026-01-30 22:20:20,2955124,4228.000,1363.000,10844.000,-2738.000,-2294.000,3326.000,NA,0.000,0
2026-01-30 22:20:20,2955164,2815.000,1134.000,6208.000,199.000,-1869.000,3126.000,NA,0.000,0
2026-01-30 22:20:20,2955204,5490.000,806.000,9193.000,-1101.000,-2488.000,4093.000,NA,0.000,0
2026-01-30 22:20:20,2955244,5121.000,616.000,4977.000,89.000,-2124.000,3655.000,NA,0.000,0
2026-01-30 22:20:21,2955284,6810.000,-59.000,3732.000,172.000,-1832.000,4720.000,NA,0.000,0
2026-01-30 22:20:21,2955324,6698.000,-1277.000,3593.000,316.000,-1950.000,4231.000,NA,0.000,0
2026-01-30 22:20:21,2955364,6594.000,992.000,6053.000,555.000,-1914.000,3170.000,NA,0.000,0
2026-01-30 22:20:21,2955404,6046.000,284.000,6019.000,-576.000,-1343.000,2120.000,NA,0.000,0
2026-01-30 22:20:21,2955444,6372.000,-251.000,5887.000,-462.000,-496.000,2138.000,NA,0.000,0
2026-01-30 22:20:21,2955484,4824.000,-174.000,5435.000,-168.000,377.000,1496.000,NA,0.000,0
2026-01-30 22:20:21,2955524,6803.000,-1011.000,6511.000,-1087.000,-113.000,1912.000,NA,0.000,0
2026-01-30 22:20:21,2955564,5709.000,-676.000,4968.000,-1424.000,643.000,644.000,NA,0.000,0
2026-01-30 22:20:21,2955604,5908.000,-1669.000,5560.000,-2013.000,579.000,520.000,NA,0.000,0
2026-01-30 22:20:21,2955644,6296.000,-1969.000,5639.000,-1693.000,69.000,1101.000,NA,0.000,0
2026-01-30 22:20:21,2955684,6152.000,-347.000,4177.000,-1108.000,-195.000,603.000,NA,0.000,0
2026-01-30 22:20:21,2955724,6645.000,-1921.000,3634.000,-1086.000,-725.000,519.000,NA,0.000,0
2026-01-30 22:20:21,2955764,5760.000,-1418.000,5315.000,999.000,-439.000,612.000,NA,0.000,0
2026-01-30 22:20:21,2955804,7003.000,-1035.000,3817.000,766.000,-583.000,462.000,NA,0.000,0
2026-01-30 22:20:21,2955844,6331.000,-1676.000,3868.000,1004.000,322.000,-148.000,NA,0.000,0
2026-01-30 22:20:21,2955887,6567.000,-730.000,7578.000,1812.000,346.000,81.000,NA,0.000,0
2026-01-30 22:20:21,2955926,5942.000,-120.000,5440.000,1771.000,195.000,341.000,NA,0.000,0
2026-01-30 22:20:21,2955964,7222.000,-2167.000,5648.000,710.000,-816.000,32.000,NA,0.000,0
2026-01-30 22:20:21,2956004,4497.000,-2953.000,4427.000,313.000,65.000,-212.000,NA,0.000,0
2026-01-30 22:20:21,2956044,5866.000,-1246.000,7327.000,735.000,-50.000,-114.000,NA,0.000,0
2026-01-30 22:20:21,2956084,5873.000,-1086.000,5559.000,1198.000,564.000,468.000,NA,0.000,0
2026-01-30 22:20:21,2956127,6448.000,-567.000,5201.000,1747.000,803.000,395.000,NA,0.000,0
2026-01-30 22:20:21,2956164,5914.000,-558.000,5544.000,1303.000,953.000,207.000,NA,0.000,0
2026-01-30 22:20:21,2956204,5599.000,-1339.000,5120.000,1862.000,1302.000,98.000,NA,0.000,0
2026-01-30 22:20:21,2956244,5932.000,-1407.000,5891.000,2154.000,651.000,513.000,NA,0.000,0
2026-01-30 22:20:22,2956284,6062.000,-1378.000,6570.000,1670.000,337.000,355.000,NA,0.000,0
2026-01-30 22:20:22,2956324,6035.000,123.000,6638.000,1867.000,153.000,87.000,NA,0.000,0
2026-01-30 22:20:22,2956364,5387.000,-441.000,6451.000,2472.000,195.000,61.000,NA,0.000,0
2026-01-30 22:20:22,2956404,5485.000,-275.000,6091.000,2274.000,322.000,316.000,NA,0.000,0
2026-01-30 22:20:22,2956444,5495.000,-571.000,6753.000,2123.000,562.000,256.000,NA,0.000,0
2026-01-30 22:20:22,2956484,4841.000,-465.000,6969.000,2017.000,574.000,255.000,NA,0.000,0
2026-01-30 22:20:22,2956524,5168.000,734.000,6551.000,1882.000,847.000,711.000,NA,0.000,0
2026-01-30 22:20:22,2956564,4916.000,-399.000,6525.000,1199.000,739.000,499.000,NA,0.000,0
2026-01-30 22:20:22,2956604,5146.000,758.000,6990.000,1980.000,961.000,378.000,NA,0.000,0
2026-01-30 22:20:22,2956644,4671.000,595.000,7328.000,2351.000,929.000,690.000,NA,0.000,0
2026-01-30 22:20:22,2956684,5263.000,68.000,6550.000,1492.000,924.000,392.000,NA,0.000,0
2026-01-30 22:20:22,2956724,5120.000,1128.000,6718.000,837.000,1038.000,59.000,NA,0.000,0
2026-01-30 22:20:22,2956764,4317.000,603.000,5804.000,369.000,954.000,268.000,NA,0.000,0
2026-01-30 22:20:22,2956804,5192.000,135.000,7747.000,411.000,845.000,147.000,NA,0.000,0
2026-01-30 22:20:22,2956844,4272.000,534.000,6386.000,593.000,832.000,422.000,NA,0.000,0
2026-01-30 22:20:22,2956884,4709.000,86.000,6969.000,378.000,422.000,668.000,NA,0.000,0
2026-01-30 22:20:22,2956924,3904.000,1438.000,7038.000,335.000,131.000,668.000,NA,0.000,0
2026-01-30 22:20:22,2956964,5158.000,299.000,6423.000,-274.000,-404.000,544.000,NA,0.000,0
2026-01-30 22:20:22,2957004,4236.000,1077.000,6773.000,-424.000,-53.000,488.000,NA,0.000,0
2026-01-30 22:20:22,2957044,4965.000,103.000,5715.000,-49.000,-175.000,574.000,NA,0.000,0
2026-01-30 22:20:22,2957084,4178.000,406.000,6650.000,-142.000,180.000,373.000,NA,0.000,0
2026-01-30 22:20:22,2957124,5413.000,-45.000,5812.000,23.000,-33.000,547.000,NA,0.000,0
2026-01-30 22:20:22,2957164,4666.000,109.000,7028.000,389.000,34.000,390.000,NA,0.000,0
2026-01-30 22:20:22,2957204,5169.000,346.000,6405.000,128.000,-184.000,486.000,NA,0.000,0
2026-01-30 22:20:22,2957244,4747.000,18.000,7006.000,-257.000,175.000,310.000,NA,0.000,0
2026-01-30 22:20:23,2957284,4460.000,151.000,7416.000,-630.000,-213.000,531.000,NA,0.000,0
2026-01-30 22:20:23,2957324,4569.000,674.000,7039.000,-957.000,-108.000,429.000,NA,0.000,0
2026-01-30 22:20:23,2957364,4231.000,626.000,6897.000,-1782.000,-315.000,569.000,NA,0.000,0
2026-01-30 22:20:23,2957404,4346.000,-367.000,7650.000,-1465.000,-496.000,878.000,NA,0.000,0
2026-01-30 22:20:23,2957444,4800.000,489.000,7165.000,-1798.000,-820.000,950.000,NA,0.000,0
2026-01-30 22:20:23,2957484,4665.000,-9.000,7031.000,-1692.000,-1147.000,1256.000,NA,0.000,0
2026-01-30 22:20:23,2957524,5606.000,-925.000,5284.000,-1477.000,-1100.000,1024.000,NA,0.000,0
2026-01-30 22:20:23,2957564,5689.000,474.000,7081.000,-1035.000,-1102.000,954.000,NA,0.000,0
2026-01-30 22:20:23,2957604,6075.000,-1101.000,5137.000,-2474.000,-1225.000,1123.000,NA,0.000,0
2026-01-30 22:20:23,2957644,5785.000,-947.000,5345.000,-1412.000,-1253.000,1022.000,NA,0.000,0
2026-01-30 22:20:23,2957684,5992.000,-879.000,5644.000,-389.000,-1448.000,1057.000,NA,0.000,0
2026-01-30 22:20:23,2957724,5588.000,-2419.000,5743.000,-472.000,-1334.000,872.000,NA,0.000,0
2026-01-30 22:20:23,2957764,5937.000,-1452.000,5098.000,-355.000,-1240.000,1063.000,NA,0.000,0
2026-01-30 22:20:23,2957804,6466.000,-958.000,6790.000,-777.000,-899.000,973.000,NA,0.000,0
2026-01-30 22:20:23,2957844,5426.000,-1613.000,6486.000,-554.000,-646.000,333.000,NA,0.000,0
2026-01-30 22:20:23,2957884,5807.000,-1948.000,5888.000,-1084.000,-693.000,563.000,NA,0.000,0
2026-01-30 22:20:23,2957924,5362.000,-1472.000,5728.000,-947.000,-521.000,775.000,NA,0.000,0
2026-01-30 22:20:23,2957964,5991.000,-1597.000,5973.000,-1073.000,19.000,721.000,NA,0.000,0
2026-01-30 22:20:23,2958004,5725.000,-1369.000,5435.000,-959.000,725.000,121.000,NA,0.000,0
2026-01-30 22:20:23,2958044,5902.000,-1805.000,6391.000,-1247.000,459.000,246.000,NA,0.000,0
2026-01-30 22:20:23,2958084,5866.000,-1345.000,4536.000,-1081.000,489.000,126.000,NA,0.000,0
2026-01-30 22:20:23,2958127,5667.000,-1536.000,5601.000,-766.000,-256.000,495.000,NA,0.000,0
2026-01-30 22:20:23,2958164,5831.000,-2003.000,4778.000,-1050.000,-330.000,216.000,NA,0.000,0
2026-01-30 22:20:23,2958204,5296.000,-2360.000,5626.000,91.000,-233.000,-76.000,NA,0.000,0
2026-01-30 22:20:23,2958244,6287.000,-3136.000,5396.000,310.000,-35.000,157.000,NA,0.000,0
2026-01-30 22:20:24,2958284,6078.000,-2230.000,4992.000,1114.000,-190.000,-66.000,NA,0.000,0
2026-01-30 22:20:24,2958324,6066.000,-2078.000,5397.000,944.000,-182.000,-490.000,NA,0.000,0
2026-01-30 22:20:24,2958364,5501.000,-1862.000,5813.000,1239.000,-125.000,-576.000,NA,0.000,0
2026-01-30 22:20:24,2958404,5701.000,-2351.000,5991.000,1090.000,-380.000,-275.000,NA,0.000,0
2026-01-30 22:20:24,2958444,5508.000,-1813.000,5410.000,774.000,-294.000,-314.000,NA,0.000,0
2026-01-30 22:20:24,2958484,5865.000,-1966.000,6449.000,553.000,161.000,-199.000,NA,0.000,0
2026-01-30 22:20:24,2958524,5929.000,-2056.000,6232.000,276.000,314.000,-409.000,NA,0.000,0
2026-01-30 22:20:24,2958564,5630.000,-943.000,5289.000,180.000,-46.000,-406.000,NA,0.000,0
2026-01-30 22:20:24,2958604,5569.000,-1978.000,5722.000,46.000,-51.000,-245.000,NA,0.000,0
2026-01-30 22:20:24,2958644,6304.000,-1728.000,5393.000,268.000,-139.000,-259.000,NA,0.000,0
2026-01-30 22:20:24,2958684,6023.000,-1674.000,5051.000,506.000,-219.000,-392.000,NA,0.000,0
2026-01-30 22:20:24,2958724,5914.000,-1721.000,4966.000,579.000,-259.000,-485.000,NA,0.000,0
2026-01-30 22:20:24,2958764,6288.000,-1945.000,5048.000,829.000,-198.000,-351.000,NA,0.000,0
2026-01-30 22:20:24,2958804,5796.000,-1751.000,5323.000,1219.000,-344.000,-215.000,NA,0.000,0
2026-01-30 22:20:24,2958844,6369.000,-2045.000,5737.000,741.000,-200.000,-69.000,NA,0.000,0
2026-01-30 22:20:24,2958884,6955.000,-1454.000,4238.000,1056.000,-171.000,-390.000,NA,0.000,0
2026-01-30 22:20:24,2958924,6293.000,-1900.000,6387.000,839.000,-205.000,-300.000,NA,0.000,0
2026-01-30 22:20:24,2958964,6220.000,-1812.000,6337.000,895.000,-317.000,-363.000,NA,0.000,0
2026-01-30 22:20:24,2959004,6037.000,-1465.000,6178.000,774.000,-69.000,-255.000,NA,0.000,0
2026-01-30 22:20:24,2959044,5692.000,-1175.000,6768.000,653.000,81.000,-122.000,NA,0.000,0
2026-01-30 22:20:24,2959084,5338.000,-792.000,5320.000,75.000,187.000,62.000,NA,0.000,0
2026-01-30 22:20:24,2959124,6344.000,-1204.000,5713.000,-63.000,644.000,337.000,NA,0.000,0
2026-01-30 22:20:24,2959164,5837.000,-1058.000,5616.000,-303.000,839.000,382.000,NA,0.000,0
2026-01-30 22:20:24,2959204,6192.000,-709.000,5848.000,-424.000,890.000,303.000,NA,0.000,0
2026-01-30 22:20:24,2959244,5165.000,-652.000,5681.000,-308.000,519.000,239.000,NA,0.000,0
2026-01-30 22:20:25,2959284,6925.000,-1906.000,5277.000,-860.000,613.000,461.000,NA,0.000,0
2026-01-30 22:20:25,2959324,5302.000,-1437.000,5966.000,-51.000,690.000,220.000,NA,0.000,0
2026-01-30 22:20:25,2959364,6318.000,-918.000,6102.000,-488.000,480.000,203.000,NA,0.000,0
2026-01-30 22:20:25,2959404,6106.000,-1331.000,5373.000,-433.000,563.000,302.000,NA,0.000,0
2026-01-30 22:20:25,2959444,5716.000,-749.000,5984.000,-33.000,310.000,387.000,NA,0.000,0
2026-01-30 22:20:25,2959484,5584.000,-1737.000,5979.000,-149.000,20.000,572.000,NA,0.000,0
2026-01-30 22:20:25,2959524,5720.000,-1920.000,5349.000,208.000,-4.000,220.000,NA,0.000,0
2026-01-30 22:20:25,2959564,5405.000,-2175.000,5934.000,-76.000,102.000,18.000,NA,0.000,0
2026-01-30 22:20:25,2959604,6209.000,-1674.000,5355.000,-270.000,518.000,-116.000,NA,0.000,0
2026-01-30 22:20:25,2959644,5248.000,-1377.000,6803.000,160.000,477.000,-210.000,NA,0.000,0
2026-01-30 22:20:25,2959684,4326.000,-584.000,5316.000,368.000,141.000,195.000,NA,0.000,0
2026-01-30 22:20:25,2959724,6827.000,-2187.000,5151.000,-675.000,269.000,450.000,NA,0.000,0
2026-01-30 22:20:25,2959764,5159.000,-1600.000,6555.000,605.000,425.000,259.000,NA,0.000,0
2026-01-30 22:20:25,2959804,5586.000,-1788.000,6127.000,-403.000,286.000,-86.000,NA,0.000,0
2026-01-30 22:20:25,2959844,4739.000,-1017.000,5970.000,274.000,-118.000,203.000,NA,0.000,0
2026-01-30 22:20:25,2959884,5804.000,-1715.000,6368.000,-819.000,-411.000,433.000,NA,0.000,0
2026-01-30 22:20:25,2959929,5040.000,-1857.000,5745.000,-552.000,-228.000,309.000,NA,0.000,0
2026-01-30 22:20:25,2959964,5188.000,-1170.000,6030.000,-449.000,44.000,185.000,NA,0.000,0
2026-01-30 22:20:25,2960004,5723.000,-1821.000,5468.000,-496.000,8.000,271.000,NA,0.000,0
2026-01-30 22:20:25,2960044,6374.000,-1481.000,5158.000,-505.000,-139.000,269.000,NA,0.000,0
2026-01-30 22:20:25,2960084,4875.000,-1389.000,5044.000,-343.000,-143.000,-284.000,NA,0.000,0
2026-01-30 22:20:25,2960124,5679.000,-1477.000,5165.000,-668.000,-291.000,-56.000,NA,0.000,0
2026-01-30 22:20:25,2960164,5886.000,-2031.000,5573.000,-524.000,-211.000,-77.000,NA,0.000,0
2026-01-30 22:20:25,2960204,5497.000,-1686.000,5930.000,-121.000,59.000,-297.000,NA,0.000,0
2026-01-30 22:20:25,2960244,6061.000,-1372.000,5273.000,20.000,211.000,-282.000,NA,0.000,0
2026-01-30 22:20:26,2960284,4884.000,-1436.000,5719.000,404.000,3.000,-81.000,NA,0.000,0
2026-01-30 22:20:26,2960324,6083.000,-2346.000,5997.000,-124.000,79.000,-68.000,NA,0.000,0
2026-01-30 22:20:26,2960364,5049.000,-1085.000,6395.000,-90.000,-319.000,-257.000,NA,0.000,0
2026-01-30 22:20:26,2960404,5925.000,-1565.000,6001.000,-529.000,-506.000,266.000,NA,0.000,0
2026-01-30 22:20:26,2960444,5698.000,-1975.000,5346.000,-205.000,-434.000,415.000,NA,0.000,0
2026-01-30 22:20:26,2960484,5671.000,-2024.000,4573.000,43.000,-93.000,376.000,NA,0.000,0
2026-01-30 22:20:26,2960524,6123.000,-1831.000,5459.000,-184.000,350.000,-109.000,NA,0.000,0
2026-01-30 22:20:26,2960564,6659.000,-1175.000,5712.000,227.000,407.000,-352.000,NA,0.000,0
2026-01-30 22:20:26,2960604,5442.000,-1280.000,5673.000,250.000,96.000,-274.000,NA,0.000,0
2026-01-30 22:20:26,2960644,6128.000,-1952.000,6194.000,-187.000,-80.000,-58.000,NA,0.000,0
2026-01-30 22:20:26,2960684,3617.000,-2569.000,7900.000,-7.000,34.000,-28.000,NA,0.000,0
2026-01-30 22:20:26,2960724,6335.000,-2715.000,5847.000,-657.000,-527.000,491.000,NA,0.000,0
2026-01-30 22:20:26,2960764,6376.000,-1541.000,6095.000,126.000,-282.000,235.000,NA,0.000,0
2026-01-30 22:20:26,2960804,5177.000,-1587.000,6450.000,-52.000,-389.000,227.000,NA,0.000,0
2026-01-30 22:20:26,2960844,5310.000,-1533.000,5776.000,-332.000,-372.000,336.000,NA,0.000,0
2026-01-30 22:20:26,2960884,7342.000,-2322.000,5954.000,-317.000,327.000,422.000,NA,0.000,0
2026-01-30 22:20:26,2960924,4022.000,-812.000,6451.000,314.000,106.000,-47.000,NA,0.000,0
2026-01-30 22:20:26,2960964,6786.000,-2003.000,4594.000,-385.000,220.000,112.000,NA,0.000,0
2026-01-30 22:20:26,2961004,4949.000,-996.000,4969.000,465.000,-4.000,43.000,NA,0.000,0
2026-01-30 22:20:26,2961044,6096.000,-2380.000,7333.000,-238.000,290.000,-254.000,NA,0.000,0
2026-01-30 22:20:26,2961084,4999.000,-1305.000,6372.000,-108.000,33.000,-574.000,NA,0.000,0
2026-01-30 22:20:26,2961124,6283.000,-2532.000,7545.000,-900.000,406.000,-452.000,NA,0.000,0
2026-01-30 22:20:26,2961164,4028.000,-1385.000,5890.000,-276.000,125.000,-412.000,NA,0.000,0
2026-01-30 22:20:26,2961204,6689.000,-3164.000,5566.000,-1002.000,458.000,236.000,NA,0.000,0
2026-01-30 22:20:26,2961244,5595.000,-2478.000,6539.000,-560.000,684.000,-311.000,NA,0.000,0
2026-01-30 22:20:27,2961284,8715.000,-1115.000,5674.000,-1660.000,289.000,-575.000,NA,0.000,0
2026-01-30 22:20:27,2961324,2288.000,-2299.000,9858.000,-810.000,-67.000,-967.000,NA,0.000,0
2026-01-30 22:20:27,2961364,4985.000,-3325.000,4852.000,-2415.000,-621.000,-10.000,NA,0.000,0
2026-01-30 22:20:27,2961404,5440.000,-1530.000,5360.000,-930.000,470.000,38.000,NA,0.000,0
2026-01-30 22:20:27,2961444,6495.000,-3085.000,4897.000,-1018.000,624.000,-557.000,NA,0.000,0
2026-01-30 22:20:27,2961484,8460.000,-1544.000,4034.000,-506.000,872.000,-656.000,NA,0.000,0
2026-01-30 22:20:27,2961524,6422.000,-972.000,3820.000,18.000,-227.000,-1082.000,NA,0.000,0
2026-01-30 22:20:27,2961564,5653.000,-1556.000,4955.000,605.000,-1069.000,-695.000,NA,0.000,0
2026-01-30 22:20:27,2961604,4953.000,-1770.000,6584.000,723.000,-656.000,-684.000,NA,0.000,0
2026-01-30 22:20:27,2961644,7827.000,-448.000,-676.000,988.000,-1054.000,112.000,NA,0.000,0
2026-01-30 22:20:27,2961684,8207.000,-2402.000,1429.000,767.000,329.000,-209.000,NA,0.000,0
2026-01-30 22:20:27,2961724,7200.000,-1737.000,7951.000,1148.000,576.000,-1023.000,NA,0.000,0
2026-01-30 22:20:27,2961764,5274.000,-275.000,6143.000,2143.000,-119.000,-1058.000,NA,0.000,0
2026-01-30 22:20:27,2961804,5385.000,-2453.000,5094.000,335.000,-93.000,-757.000,NA,0.000,0
2026-01-30 22:20:27,2961844,5502.000,-2214.000,6832.000,1450.000,303.000,-126.000,NA,0.000,0
2026-01-30 22:20:27,2961887,7063.000,-1852.000,6725.000,1414.000,1003.000,-407.000,NA,0.000,0
2026-01-30 22:20:27,2961927,5176.000,319.000,5361.000,4192.000,1268.000,-778.000,NA,0.000,0
2026-01-30 22:20:27,2961964,4986.000,1004.000,6591.000,2980.000,1557.000,-1130.000,NA,0.000,0
2026-01-30 22:20:27,2962004,7780.000,-334.000,7888.000,848.000,129.000,-727.000,NA,0.000,0
2026-01-30 22:20:27,2962044,3484.000,-802.000,7630.000,3208.000,1873.000,-433.000,NA,0.000,0
2026-01-30 22:20:27,2962084,5544.000,779.000,5290.000,-722.000,709.000,-270.000,NA,0.000,0
2026-01-30 22:20:27,2962127,4581.000,-212.000,7851.000,448.000,1352.000,-152.000,NA,0.000,0
2026-01-30 22:20:27,2962164,3151.000,1122.000,7232.000,699.000,1069.000,-212.000,NA,0.000,0
2026-01-30 22:20:27,2962204,4762.000,-1610.000,8065.000,-1141.000,-129.000,-43.000,NA,0.000,0
2026-01-30 22:20:27,2962244,5582.000,-1363.000,7897.000,-2850.000,27.000,-86.000,NA,0.000,0
2026-01-30 22:20:28,2962284,5110.000,3451.000,6998.000,-1153.000,151.000,314.000,NA,0.000,0
2026-01-30 22:20:28,2962324,5012.000,627.000,6074.000,-1617.000,394.000,361.000,NA,0.000,0
2026-01-30 22:20:28,2962364,3581.000,-218.000,7296.000,-337.000,211.000,864.000,NA,0.000,0
2026-01-30 22:20:28,2962404,6084.000,-2160.000,5709.000,-2577.000,-500.000,884.000,NA,0.000,0
2026-01-30 22:20:28,2962444,5372.000,-1348.000,7336.000,-1354.000,-805.000,310.000,NA,0.000,0
2026-01-30 22:20:28,2962484,3565.000,-1043.000,6050.000,-434.000,-1067.000,589.000,NA,0.000,0
2026-01-30 22:20:28,2962524,5537.000,-1185.000,5232.000,-2616.000,-1543.000,862.000,NA,0.000,0
2026-01-30 22:20:28,2962564,7046.000,-691.000,6373.000,-2785.000,-1902.000,1062.000,NA,0.000,0
2026-01-30 22:20:28,2962604,5264.000,-2143.000,6668.000,-2559.000,-1403.000,696.000,NA,0.000,0
2026-01-30 22:20:28,2962644,8180.000,-1422.000,6102.000,-2547.000,-631.000,380.000,NA,0.000,0
2026-01-30 22:20:28,2962684,2987.000,-1539.000,4710.000,-554.000,-672.000,-290.000,NA,0.000,0
2026-01-30 22:20:28,2962724,5472.000,-1121.000,5724.000,-634.000,-773.000,424.000,NA,0.000,0
2026-01-30 22:20:28,2962764,7056.000,-2148.000,4706.000,-447.000,-262.000,886.000,NA,0.000,0
2026-01-30 22:20:28,2962804,5715.000,-2401.000,3184.000,1509.000,24.000,1022.000,NA,0.000,0
2026-01-30 22:20:28,2962844,7116.000,-2400.000,4730.000,1492.000,31.000,814.000,NA,0.000,0
2026-01-30 22:20:28,2962884,4925.000,-3725.000,7104.000,853.000,188.000,-115.000,NA,0.000,0
2026-01-30 22:20:28,2962924,5767.000,-2471.000,5982.000,427.000,-114.000,-767.000,NA,0.000,0
2026-01-30 22:20:28,2962964,6233.000,-2321.000,6360.000,323.000,-216.000,-55.000,NA,0.000,0
2026-01-30 22:20:28,2963004,5773.000,-122.000,5309.000,577.000,-49.000,-393.000,NA,0.000,0
2026-01-30 22:20:28,2963044,5300.000,-303.000,5381.000,702.000,453.000,-769.000,NA,0.000,0
2026-01-30 22:20:28,2963084,6587.000,-2483.000,6464.000,208.000,282.000,-470.000,NA,0.000,0
2026-01-30 22:20:28,2963124,5843.000,-2485.000,4731.000,938.000,353.000,-177.000,NA,0.000,0
2026-01-30 22:20:28,2963164,6190.000,-2898.000,5344.000,322.000,-222.000,-990.000,NA,0.000,0
2026-01-30 22:20:28,2963204,5335.000,-1684.000,6399.000,1118.000,442.000,-1192.000,NA,0.000,0
2026-01-30 22:20:28,2963244,5833.000,-889.000,6685.000,1096.000,-297.000,-617.000,NA,0.000,0
2026-01-30 22:20:29,2963284,6171.000,-2135.000,5922.000,1112.000,-580.000,-662.000,NA,0.000,0
2026-01-30 22:20:29,2963324,3257.000,-579.000,5883.000,1924.000,-1006.000,-295.000,NA,0.000,0
2026-01-30 22:20:29,2963364,6935.000,-1643.000,5455.000,612.000,-320.000,65.000,NA,0.000,0
2026-01-30 22:20:29,2963404,5030.000,-775.000,5986.000,472.000,-478.000,-244.000,NA,0.000,0
2026-01-30 22:20:29,2963444,6263.000,-766.000,5714.000,-35.000,-223.000,36.000,NA,0.000,0
2026-01-30 22:20:29,2963484,3828.000,-1382.000,9227.000,-870.000,-619.000,-25.000,NA,0.000,0
2026-01-30 22:20:29,2963524,8323.000,292.000,2304.000,-1313.000,-92.000,473.000,NA,0.000,0
2026-01-30 22:20:29,2963564,6993.000,-3321.000,2802.000,-650.000,-995.000,806.000,NA,0.000,0
2026-01-30 22:20:29,2963604,8277.000,-1550.000,2307.000,-1304.000,-690.000,-100.000,NA,0.000,0
2026-01-30 22:20:29,2963644,6147.000,523.000,3450.000,-544.000,-573.000,-347.000,NA,0.000,0
2026-01-30 22:20:29,2963684,4464.000,-745.000,10829.000,-1106.000,-581.000,-358.000,NA,0.000,0
2026-01-30 22:20:29,2963724,5647.000,-1294.000,8280.000,-2098.000,-264.000,-618.000,NA,0.000,0
2026-01-30 22:20:29,2963764,3767.000,-1262.000,5921.000,-1729.000,1315.000,403.000,NA,0.000,0
2026-01-30 22:20:29,2963804,7730.000,-302.000,1825.000,-558.000,1531.000,1671.000,NA,0.000,0
2026-01-30 22:20:29,2963844,6379.000,-1843.000,3190.000,-955.000,541.000,912.000,NA,0.000,0
2026-01-30 22:20:29,2963884,8345.000,-3360.000,1644.000,169.000,1269.000,38.000,NA,0.000,0
2026-01-30 22:20:29,2963924,8108.000,-2163.000,1425.000,1265.000,751.000,-727.000,NA,0.000,0
2026-01-30 22:20:29,2963964,6499.000,-2133.000,8303.000,1679.000,500.000,-1124.000,NA,0.000,0
2026-01-30 22:20:29,2964004,6498.000,-2585.000,9005.000,932.000,-1229.000,-739.000,NA,0.000,0
2026-01-30 22:20:29,2964044,4710.000,-60.000,8857.000,1665.000,-2711.000,-746.000,NA,0.000,0
2026-01-30 22:20:29,2964084,7050.000,-1732.000,5203.000,487.000,-1482.000,-373.000,NA,0.000,0
2026-01-30 22:20:29,2964127,5371.000,-1391.000,4537.000,1760.000,1747.000,-1269.000,NA,0.000,0
2026-01-30 22:20:29,2964164,6571.000,-1943.000,2371.000,1623.000,1795.000,-721.000,NA,0.000,0
2026-01-30 22:20:29,2964204,6911.000,-1346.000,4655.000,3228.000,1725.000,-686.000,NA,0.000,0
2026-01-30 22:20:29,2964244,6831.000,-3511.000,5570.000,2035.000,1202.000,-535.000,NA,0.000,0
2026-01-30 22:20:30,2964284,6570.000,905.000,5490.000,3650.000,18.000,-142.000,NA,0.000,0
2026-01-30 22:20:30,2964324,5013.000,-36.000,5786.000,3086.000,-421.000,-708.000,NA,0.000,0
2026-01-30 22:20:30,2964364,5805.000,-1307.000,8856.000,2186.000,468.000,-1580.000,NA,0.000,0
2026-01-30 22:20:30,2964404,3049.000,1865.000,9049.000,1976.000,520.000,-1245.000,NA,0.000,0
2026-01-30 22:20:30,2964444,6842.000,125.000,8114.000,-1447.000,502.000,-368.000,NA,0.000,0
2026-01-30 22:20:30,2964484,2521.000,2323.000,5657.000,-1034.000,1786.000,-405.000,NA,0.000,0
2026-01-30 22:20:30,2964524,7514.000,-1282.000,7329.000,-2635.000,746.000,244.000,NA,0.000,0
2026-01-30 22:20:30,2964564,4932.000,1512.000,5199.000,-2101.000,580.000,-43.000,NA,0.000,0
2026-01-30 22:20:30,2964604,5908.000,-20.000,6493.000,-2713.000,-590.000,-342.000,NA,0.000,0
2026-01-30 22:20:30,2964644,3697.000,-1075.000,6206.000,-2417.000,-1076.000,-33.000,NA,0.000,0
2026-01-30 22:20:30,2964684,6786.000,-1493.000,4627.000,-2839.000,-1569.000,526.000,NA,0.000,0
2026-01-30 22:20:30,2964724,5465.000,-1041.000,4995.000,-1094.000,-450.000,433.000,NA,0.000,0
2026-01-30 22:20:30,2964764,6437.000,-684.000,5614.000,-967.000,-847.000,1077.000,NA,0.000,0
2026-01-30 22:20:30,2964804,5699.000,-2190.000,5616.000,-182.000,-785.000,1117.000,NA,0.000,0
2026-01-30 22:20:30,2964844,5251.000,-854.000,5119.000,642.000,-1267.000,1521.000,NA,0.000,0
2026-01-30 22:20:30,2964884,7194.000,-993.000,5861.000,-566.000,-1196.000,1033.000,NA,0.000,0
2026-01-30 22:20:30,2964924,5557.000,-749.000,6066.000,-463.000,-423.000,-45.000,NA,0.000,0
2026-01-30 22:20:30,2964964,5722.000,-1280.000,7201.000,-1315.000,-70.000,-169.000,NA,0.000,0
2026-01-30 22:20:30,2965004,4694.000,-1014.000,7407.000,-358.000,451.000,407.000,NA,0.000,0
2026-01-30 22:20:30,2965044,6865.000,-1065.000,5868.000,-1075.000,655.000,337.000,NA,0.000,0
2026-01-30 22:20:30,2965084,5071.000,-2910.000,7481.000,-1927.000,222.000,24.000,NA,0.000,0
2026-01-30 22:20:30,2965124,6055.000,-206.000,4571.000,-1844.000,-535.000,-312.000,NA,0.000,0
2026-01-30 22:20:30,2965164,6515.000,-1528.000,3284.000,-571.000,286.000,-143.000,NA,0.000,0
2026-01-30 22:20:30,2965204,6185.000,-2490.000,5398.000,-286.000,294.000,-245.000,NA,0.000,0
2026-01-30 22:20:30,2965244,7079.000,-2619.000,3131.000,606.000,343.000,-370.000,NA,0.000,0
2026-01-30 22:20:31,2965284,5545.000,988.000,3940.000,1417.000,-697.000,-456.000,NA,0.000,0
2026-01-30 22:20:31,2965324,5995.000,-3044.000,7297.000,629.000,-350.000,-163.000,NA,0.000,0
2026-01-30 22:20:31,2965364,5839.000,-1177.000,5949.000,771.000,-694.000,-74.000,NA,0.000,0
2026-01-30 22:20:31,2965404,6831.000,-970.000,4602.000,710.000,-360.000,-108.000,NA,0.000,0
2026-01-30 22:20:31,2965444,5330.000,-340.000,6324.000,959.000,8.000,-93.000,NA,0.000,0
2026-01-30 22:20:31,2965484,5746.000,-1401.000,6336.000,497.000,-375.000,-123.000,NA,0.000,0
2026-01-30 22:20:31,2965524,6456.000,-1459.000,5052.000,516.000,-20.000,-23.000,NA,0.000,0
2026-01-30 22:20:31,2965564,6319.000,-1825.000,3484.000,521.000,196.000,-399.000,NA,0.000,0
2026-01-30 22:20:31,2965604,7218.000,-2004.000,5353.000,838.000,132.000,-691.000,NA,0.000,0
2026-01-30 22:20:31,2965644,6213.000,-620.000,5819.000,885.000,-90.000,-319.000,NA,0.000,0
2026-01-30 22:20:31,2965684,6216.000,-669.000,4492.000,253.000,-67.000,-210.000,NA,0.000,0
2026-01-30 22:20:31,2965724,5618.000,-1113.000,4135.000,573.000,332.000,-397.000,NA,0.000,0
2026-01-30 22:20:31,2965764,7605.000,-1993.000,5022.000,421.000,634.000,-457.000,NA,0.000,0
2026-01-30 22:20:31,2965804,4563.000,-344.000,6834.000,841.000,333.000,-658.000,NA,0.000,0
2026-01-30 22:20:31,2965844,7694.000,-839.000,4337.000,28.000,272.000,-163.000,NA,0.000,0
2026-01-30 22:20:31,2965887,5789.000,-622.000,6459.000,695.000,681.000,-174.000,NA,0.000,0
2026-01-30 22:20:31,2965926,5593.000,-1529.000,6763.000,384.000,475.000,-699.000,NA,0.000,0
2026-01-30 22:20:31,2965964,5880.000,-1598.000,5022.000,1221.000,519.000,-698.000,NA,0.000,0
2026-01-30 22:20:31,2966004,5612.000,-236.000,4710.000,2933.000,632.000,-941.000,NA,0.000,0
2026-01-30 22:20:31,2966044,6038.000,259.000,5316.000,2064.000,1055.000,-476.000,NA,0.000,0
2026-01-30 22:20:31,2966084,6802.000,-1683.000,5671.000,430.000,1146.000,-293.000,NA,0.000,0
2026-01-30 22:20:31,2966124,5370.000,-3972.000,9658.000,417.000,2074.000,-731.000,NA,0.000,0
2026-01-30 22:20:31,2966164,2308.000,3989.000,4459.000,2491.000,594.000,605.000,NA,0.000,0
2026-01-30 22:20:31,2966204,7369.000,-2808.000,7853.000,-1941.000,-361.000,226.000,NA,0.000,0
2026-01-30 22:20:31,2966244,1888.000,1706.000,6870.000,560.000,-806.000,720.000,NA,0.000,0
2026-01-30 22:20:32,2966284,9441.000,-279.000,8097.000,-2031.000,-1095.000,908.000,NA,0.000,0
2026-01-30 22:20:32,2966324,2612.000,2782.000,5792.000,721.000,550.000,505.000,NA,0.000,0
2026-01-30 22:20:32,2966364,7780.000,91.000,4569.000,-2143.000,244.000,1054.000,NA,0.000,0
2026-01-30 22:20:32,2966404,5857.000,3159.000,5494.000,1927.000,541.000,1145.000,NA,0.000,0
2026-01-30 22:20:32,2966444,7579.000,-1147.000,6604.000,-615.000,-558.000,1603.000,NA,0.000,0
2026-01-30 22:20:32,2966484,7310.000,1760.000,5780.000,470.000,-1809.000,1544.000,NA,0.000,0
2026-01-30 22:20:32,2966524,5529.000,-1663.000,7442.000,-1151.000,-1163.000,844.000,NA,0.000,0
2026-01-30 22:20:32,2966564,3747.000,783.000,4905.000,-876.000,-1200.000,1392.000,NA,0.000,0
2026-01-30 22:20:32,2966604,7852.000,-2860.000,5082.000,-1854.000,-601.000,1642.000,NA,0.000,0
2026-01-30 22:20:32,2966644,4481.000,-1044.000,7256.000,-94.000,-177.000,1121.000,NA,0.000,0
2026-01-30 22:20:32,2966684,5710.000,-435.000,6631.000,-1094.000,-224.000,646.000,NA,0.000,0
2026-01-30 22:20:32,2966724,5279.000,232.000,6246.000,-610.000,123.000,485.000,NA,0.000,0
2026-01-30 22:20:32,2966764,6978.000,-871.000,5468.000,-1421.000,327.000,440.000,NA,0.000,0
2026-01-30 22:20:32,2966804,5754.000,1502.000,3232.000,65.000,223.000,-166.000,NA,0.000,0
2026-01-30 22:20:32,2966844,7882.000,-2206.000,4384.000,-304.000,789.000,-185.000,NA,0.000,0
2026-01-30 22:20:32,2966884,4314.000,-384.000,4095.000,1843.000,-592.000,-31.000,NA,0.000,0
2026-01-30 22:20:32,2966924,7396.000,-3702.000,5341.000,12.000,-549.000,-66.000,NA,0.000,0
2026-01-30 22:20:32,2966964,5444.000,-1751.000,5676.000,1320.000,-818.000,-228.000,NA,0.000,0
2026-01-30 22:20:32,2967004,8120.000,-1594.000,4325.000,1050.000,-962.000,110.000,NA,0.000,0
2026-01-30 22:20:32,2967044,3082.000,-675.000,6286.000,2286.000,-547.000,310.000,NA,0.000,0
2026-01-30 22:20:32,2967084,6482.000,-2816.000,6074.000,632.000,-172.000,214.000,NA,0.000,0
2026-01-30 22:20:32,2967124,3508.000,-1133.000,7183.000,1875.000,80.000,-1.000,NA,0.000,0
2026-01-30 22:20:32,2967164,8287.000,-1514.000,6178.000,326.000,-449.000,126.000,NA,0.000,0
2026-01-30 22:20:32,2967204,5171.000,-393.000,6389.000,775.000,-1091.000,-80.000,NA,0.000,0
2026-01-30 22:20:32,2967244,8155.000,-1629.000,4052.000,360.000,-592.000,100.000,NA,0.000,0
2026-01-30 22:20:33,2967284,3129.000,-318.000,4705.000,1440.000,-28.000,144.000,NA,0.000,0
2026-01-30 22:20:33,2967324,9598.000,-2376.000,6030.000,-179.000,747.000,58.000,NA,0.000,0
2026-01-30 22:20:33,2967364,1808.000,747.000,6237.000,898.000,658.000,-421.000,NA,0.000,0
2026-01-30 22:20:33,2967404,6964.000,-351.000,5427.000,-1477.000,-14.000,158.000,NA,0.000,0
2026-01-30 22:20:33,2967444,4993.000,-1484.000,7557.000,-732.000,712.000,360.000,NA,0.000,0
2026-01-30 22:20:33,2967484,6187.000,-1296.000,4950.000,-857.000,776.000,41.000,NA,0.000,0
2026-01-30 22:20:33,2967524,4446.000,-2124.000,5670.000,22.000,858.000,-196.000,NA,0.000,0
2026-01-30 22:20:33,2967564,7809.000,-876.000,5169.000,-201.000,-145.000,308.000,NA,0.000,0
2026-01-30 22:20:33,2967604,5495.000,-779.000,5211.000,629.000,-403.000,317.000,NA,0.000,0
2026-01-30 22:20:33,2967644,7844.000,-987.000,4082.000,-44.000,-687.000,177.000,NA,0.000,0
2026-01-30 22:20:33,2967684,3741.000,-1891.000,6127.000,1923.000,-386.000,-168.000,NA,0.000,0
2026-01-30 22:20:33,2967724,7245.000,-290.000,3884.000,-279.000,-215.000,-215.000,NA,0.000,0
2026-01-30 22:20:33,2967764,4361.000,-1153.000,5863.000,2222.000,686.000,-569.000,NA,0.000,0
2026-01-30 22:20:33,2967804,5210.000,-1091.000,4614.000,-44.000,531.000,-379.000,NA,0.000,0
2026-01-30 22:20:33,2967844,6014.000,-874.000,8437.000,563.000,535.000,-606.000,NA,0.000,0
2026-01-30 22:20:33,2967886,4965.000,-367.000,6164.000,312.000,455.000,-405.000,NA,0.000,0
2026-01-30 22:20:33,2967925,7370.000,-1682.000,5200.000,-1315.000,585.000,-180.000,NA,0.000,0
2026-01-30 22:20:33,2967967,3672.000,-260.000,6676.000,460.000,751.000,-190.000,NA,0.000,0
2026-01-30 22:20:33,2968004,4405.000,114.000,6586.000,475.000,331.000,312.000,NA,0.000,0
2026-01-30 22:20:33,2968044,5771.000,41.000,6672.000,-81.000,-484.000,695.000,NA,0.000,0
2026-01-30 22:20:33,2968084,4225.000,-137.000,5672.000,-794.000,-586.000,462.000,NA,0.000,0
2026-01-30 22:20:33,2968124,6208.000,-2766.000,6596.000,-2533.000,-205.000,495.000,NA,0.000,0
2026-01-30 22:20:33,2968167,4893.000,-1331.000,6134.000,-1309.000,64.000,667.000,NA,0.000,0
2026-01-30 22:20:33,2968204,6804.000,-1122.000,4702.000,-1603.000,-272.000,1046.000,NA,0.000,0
2026-01-30 22:20:33,2968244,6595.000,-1883.000,6314.000,-1213.000,129.000,382.000,NA,0.000,0
2026-01-30 22:20:34,2968284,5081.000,-1713.000,6432.000,-661.000,-854.000,-141.000,NA,0.000,0
2026-01-30 22:20:34,2968324,7072.000,-888.000,4236.000,-753.000,-1439.000,1042.000,NA,0.000,0
2026-01-30 22:20:34,2968364,5435.000,-1811.000,6571.000,438.000,28.000,881.000,NA,0.000,0
2026-01-30 22:20:34,2968404,5429.000,-1525.000,5628.000,-248.000,507.000,266.000,NA,0.000,0
2026-01-30 22:20:34,2968444,5931.000,-2835.000,7174.000,79.000,1037.000,328.000,NA,0.000,0
2026-01-30 22:20:34,2968484,6339.000,76.000,4437.000,245.000,347.000,152.000,NA,0.000,0
2026-01-30 22:20:34,2968524,7389.000,-796.000,5963.000,-66.000,158.000,-33.000,NA,0.000,0
2026-01-30 22:20:34,2968564,5166.000,-2243.000,6202.000,-133.000,-327.000,-382.000,NA,0.000,0
2026-01-30 22:20:34,2968604,4942.000,-1392.000,6171.000,8.000,-545.000,-52.000,NA,0.000,0
2026-01-30 22:20:34,2968644,5623.000,-2325.000,4252.000,25.000,-214.000,183.000,NA,0.000,0
2026-01-30 22:20:34,2968684,6907.000,-4147.000,4820.000,-87.000,796.000,279.000,NA,0.000,0
2026-01-30 22:20:34,2968724,7976.000,-3031.000,6277.000,-753.000,448.000,-342.000,NA,0.000,0
2026-01-30 22:20:34,2968764,4529.000,282.000,6494.000,429.000,-455.000,-268.000,NA,0.000,0
2026-01-30 22:20:34,2968804,5659.000,-1573.000,5910.000,-917.000,-984.000,-31.000,NA,0.000,0
2026-01-30 22:20:34,2968844,5832.000,-2402.000,6178.000,-660.000,-454.000,-152.000,NA,0.000,0
2026-01-30 22:20:34,2968884,5842.000,-1545.000,6096.000,-297.000,-228.000,-545.000,NA,0.000,0
2026-01-30 22:20:34,2968924,5156.000,-197.000,4508.000,291.000,142.000,-357.000,NA,0.000,0
2026-01-30 22:20:34,2968964,4384.000,-463.000,4911.000,951.000,36.000,-123.000,NA,0.000,0
2026-01-30 22:20:34,2969004,7545.000,-3003.000,5923.000,497.000,474.000,-13.000,NA,0.000,0
2026-01-30 22:20:34,2969044,5708.000,-1815.000,5317.000,837.000,-184.000,-620.000,NA,0.000,0
2026-01-30 22:20:34,2969084,6196.000,-219.000,5122.000,353.000,-665.000,-175.000,NA,0.000,0
2026-01-30 22:20:34,2969124,8770.000,-1214.000,4793.000,-163.000,-331.000,119.000,NA,0.000,0
2026-01-30 22:20:34,2969164,5283.000,-1694.000,8080.000,-211.000,175.000,-368.000,NA,0.000,0
2026-01-30 22:20:34,2969204,6078.000,601.000,5072.000,-972.000,136.000,-323.000,NA,0.000,0
2026-01-30 22:20:34,2969244,5751.000,-1053.000,5628.000,-416.000,613.000,-196.000,NA,0.000,0
2026-01-30 22:20:35,2969284,3802.000,-1059.000,7313.000,299.000,765.000,-652.000,NA,0.000,0
2026-01-30 22:20:35,2969324,6534.000,-1009.000,4914.000,-698.000,960.000,-575.000,NA,0.000,0
2026-01-30 22:20:35,2969364,6194.000,901.000,3452.000,-85.000,826.000,-193.000,NA,0.000,0
2026-01-30 22:20:35,2969404,7356.000,-2503.000,6146.000,-1946.000,618.000,-402.000,NA,0.000,0
2026-01-30 22:20:35,2969444,4795.000,-794.000,5661.000,-944.000,1010.000,-1793.000,NA,0.000,0
2026-01-30 22:20:35,2969484,8526.000,-862.000,8171.000,-1087.000,94.000,-738.000,NA,0.000,0
2026-01-30 22:20:35,2969524,3607.000,502.000,6519.000,638.000,364.000,-1237.000,NA,0.000,0
2026-01-30 22:20:35,2969564,3257.000,-2896.000,6956.000,-1069.000,-60.000,-215.000,NA,0.000,0
2026-01-30 22:20:35,2969604,5816.000,-699.000,5455.000,-698.000,-339.000,401.000,NA,0.000,0
2026-01-30 22:20:35,2969644,6750.000,-1918.000,5846.000,692.000,607.000,1094.000,NA,0.000,0
2026-01-30 22:20:35,2969684,6932.000,-300.000,5987.000,563.000,423.000,912.000,NA,0.000,0
2026-01-30 22:20:35,2969724,6784.000,-2725.000,8301.000,-1049.000,408.000,437.000,NA,0.000,0
2026-01-30 22:20:35,2969764,5450.000,516.000,6194.000,87.000,-707.000,592.000,NA,0.000,0
2026-01-30 22:20:35,2969804,5950.000,-1835.000,7384.000,-1678.000,-598.000,361.000,NA,0.000,0
2026-01-30 22:20:35,2969844,7294.000,105.000,5416.000,-2087.000,-1120.000,291.000,NA,0.000,0
2026-01-30 22:20:35,2969887,5865.000,-1172.000,5320.000,-900.000,117.000,610.000,NA,0.000,0
2026-01-30 22:20:35,2969929,2062.000,-1607.000,6792.000,-208.000,1106.000,392.000,NA,0.000,0
2026-01-30 22:20:35,2969964,5084.000,788.000,3729.000,258.000,750.000,544.000,NA,0.000,0
2026-01-30 22:20:35,2970004,8770.000,-1377.000,5818.000,-526.000,1091.000,166.000,NA,0.000,0
2026-01-30 22:20:35,2970044,5874.000,-556.000,4405.000,223.000,-203.000,-800.000,NA,0.000,0
2026-01-30 22:20:35,2970084,5273.000,-1224.000,4397.000,-612.000,-1136.000,-858.000,NA,0.000,0
2026-01-30 22:20:35,2970128,5562.000,-1862.000,6261.000,-128.000,-205.000,-695.000,NA,0.000,0
2026-01-30 22:20:35,2970164,5641.000,-1555.000,5747.000,248.000,350.000,-592.000,NA,0.000,0
2026-01-30 22:20:35,2970204,6431.000,-2358.000,4359.000,456.000,41.000,-466.000,NA,0.000,0
2026-01-30 22:20:35,2970244,4767.000,-774.000,4299.000,1264.000,-133.000,-702.000,NA,0.000,0
2026-01-30 22:20:36,2970284,8831.000,-2969.000,5992.000,635.000,-783.000,-510.000,NA,0.000,0
2026-01-30 22:20:36,2970324,3706.000,1371.000,5189.000,1433.000,-844.000,-523.000,NA,0.000,0
2026-01-30 22:20:36,2970364,7695.000,-2459.000,4682.000,520.000,-750.000,-226.000,NA,0.000,0
2026-01-30 22:20:36,2970404,5270.000,-1855.000,5151.000,1521.000,-217.000,-165.000,NA,0.000,0
2026-01-30 22:20:36,2970444,4989.000,-1207.000,6987.000,1531.000,-353.000,-141.000,NA,0.000,0
2026-01-30 22:20:36,2970484,6511.000,-2934.000,6689.000,960.000,160.000,55.000,NA,0.000,0
2026-01-30 22:20:36,2970524,6954.000,-1994.000,5612.000,738.000,521.000,-92.000,NA,0.000,0
2026-01-30 22:20:36,2970564,7348.000,98.000,4272.000,475.000,491.000,36.000,NA,0.000,0
2026-01-30 22:20:36,2970604,4498.000,-2249.000,6344.000,-22.000,425.000,-60.000,NA,0.000,0
2026-01-30 22:20:36,2970644,6823.000,-936.000,5751.000,-897.000,-329.000,-226.000,NA,0.000,0
2026-01-30 22:20:36,2970684,7009.000,-253.000,5421.000,-786.000,-193.000,-19.000,NA,0.000,0
2026-01-30 22:20:36,2970724,4630.000,-1447.000,5109.000,-324.000,840.000,21.000,NA,0.000,0
2026-01-30 22:20:36,2970764,6335.000,-1128.000,5395.000,-343.000,1370.000,-125.000,NA,0.000,0
2026-01-30 22:20:36,2970804,4484.000,-1018.000,6256.000,809.000,1219.000,215.000,NA,0.000,0
2026-01-30 22:20:36,2970844,6495.000,-339.000,5292.000,-307.000,554.000,377.000,NA,0.000,0
2026-01-30 22:20:36,2970884,7943.000,-3213.000,8728.000,-1450.000,495.000,64.000,NA,0.000,0
2026-01-30 22:20:36,2970924,3887.000,2473.000,5534.000,621.000,-806.000,-432.000,NA,0.000,0
2026-01-30 22:20:36,2970964,5324.000,-2239.000,5317.000,-1487.000,-813.000,136.000,NA,0.000,0
2026-01-30 22:20:36,2971004,2719.000,-2192.000,5260.000,-62.000,-697.000,-302.000,NA,0.000,0
2026-01-30 22:20:36,2971044,3449.000,-8524.000,12190.000,-3274.000,1212.000,-442.000,NA,0.000,0
2026-01-30 22:20:36,2971084,5268.000,1244.000,5040.000,918.000,716.000,-274.000,NA,0.000,0
2026-01-30 22:20:36,2971124,6990.000,-512.000,5816.000,-124.000,344.000,73.000,NA,0.000,0
2026-01-30 22:20:36,2971164,4988.000,-1773.000,6827.000,-495.000,-393.000,-186.000,NA,0.000,0
2026-01-30 22:20:36,2971204,4795.000,-926.000,5447.000,-115.000,-976.000,-290.000,NA,0.000,0
2026-01-30 22:20:36,2971244,7960.000,-2988.000,2286.000,-2.000,-644.000,312.000,NA,0.000,0
2026-01-30 22:20:37,2971284,2065.000,-1585.000,10118.000,2238.000,-167.000,-344.000,NA,0.000,0
2026-01-30 22:20:37,2971324,7469.000,-4641.000,8369.000,266.000,-412.000,80.000,NA,0.000,0
2026-01-30 22:20:37,2971364,5817.000,-2050.000,8162.000,1688.000,-200.000,31.000,NA,0.000,0
2026-01-30 22:20:37,2971404,5767.000,-1033.000,6870.000,638.000,-1147.000,-171.000,NA,0.000,0
2026-01-30 22:20:37,2971444,5841.000,-522.000,5945.000,79.000,-985.000,92.000,NA,0.000,0
2026-01-30 22:20:37,2971484,5041.000,-439.000,6779.000,-277.000,-60.000,92.000,NA,0.000,0
2026-01-30 22:20:37,2971524,6155.000,-1334.000,5502.000,-802.000,928.000,176.000,NA,0.000,0
2026-01-30 22:20:37,2971564,5504.000,-85.000,5747.000,-671.000,1150.000,-150.000,NA,0.000,0
2026-01-30 22:20:37,2971604,7265.000,-2192.000,4600.000,-1164.000,685.000,-29.000,NA,0.000,0
2026-01-30 22:20:37,2971644,6756.000,-1895.000,4779.000,-308.000,579.000,-304.000,NA,0.000,0
2026-01-30 22:20:37,2971684,5839.000,-1395.000,5408.000,-77.000,113.000,-751.000,NA,0.000,0
2026-01-30 22:20:37,2971724,6974.000,-1573.000,4302.000,-40.000,-268.000,-431.000,NA,0.000,0
2026-01-30 22:20:37,2971764,5367.000,-1957.000,6038.000,430.000,-403.000,-330.000,NA,0.000,0
2026-01-30 22:20:37,2971804,6078.000,-1537.000,4917.000,107.000,-339.000,-247.000,NA,0.000,0
2026-01-30 22:20:37,2971844,5767.000,-1756.000,6202.000,127.000,87.000,-165.000,NA,0.000,0
2026-01-30 22:20:37,2971887,7745.000,-2252.000,5013.000,263.000,-89.000,-253.000,NA,0.000,0
2026-01-30 22:20:37,2971926,4402.000,-621.000,6870.000,466.000,66.000,-815.000,NA,0.000,0
2026-01-30 22:20:37,2971964,4320.000,736.000,5261.000,640.000,-301.000,-889.000,NA,0.000,0
2026-01-30 22:20:37,2972004,6219.000,-2730.000,5555.000,368.000,147.000,-228.000,NA,0.000,0
2026-01-30 22:20:37,2972044,5129.000,-1746.000,6371.000,906.000,513.000,-91.000,NA,0.000,0
2026-01-30 22:20:37,2972084,5811.000,-1325.000,6466.000,823.000,178.000,271.000,NA,0.000,0
2026-01-30 22:20:37,2972127,6229.000,-1256.000,5907.000,493.000,15.000,483.000,NA,0.000,0
2026-01-30 22:20:37,2972164,5081.000,-1722.000,6175.000,583.000,-8.000,620.000,NA,0.000,0
2026-01-30 22:20:37,2972204,7327.000,-1751.000,4959.000,222.000,-96.000,526.000,NA,0.000,0
2026-01-30 22:20:37,2972244,6027.000,-246.000,5616.000,1032.000,-317.000,270.000,NA,0.000,0
2026-01-30 22:20:38,2972284,6847.000,-2180.000,5985.000,186.000,-659.000,47.000,NA,0.000,0
2026-01-30 22:20:38,2972324,5074.000,-699.000,5431.000,741.000,-629.000,113.000,NA,0.000,0
2026-01-30 22:20:38,2972364,6659.000,-468.000,4515.000,477.000,-143.000,530.000,NA,0.000,0
2026-01-30 22:20:38,2972404,5476.000,-1204.000,5046.000,819.000,522.000,240.000,NA,0.000,0
2026-01-30 22:20:38,2972444,6314.000,-1176.000,5338.000,783.000,594.000,237.000,NA,0.000,0
2026-01-30 22:20:38,2972484,5026.000,-1289.000,4693.000,865.000,184.000,80.000,NA,0.000,0
2026-01-30 22:20:38,2972524,5649.000,-1073.000,6584.000,572.000,-38.000,-64.000,NA,0.000,0
2026-01-30 22:20:38,2972564,6139.000,-262.000,6143.000,714.000,-382.000,-143.000,NA,0.000,0
2026-01-30 22:20:38,2972604,7761.000,-508.000,6304.000,-31.000,251.000,151.000,NA,0.000,0
2026-01-30 22:20:38,2972644,4396.000,-577.000,5490.000,263.000,195.000,-34.000,NA,0.000,0
2026-01-30 22:20:38,2972684,7092.000,-2305.000,6321.000,-586.000,-132.000,151.000,NA,0.000,0
2026-01-30 22:20:38,2972724,5920.000,-576.000,6680.000,-207.000,113.000,386.000,NA,0.000,0
2026-01-30 22:20:38,2972764,5902.000,-1310.000,5222.000,381.000,421.000,40.000,NA,0.000,0
2026-01-30 22:20:38,2972804,6031.000,-362.000,5344.000,-30.000,816.000,216.000,NA,0.000,0
2026-01-30 22:20:38,2972844,4429.000,-719.000,5826.000,-1249.000,840.000,-36.000,NA,0.000,0
2026-01-30 22:20:38,2972884,4628.000,-6.000,3644.000,-4262.000,-111.000,163.000,NA,0.000,0
2026-01-30 22:20:38,2972924,5013.000,-3396.000,5384.000,-5270.000,-916.000,-84.000,NA,0.000,0
2026-01-30 22:20:38,2972964,6468.000,-1304.000,4963.000,-4161.000,-1314.000,229.000,NA,0.000,0
2026-01-30 22:20:38,2973004,6195.000,-2234.000,4836.000,-3165.000,-256.000,57.000,NA,0.000,0
2026-01-30 22:20:38,2973044,5779.000,-3609.000,4557.000,-1974.000,-108.000,77.000,NA,0.000,0
2026-01-30 22:20:38,2973084,6210.000,-2713.000,6077.000,1245.000,-74.000,391.000,NA,0.000,0
2026-01-30 22:20:38,2973124,2929.000,-1119.000,2745.000,2441.000,-763.000,765.000,NA,0.000,0
2026-01-30 22:20:38,2973164,5907.000,-2568.000,3428.000,2299.000,-872.000,666.000,NA,0.000,0
2026-01-30 22:20:38,2973204,6974.000,-2817.000,6496.000,2617.000,-693.000,-29.000,NA,0.000,0
2026-01-30 22:20:38,2973244,6241.000,-1747.000,6166.000,583.000,-470.000,-358.000,NA,0.000,0
2026-01-30 22:20:39,2973284,5515.000,-1863.000,4816.000,1159.000,-490.000,261.000,NA,0.000,0
2026-01-30 22:20:39,2973324,7611.000,-2744.000,5188.000,1132.000,236.000,269.000,NA,0.000,0
2026-01-30 22:20:39,2973364,4534.000,-1292.000,4568.000,1057.000,233.000,-58.000,NA,0.000,0
2026-01-30 22:20:39,2973404,4888.000,-1996.000,5934.000,262.000,-394.000,314.000,NA,0.000,0
2026-01-30 22:20:39,2973444,4978.000,-2558.000,5700.000,192.000,-40.000,482.000,NA,0.000,0
2026-01-30 22:20:39,2973484,6262.000,-1257.000,4183.000,501.000,636.000,767.000,NA,0.000,0
2026-01-30 22:20:39,2973524,5105.000,-2262.000,6122.000,709.000,779.000,727.000,NA,0.000,0
2026-01-30 22:20:39,2973564,6099.000,-2497.000,6614.000,357.000,254.000,706.000,NA,0.000,0
2026-01-30 22:20:39,2973604,6324.000,-2189.000,5777.000,-328.000,-357.000,447.000,NA,0.000,0
2026-01-30 22:20:39,2973644,5573.000,-1794.000,6092.000,-70.000,-483.000,21.000,NA,0.000,0
2026-01-30 22:20:39,2973684,5638.000,-1036.000,5219.000,205.000,-414.000,215.000,NA,0.000,0
2026-01-30 22:20:39,2973724,5882.000,-2934.000,5733.000,-437.000,426.000,90.000,NA,0.000,0
2026-01-30 22:20:39,2973764,4350.000,-1582.000,6161.000,152.000,435.000,214.000,NA,0.000,0
2026-01-30 22:20:39,2973804,5623.000,-2033.000,5309.000,-505.000,573.000,545.000,NA,0.000,0
2026-01-30 22:20:39,2973844,6420.000,-1856.000,5685.000,124.000,291.000,635.000,NA,0.000,0
2026-01-30 22:20:39,2973884,6851.000,-983.000,4960.000,70.000,-83.000,244.000,NA,0.000,0
2026-01-30 22:20:39,2973924,5989.000,-1641.000,5116.000,-545.000,-311.000,-55.000,NA,0.000,0
2026-01-30 22:20:39,2973964,5603.000,-2386.000,6316.000,-445.000,-557.000,-7.000,NA,0.000,0
2026-01-30 22:20:39,2974004,6484.000,-1698.000,5730.000,76.000,-211.000,255.000,NA,0.000,0
2026-01-30 22:20:39,2974044,5295.000,-1940.000,5825.000,62.000,506.000,141.000,NA,0.000,0
2026-01-30 22:20:39,2974084,8036.000,-1270.000,5055.000,-301.000,-91.000,335.000,NA,0.000,0
2026-01-30 22:20:39,2974127,5618.000,-2426.000,5573.000,-983.000,-174.000,41.000,NA,0.000,0
2026-01-30 22:20:39,2974164,5377.000,-1912.000,6345.000,-812.000,-139.000,-186.000,NA,0.000,0
2026-01-30 22:20:39,2974204,6287.000,-1011.000,5541.000,-749.000,8.000,56.000,NA,0.000,0
2026-01-30 22:20:39,2974244,5983.000,-1379.000,5304.000,-387.000,421.000,-30.000,NA,0.000,0
2026-01-30 22:20:40,2974284,6130.000,-1892.000,6131.000,-246.000,392.000,70.000,NA,0.000,0
2026-01-30 22:20:40,2974324,6569.000,-2418.000,5374.000,-326.000,333.000,71.000,NA,0.000,0
2026-01-30 22:20:40,2974364,4431.000,-1053.000,5813.000,14.000,-62.000,-142.000,NA,0.000,0
2026-01-30 22:20:40,2974404,5343.000,-1716.000,5424.000,-583.000,-311.000,136.000,NA,0.000,0
2026-01-30 22:20:40,2974444,6462.000,-1827.000,5706.000,-121.000,241.000,-213.000,NA,0.000,0
2026-01-30 22:20:40,2974484,5483.000,-1714.000,6498.000,-208.000,107.000,-348.000,NA,0.000,0
2026-01-30 22:20:40,2974524,5302.000,-2024.000,6098.000,-488.000,-221.000,-225.000,NA,0.000,0
2026-01-30 22:20:40,2974564,5955.000,-2417.000,6205.000,-592.000,-316.000,-129.000,NA,0.000,0
2026-01-30 22:20:40,2974604,5045.000,-1564.000,7063.000,-419.000,320.000,-587.000,NA,0.000,0
2026-01-30 22:20:40,2974644,5627.000,-1875.000,6188.000,-578.000,294.000,-228.000,NA,0.000,0
2026-01-30 22:20:40,2974684,6030.000,-1862.000,5955.000,-474.000,328.000,-43.000,NA,0.000,0
2026-01-30 22:20:40,2974724,5391.000,-1481.000,5255.000,-545.000,210.000,-306.000,NA,0.000,0
2026-01-30 22:20:40,2974764,6317.000,-2356.000,5186.000,-822.000,180.000,-148.000,NA,0.000,0
2026-01-30 22:20:40,2974804,6191.000,-2337.000,6090.000,-525.000,10.000,-230.000,NA,0.000,0
2026-01-30 22:20:40,2974844,6442.000,-2507.000,5716.000,-412.000,26.000,-148.000,NA,0.000,0
2026-01-30 22:20:40,2974884,6686.000,-2209.000,5238.000,-132.000,263.000,-548.000,NA,0.000,0
2026-01-30 22:20:40,2974924,5393.000,-1837.000,6860.000,116.000,3.000,-621.000,NA,0.000,0
2026-01-30 22:20:40,2974964,5068.000,-2354.000,6309.000,-293.000,-377.000,-450.000,NA,0.000,0
2026-01-30 22:20:40,2975004,6302.000,-2599.000,6081.000,-265.000,82.000,-382.000,NA,0.000,0
2026-01-30 22:20:40,2975044,5056.000,-1866.000,6168.000,273.000,295.000,-279.000,NA,0.000,0
2026-01-30 22:20:40,2975084,6344.000,-1641.000,5749.000,-332.000,224.000,-331.000,NA,0.000,0
2026-01-30 22:20:40,2975124,5035.000,-1776.000,6523.000,-81.000,126.000,-417.000,NA,0.000,0
2026-01-30 22:20:40,2975164,5992.000,-1866.000,4664.000,-285.000,-183.000,-251.000,NA,0.000,0
2026-01-30 22:20:40,2975204,5704.000,-1947.000,5437.000,-77.000,7.000,-424.000,NA,0.000,0
2026-01-30 22:20:40,2975244,6682.000,-1945.000,4727.000,-366.000,6.000,-270.000,NA,0.000,0
2026-01-30 22:20:41,2975284,6117.000,-1548.000,4873.000,78.000,186.000,-226.000,NA,0.000,0
2026-01-30 22:20:41,2975324,7180.000,-1949.000,5217.000,59.000,139.000,-185.000,NA,0.000,0
2026-01-30 22:20:41,2975364,8201.000,-1682.000,5099.000,75.000,355.000,-506.000,NA,0.000,0
2026-01-30 22:20:41,2975404,5289.000,-2153.000,6328.000,165.000,604.000,-887.000,NA,0.000,0
2026-01-30 22:20:41,2975444,6603.000,-539.000,5603.000,-195.000,170.000,-300.000,NA,0.000,0
2026-01-30 22:20:41,2975484,5896.000,-1820.000,6035.000,-581.000,437.000,-30.000,NA,0.000,0
2026-01-30 22:20:41,2975524,5052.000,-1727.000,4721.000,-207.000,526.000,531.000,NA,0.000,0
2026-01-30 22:20:41,2975564,6032.000,-2246.000,5220.000,726.000,701.000,721.000,NA,0.000,0
2026-01-30 22:20:41,2975604,5613.000,-1729.000,6986.000,885.000,178.000,351.000,NA,0.000,0
2026-01-30 22:20:41,2975644,6430.000,-2629.000,5793.000,-355.000,-230.000,330.000,NA,0.000,0
2026-01-30 22:20:41,2975684,4839.000,-1318.000,6658.000,-52.000,-392.000,85.000,NA,0.000,0
2026-01-30 22:20:41,2975724,6193.000,-2593.000,5336.000,-740.000,-322.000,229.000,NA,0.000,0
2026-01-30 22:20:41,2975764,6079.000,-1572.000,6369.000,-16.000,-119.000,-59.000,NA,0.000,0
2026-01-30 22:20:41,2975804,5859.000,-1502.000,6313.000,-722.000,-431.000,-425.000,NA,0.000,0
2026-01-30 22:20:41,2975844,4651.000,-1698.000,5906.000,-769.000,-274.000,-196.000,NA,0.000,0
2026-01-30 22:20:41,2975884,4720.000,-2055.000,5561.000,-519.000,-4.000,313.000,NA,0.000,0
2026-01-30 22:20:41,2975925,6558.000,-2600.000,5352.000,-659.000,760.000,342.000,NA,0.000,0
2026-01-30 22:20:41,2975964,5878.000,-1274.000,5674.000,-791.000,655.000,168.000,NA,0.000,0
2026-01-30 22:20:41,2976004,6276.000,-1899.000,4915.000,-870.000,256.000,88.000,NA,0.000,0
2026-01-30 22:20:41,2976044,5881.000,-1794.000,6291.000,-766.000,-164.000,-115.000,NA,0.000,0
2026-01-30 22:20:41,2976084,6070.000,-1443.000,5059.000,-968.000,-367.000,-340.000,NA,0.000,0
2026-01-30 22:20:41,2976124,5501.000,-2530.000,5948.000,-819.000,-184.000,-288.000,NA,0.000,0
2026-01-30 22:20:41,2976164,5364.000,-2107.000,5555.000,-596.000,-9.000,-43.000,NA,0.000,0
2026-01-30 22:20:41,2976204,5665.000,-2190.000,5718.000,-534.000,328.000,-29.000,NA,0.000,0
2026-01-30 22:20:41,2976244,6023.000,-2630.000,6405.000,-713.000,264.000,130.000,NA,0.000,0
2026-01-30 22:20:42,2976284,5652.000,-1503.000,6164.000,-1048.000,251.000,-335.000,NA,0.000,0
2026-01-30 22:20:42,2976324,5187.000,-2482.000,5994.000,-1556.000,99.000,-320.000,NA,0.000,0
2026-01-30 22:20:42,2976364,6107.000,-2083.000,5765.000,-1388.000,136.000,-397.000,NA,0.000,0
2026-01-30 22:20:42,2976404,5512.000,-1864.000,5646.000,-1227.000,319.000,-376.000,NA,0.000,0
2026-01-30 22:20:42,2976444,4542.000,-2055.000,5663.000,-1183.000,450.000,-575.000,NA,0.000,0
2026-01-30 22:20:42,2976484,7073.000,-3218.000,5549.000,-1705.000,508.000,-328.000,NA,0.000,0
2026-01-30 22:20:42,2976524,5239.000,-2112.000,5726.000,-595.000,494.000,-668.000,NA,0.000,0
2026-01-30 22:20:42,2976564,5766.000,-2364.000,5331.000,-1035.000,-69.000,-769.000,NA,0.000,0
2026-01-30 22:20:42,2976604,6001.000,-2824.000,5562.000,-1094.000,155.000,-716.000,NA,0.000,0
2026-01-30 22:20:42,2976644,5584.000,-2133.000,5396.000,-736.000,213.000,-976.000,NA,0.000,0
2026-01-30 22:20:42,2976684,6515.000,-2515.000,4822.000,-626.000,146.000,-597.000,NA,0.000,0
2026-01-30 22:20:42,2976724,6964.000,-2470.000,5095.000,-430.000,588.000,-862.000,NA,0.000,0
2026-01-30 22:20:42,2976764,5071.000,-2255.000,5411.000,8.000,296.000,-897.000,NA,0.000,0
2026-01-30 22:20:42,2976804,5345.000,-2854.000,5197.000,-319.000,-19.000,-628.000,NA,0.000,0
2026-01-30 22:20:42,2976844,6111.000,-3356.000,5241.000,-207.000,174.000,-545.000,NA,0.000,0
2026-01-30 22:20:42,2976884,5562.000,-2531.000,5461.000,365.000,302.000,-678.000,NA,0.000,0
2026-01-30 22:20:42,2976924,5428.000,-2343.000,5603.000,20.000,276.000,-750.000,NA,0.000,0
2026-01-30 22:20:42,2976964,5858.000,-2400.000,5748.000,83.000,319.000,-673.000,NA,0.000,0
2026-01-30 22:20:42,2977004,6088.000,-2192.000,6244.000,194.000,293.000,-808.000,NA,0.000,0
2026-01-30 22:20:42,2977044,5645.000,-3030.000,5840.000,-612.000,378.000,-816.000,NA,0.000,0
2026-01-30 22:20:42,2977084,6130.000,-1971.000,5155.000,-235.000,324.000,-390.000,NA,0.000,0
2026-01-30 22:20:42,2977124,5287.000,-2718.000,6216.000,-57.000,517.000,-429.000,NA,0.000,0
2026-01-30 22:20:42,2977164,5785.000,-2140.000,5188.000,-262.000,374.000,-365.000,NA,0.000,0
2026-01-30 22:20:42,2977204,6756.000,-1340.000,4948.000,251.000,141.000,-361.000,NA,0.000,0
2026-01-30 22:20:42,2977244,5518.000,-3019.000,5316.000,117.000,486.000,-559.000,NA,0.000,0
2026-01-30 22:20:43,2977284,5541.000,-2018.000,5044.000,392.000,426.000,-695.000,NA,0.000,0
2026-01-30 22:20:43,2977324,5649.000,-3197.000,5679.000,168.000,549.000,-587.000,NA,0.000,0
2026-01-30 22:20:43,2977364,5760.000,-1863.000,5003.000,925.000,405.000,-448.000,NA,0.000,0
2026-01-30 22:20:43,2977404,5884.000,-2926.000,6475.000,463.000,256.000,-324.000,NA,0.000,0
2026-01-30 22:20:43,2977444,6186.000,-1509.000,5888.000,282.000,-2.000,-417.000,NA,0.000,0
2026-01-30 22:20:43,2977484,5481.000,-3398.000,6021.000,-505.000,-59.000,-398.000,NA,0.000,0
2026-01-30 22:20:43,2977524,5481.000,-1146.000,6226.000,217.000,-200.000,-285.000,NA,0.000,0
2026-01-30 22:20:43,2977564,5988.000,-2354.000,5717.000,58.000,100.000,119.000,NA,0.000,0
2026-01-30 22:20:43,2977604,3331.000,-2270.000,5601.000,826.000,119.000,105.000,NA,0.000,0
2026-01-30 22:20:43,2977644,8627.000,-2900.000,5598.000,-834.000,409.000,189.000,NA,0.000,0
2026-01-30 22:20:43,2977684,5105.000,-2002.000,6102.000,636.000,-198.000,-439.000,NA,0.000,0
2026-01-30 22:20:43,2977724,5521.000,-2023.000,5429.000,-324.000,-329.000,-378.000,NA,0.000,0
2026-01-30 22:20:43,2977764,5898.000,-2250.000,5290.000,-112.000,-116.000,-119.000,NA,0.000,0
2026-01-30 22:20:43,2977804,5382.000,-2463.000,5486.000,35.000,597.000,-312.000,NA,0.000,0
2026-01-30 22:20:43,2977844,6120.000,-2499.000,5834.000,358.000,128.000,-111.000,NA,0.000,0
2026-01-30 22:20:43,2977884,5504.000,-1851.000,5358.000,266.000,-374.000,-152.000,NA,0.000,0
2026-01-30 22:20:43,2977925,6200.000,-1975.000,5357.000,-312.000,-241.000,-372.000,NA,0.000,0
2026-01-30 22:20:43,2977964,4550.000,-1657.000,5338.000,117.000,-75.000,-418.000,NA,0.000,0
2026-01-30 22:20:43,2978004,6345.000,-2908.000,5323.000,-126.000,517.000,-59.000,NA,0.000,0
2026-01-30 22:20:43,2978044,5314.000,-2231.000,5916.000,762.000,677.000,-89.000,NA,0.000,0
2026-01-30 22:20:43,2978084,4817.000,-2686.000,6848.000,320.000,170.000,-207.000,NA,0.000,0
2026-01-30 22:20:43,2978127,6605.000,-312.000,4549.000,597.000,-195.000,-268.000,NA,0.000,0
2026-01-30 22:20:43,2978164,5218.000,-2220.000,6695.000,683.000,-308.000,-583.000,NA,0.000,0
2026-01-30 22:20:43,2978204,5477.000,-2164.000,5306.000,278.000,-221.000,-700.000,NA,0.000,0
2026-01-30 22:20:43,2978244,5099.000,-2959.000,5070.000,778.000,464.000,-123.000,NA,0.000,0
2026-01-30 22:20:44,2978284,6256.000,-2661.000,6125.000,659.000,811.000,-253.000,NA,0.000,0
2026-01-30 22:20:44,2978324,5575.000,-1572.000,5556.000,1085.000,556.000,-215.000,NA,0.000,0
2026-01-30 22:20:44,2978364,5999.000,-2183.000,5515.000,770.000,-1.000,-2.000,NA,0.000,0
2026-01-30 22:20:44,2978404,7298.000,-1572.000,4802.000,807.000,-317.000,-18.000,NA,0.000,0
2026-01-30 22:20:44,2978444,4542.000,-989.000,5719.000,1530.000,-294.000,-407.000,NA,0.000,0
2026-01-30 22:20:44,2978484,6740.000,-2245.000,4574.000,727.000,1.000,-80.000,NA,0.000,0
2026-01-30 22:20:44,2978524,4024.000,-2198.000,5347.000,1708.000,225.000,-164.000,NA,0.000,0
2026-01-30 22:20:44,2978564,10004.000,-1301.000,4802.000,1148.000,337.000,149.000,NA,0.000,0
2026-01-30 22:20:44,2978604,6733.000,-1264.000,4968.000,2597.000,29.000,21.000,NA,0.000,0
2026-01-30 22:20:44,2978644,7099.000,-1322.000,5192.000,2417.000,-222.000,-233.000,NA,0.000,0
2026-01-30 22:20:44,2978684,5888.000,-1742.000,5933.000,2784.000,-488.000,-75.000,NA,0.000,0
2026-01-30 22:20:44,2978724,6257.000,-1479.000,5619.000,2623.000,-492.000,51.000,NA,0.000,0
2026-01-30 22:20:44,2978764,6405.000,-430.000,6473.000,2917.000,-422.000,513.000,NA,0.000,0
2026-01-30 22:20:44,2978804,4973.000,-3034.000,6620.000,2190.000,92.000,975.000,NA,0.000,0
2026-01-30 22:20:44,2978844,7332.000,1255.000,5204.000,2306.000,5.000,1388.000,NA,0.000,0
2026-01-30 22:20:44,2978884,4640.000,-1518.000,6969.000,1865.000,175.000,1200.000,NA,0.000,0
2026-01-30 22:20:44,2978924,6837.000,-1297.000,5571.000,604.000,383.000,1472.000,NA,0.000,0
2026-01-30 22:20:44,2978964,5597.000,-796.000,5688.000,1352.000,611.000,1487.000,NA,0.000,0
2026-01-30 22:20:44,2979004,6273.000,-1124.000,6391.000,684.000,60.000,1369.000,NA,0.000,0
2026-01-30 22:20:44,2979044,6205.000,-304.000,5417.000,612.000,-472.000,1177.000,NA,0.000,0
2026-01-30 22:20:44,2979084,6011.000,-30.000,4828.000,819.000,-534.000,1176.000,NA,0.000,0
2026-01-30 22:20:44,2979124,6831.000,-1902.000,5032.000,496.000,106.000,1182.000,NA,0.000,0
2026-01-30 22:20:44,2979164,5118.000,-1471.000,6486.000,1110.000,199.000,786.000,NA,0.000,0
2026-01-30 22:20:44,2979204,6643.000,-788.000,4143.000,921.000,98.000,906.000,NA,0.000,0
2026-01-30 22:20:44,2979244,5590.000,-1622.000,5901.000,1495.000,-264.000,1218.000,NA,0.000,0
2026-01-30 22:20:45,2979284,6497.000,-1694.000,5692.000,1069.000,-46.000,1129.000,NA,0.000,0
2026-01-30 22:20:45,2979324,5849.000,-821.000,5186.000,1381.000,-150.000,920.000,NA,0.000,0
2026-01-30 22:20:45,2979364,4528.000,-1925.000,5527.000,1019.000,-72.000,1070.000,NA,0.000,0
2026-01-30 22:20:45,2979404,6247.000,-347.000,4611.000,1834.000,-408.000,1202.000,NA,0.000,0
2026-01-30 22:20:45,2979444,6026.000,-4035.000,4991.000,1368.000,295.000,1139.000,NA,0.000,0
2026-01-30 22:20:45,2979484,6091.000,-1181.000,6397.000,1839.000,84.000,1251.000,NA,0.000,0
2026-01-30 22:20:45,2979524,6238.000,-585.000,6405.000,1738.000,115.000,1267.000,NA,0.000,0
2026-01-30 22:20:45,2979564,5366.000,-1352.000,5921.000,1772.000,-77.000,1703.000,NA,0.000,0
2026-01-30 22:20:45,2979604,7068.000,-1116.000,5237.000,1245.000,-135.000,1707.000,NA,0.000,0
2026-01-30 22:20:45,2979644,6615.000,-1116.000,6398.000,1065.000,-44.000,1447.000,NA,0.000,0
2026-01-30 22:20:45,2979684,5288.000,-511.000,6255.000,857.000,235.000,1636.000,NA,0.000,0
2026-01-30 22:20:45,2979724,4523.000,-993.000,5908.000,849.000,76.000,1914.000,NA,0.000,0
2026-01-30 22:20:45,2979764,6281.000,-2470.000,5829.000,226.000,394.000,1949.000,NA,0.000,0
2026-01-30 22:20:45,2979804,5620.000,-314.000,6740.000,621.000,132.000,1795.000,NA,0.000,0
2026-01-30 22:20:45,2979844,6376.000,272.000,5552.000,333.000,-1.000,1716.000,NA,0.000,0
2026-01-30 22:20:45,2979884,6008.000,-1272.000,5928.000,-138.000,221.000,1531.000,NA,0.000,0
2026-01-30 22:20:45,2979927,4844.000,-887.000,6354.000,-969.000,70.000,1239.000,NA,0.000,0
2026-01-30 22:20:45,2979966,5539.000,-606.000,7167.000,-1779.000,107.000,1499.000,NA,0.000,0
2026-01-30 22:20:45,2980004,4519.000,-502.000,6916.000,-1721.000,351.000,1416.000,NA,0.000,0
2026-01-30 22:20:45,2980044,5689.000,1927.000,6097.000,-1305.000,83.000,1170.000,NA,0.000,0
2026-01-30 22:20:45,2980084,4467.000,-3878.000,5787.000,-2718.000,721.000,873.000,NA,0.000,0
2026-01-30 22:20:45,2980126,5466.000,-1561.000,5510.000,-1986.000,101.000,662.000,NA,0.000,0
2026-01-30 22:20:45,2980164,5773.000,-1648.000,6359.000,-1630.000,85.000,543.000,NA,0.000,0
2026-01-30 22:20:45,2980204,5346.000,-1167.000,6090.000,-1346.000,-114.000,476.000,NA,0.000,0
2026-01-30 22:20:45,2980244,4970.000,-1257.000,5595.000,-1597.000,-208.000,599.000,NA,0.000,0
2026-01-30 22:20:46,2980284,5632.000,-3252.000,6363.000,-2095.000,-77.000,451.000,NA,0.000,0
2026-01-30 22:20:46,2980324,5478.000,-926.000,5587.000,-1537.000,-147.000,328.000,NA,0.000,0
2026-01-30 22:20:46,2980364,5683.000,-1604.000,4943.000,-1586.000,51.000,249.000,NA,0.000,0
2026-01-30 22:20:46,2980404,5074.000,-2377.000,6612.000,-1223.000,-91.000,323.000,NA,0.000,0
2026-01-30 22:20:46,2980444,5997.000,-1286.000,5506.000,-1458.000,-180.000,89.000,NA,0.000,0
2026-01-30 22:20:46,2980484,5736.000,-2364.000,5581.000,-1153.000,14.000,166.000,NA,0.000,0
2026-01-30 22:20:46,2980524,6115.000,-1343.000,5447.000,-1163.000,-338.000,-136.000,NA,0.000,0
2026-01-30 22:20:46,2980564,5721.000,-2219.000,5077.000,-1336.000,-200.000,-244.000,NA,0.000,0
2026-01-30 22:20:46,2980604,5741.000,-1889.000,5401.000,-768.000,-189.000,-109.000,NA,0.000,0
2026-01-30 22:20:46,2980644,5947.000,-1315.000,5810.000,-1031.000,-51.000,-219.000,NA,0.000,0
2026-01-30 22:20:46,2980684,5796.000,-1680.000,6436.000,-1566.000,245.000,-471.000,NA,0.000,0
2026-01-30 22:20:46,2980724,5075.000,-1920.000,6751.000,-1776.000,447.000,-472.000,NA,0.000,0
2026-01-30 22:20:46,2980764,4176.000,-1327.000,5804.000,-2018.000,271.000,-398.000,NA,0.000,0
2026-01-30 22:20:46,2980804,6337.000,-2094.000,5994.000,-2564.000,535.000,-288.000,NA,0.000,0
2026-01-30 22:20:46,2980844,5006.000,-2112.000,7065.000,-2034.000,740.000,-450.000,NA,0.000,0
2026-01-30 22:20:46,2980884,6094.000,-1674.000,4904.000,-2758.000,987.000,-738.000,NA,0.000,0
2026-01-30 22:20:46,2980924,5949.000,-2559.000,6402.000,-2065.000,1103.000,-807.000,NA,0.000,0
2026-01-30 22:20:46,2980964,5766.000,-1888.000,5557.000,-2278.000,976.000,-1253.000,NA,0.000,0
2026-01-30 22:20:46,2981004,5806.000,-2046.000,5594.000,-2241.000,584.000,-1186.000,NA,0.000,0
2026-01-30 22:20:46,2981044,5773.000,-2415.000,5019.000,-2114.000,769.000,-1175.000,NA,0.000,0
2026-01-30 22:20:46,2981084,6147.000,-2689.000,4978.000,-1217.000,1023.000,-950.000,NA,0.000,0
2026-01-30 22:20:46,2981124,5440.000,-2392.000,5980.000,-1440.000,702.000,-1030.000,NA,0.000,0
2026-01-30 22:20:46,2981164,5698.000,-2318.000,5487.000,-1825.000,877.000,-984.000,NA,0.000,0
2026-01-30 22:20:46,2981204,5675.000,-2884.000,6321.000,-1720.000,908.000,-917.000,NA,0.000,0
2026-01-30 22:20:46,2981244,5765.000,-2230.000,6352.000,-1739.000,746.000,-910.000,NA,0.000,0
2026-01-30 22:20:47,2981284,5211.000,-2557.000,5826.000,-1831.000,734.000,-1191.000,NA,0.000,0
2026-01-30 22:20:47,2981324,6011.000,-3391.000,7448.000,-2150.000,1413.000,-1125.000,NA,0.000,0
2026-01-30 22:20:47,2981364,4284.000,149.000,6125.000,-2022.000,1260.000,-1301.000,NA,0.000,0
2026-01-30 22:20:47,2981404,7653.000,-2276.000,5042.000,-2575.000,1255.000,-908.000,NA,0.000,0
2026-01-30 22:20:47,2981444,5705.000,-2600.000,5522.000,-2181.000,1196.000,-1786.000,NA,0.000,0
2026-01-30 22:20:47,2981484,6484.000,-2583.000,3188.000,-2576.000,869.000,-1658.000,NA,0.000,0
2026-01-30 22:20:47,2981524,6392.000,-3146.000,4868.000,-1429.000,1297.000,-1286.000,NA,0.000,0
2026-01-30 22:20:47,2981564,6226.000,-2744.000,3982.000,-969.000,1120.000,-1948.000,NA,0.000,0
2026-01-30 22:20:47,2981604,5324.000,-4057.000,4345.000,189.000,419.000,-1285.000,NA,0.000,0
2026-01-30 22:20:47,2981644,5950.000,-2063.000,4455.000,344.000,230.000,-1206.000,NA,0.000,0
2026-01-30 22:20:47,2981684,5796.000,-1801.000,4979.000,664.000,515.000,-1105.000,NA,0.000,0
2026-01-30 22:20:47,2981724,5837.000,-2519.000,7084.000,356.000,470.000,-1213.000,NA,0.000,0
2026-01-30 22:20:47,2981764,4561.000,-1492.000,6593.000,134.000,558.000,-1067.000,NA,0.000,0
2026-01-30 22:20:47,2981804,5134.000,-3337.000,6942.000,-671.000,961.000,-754.000,NA,0.000,0
2026-01-30 22:20:47,2981844,4283.000,-1865.000,7378.000,-1029.000,1234.000,-691.000,NA,0.000,0
2026-01-30 22:20:47,2981886,5333.000,-1194.000,8185.000,-1567.000,920.000,-180.000,NA,0.000,0
2026-01-30 22:20:47,2981925,5373.000,-1847.000,7398.000,-2401.000,1403.000,-830.000,NA,0.000,0
2026-01-30 22:20:47,2981967,5213.000,-230.000,4468.000,-3235.000,2296.000,-1306.000,NA,0.000,0
2026-01-30 22:20:47,2982004,5900.000,-1152.000,3652.000,-2644.000,2005.000,-1539.000,NA,0.000,0
2026-01-30 22:20:47,2982044,6409.000,-3343.000,3689.000,-1876.000,1334.000,-1586.000,NA,0.000,0
2026-01-30 22:20:47,2982084,5150.000,-2384.000,3665.000,-1165.000,810.000,-1873.000,NA,0.000,0
2026-01-30 22:20:47,2982127,5845.000,-3456.000,5244.000,536.000,788.000,-1518.000,NA,0.000,0
2026-01-30 22:20:47,2982166,4926.000,-2876.000,5479.000,178.000,844.000,-1679.000,NA,0.000,0
2026-01-30 22:20:47,2982204,4885.000,-2861.000,6159.000,607.000,506.000,-1218.000,NA,0.000,0
2026-01-30 22:20:47,2982244,4537.000,-3318.000,6679.000,585.000,565.000,-662.000,NA,0.000,0
2026-01-30 22:20:48,2982284,5906.000,-2416.000,6597.000,-437.000,557.000,-620.000,NA,0.000,0
2026-01-30 22:20:48,2982324,5166.000,-2621.000,6742.000,-908.000,935.000,-863.000,NA,0.000,0
2026-01-30 22:20:48,2982364,4534.000,-1178.000,6960.000,-1185.000,693.000,-908.000,NA,0.000,0
2026-01-30 22:20:48,2982404,7521.000,-3058.000,7259.000,-2198.000,1488.000,-1024.000,NA,0.000,0
2026-01-30 22:20:48,2982444,8287.000,-4018.000,6034.000,-1725.000,630.000,-586.000,NA,0.000,0
2026-01-30 22:20:48,2982484,5338.000,-2075.000,5212.000,-857.000,970.000,-854.000,NA,0.000,0
2026-01-30 22:20:48,2982524,4124.000,-2219.000,6172.000,-1365.000,774.000,-1300.000,NA,0.000,0
2026-01-30 22:20:48,2982564,8865.000,-3821.000,4882.000,-1825.000,795.000,-876.000,NA,0.000,0
2026-01-30 22:20:48,2982604,5072.000,-1610.000,6358.000,-1034.000,581.000,-1286.000,NA,0.000,0
2026-01-30 22:20:48,2982644,6346.000,-2982.000,5724.000,-1319.000,379.000,-1266.000,NA,0.000,0
2026-01-30 22:20:48,2982684,5056.000,-2560.000,6122.000,-935.000,815.000,-1385.000,NA,0.000,0
2026-01-30 22:20:48,2982724,6577.000,-2990.000,6205.000,-964.000,616.000,-1087.000,NA,0.000,0
2026-01-30 22:20:48,2982764,3738.000,-2457.000,6955.000,-11.000,827.000,-1078.000,NA,0.000,0
2026-01-30 22:20:48,2982804,6034.000,-1675.000,4731.000,-194.000,508.000,-780.000,NA,0.000,0
2026-01-30 22:20:48,2982844,3681.000,-3103.000,7069.000,-758.000,762.000,-814.000,NA,0.000,0
2026-01-30 22:20:48,2982884,5481.000,-2375.000,6233.000,-954.000,759.000,-408.000,NA,0.000,0
2026-01-30 22:20:48,2982924,7802.000,-2526.000,6407.000,-1648.000,705.000,-631.000,NA,0.000,0
2026-01-30 22:20:48,2982964,3129.000,-1014.000,8866.000,-1008.000,1023.000,-1645.000,NA,0.000,0
2026-01-30 22:20:48,2983004,5758.000,-4655.000,3771.000,-2891.000,501.000,-887.000,NA,0.000,0
2026-01-30 22:20:48,2983044,5150.000,-1953.000,7420.000,-1509.000,57.000,-1370.000,NA,0.000,0
2026-01-30 22:20:48,2983084,5381.000,-1516.000,5752.000,-1797.000,460.000,-1564.000,NA,0.000,0
2026-01-30 22:20:48,2983124,5176.000,-2119.000,6223.000,-1429.000,819.000,-1220.000,NA,0.000,0
2026-01-30 22:20:48,2983164,9318.000,-3237.000,5475.000,-944.000,542.000,-502.000,NA,0.000,0
2026-01-30 22:20:48,2983204,5053.000,-1379.000,5374.000,267.000,944.000,-1561.000,NA,0.000,0
2026-01-30 22:20:48,2983244,3072.000,-2316.000,7054.000,321.000,680.000,-1707.000,NA,0.000,0
2026-01-30 22:20:49,2983284,6743.000,-3644.000,6318.000,-909.000,364.000,-1210.000,NA,0.000,0
2026-01-30 22:20:49,2983324,3367.000,-1497.000,6368.000,1890.000,348.000,-1193.000,NA,0.000,0
2026-01-30 22:20:49,2983364,7949.000,-3258.000,5809.000,-737.000,-20.000,-647.000,NA,0.000,0
2026-01-30 22:20:49,2983404,4666.000,-1030.000,6552.000,255.000,273.000,-1479.000,NA,0.000,0
2026-01-30 22:20:49,2983444,7458.000,-3289.000,7149.000,-1686.000,914.000,-1401.000,NA,0.000,0
2026-01-30 22:20:49,2983484,2401.000,643.000,6727.000,650.000,853.000,-1028.000,NA,0.000,0
2026-01-30 22:20:49,2983524,4669.000,-2708.000,5439.000,-591.000,-81.000,-642.000,NA,0.000,0
2026-01-30 22:20:49,2983564,1628.000,-2561.000,6091.000,-313.000,823.000,-1395.000,NA,0.000,0
2026-01-30 22:20:49,2983604,5987.000,-3629.000,4970.000,-2095.000,-307.000,-810.000,NA,0.000,0
2026-01-30 22:20:49,2983644,5825.000,-344.000,6342.000,-1118.000,-489.000,-893.000,NA,0.000,0
2026-01-30 22:20:49,2983684,3177.000,-1878.000,5304.000,-929.000,-34.000,-668.000,NA,0.000,0
2026-01-30 22:20:49,2983724,7540.000,-3668.000,5807.000,-1796.000,767.000,49.000,NA,0.000,0
2026-01-30 22:20:49,2983764,4162.000,-1120.000,5118.000,1209.000,769.000,158.000,NA,0.000,0
2026-01-30 22:20:49,2983804,6472.000,-3198.000,7319.000,-339.000,192.000,276.000,NA,0.000,0
2026-01-30 22:20:49,2983844,5672.000,-2028.000,6921.000,-1320.000,-172.000,-517.000,NA,0.000,0
2026-01-30 22:20:49,2983884,5572.000,-1463.000,4809.000,-1072.000,-469.000,-225.000,NA,0.000,0
2026-01-30 22:20:49,2983925,8909.000,-3667.000,6497.000,-830.000,439.000,69.000,NA,0.000,0
2026-01-30 22:20:49,2983964,7401.000,-3839.000,5171.000,-628.000,-826.000,609.000,NA,0.000,0
2026-01-30 22:20:49,2984004,5460.000,-1434.000,5588.000,1124.000,-654.000,824.000,NA,0.000,0
2026-01-30 22:20:49,2984044,6062.000,-2268.000,5283.000,-26.000,-732.000,306.000,NA,0.000,0
2026-01-30 22:20:49,2984084,6220.000,-2026.000,5663.000,-718.000,-499.000,354.000,NA,0.000,0
2026-01-30 22:20:49,2984124,5520.000,-2330.000,5997.000,-1314.000,-32.000,-401.000,NA,0.000,0
2026-01-30 22:20:49,2984164,5629.000,-1736.000,4574.000,-712.000,210.000,-448.000,NA,0.000,0
2026-01-30 22:20:49,2984204,4478.000,-2025.000,6468.000,-804.000,436.000,-616.000,NA,0.000,0
2026-01-30 22:20:49,2984244,7011.000,-3843.000,4622.000,-1281.000,458.000,-769.000,NA,0.000,0
2026-01-30 22:20:50,2984284,6542.000,-2976.000,4725.000,-241.000,232.000,-548.000,NA,0.000,0
2026-01-30 22:20:50,2984324,6286.000,-3286.000,4472.000,-502.000,-416.000,-1399.000,NA,0.000,0
2026-01-30 22:20:50,2984364,6079.000,-3211.000,4479.000,549.000,-26.000,-803.000,NA,0.000,0
2026-01-30 22:20:50,2984404,5420.000,-2964.000,4924.000,1038.000,-29.000,-1022.000,NA,0.000,0
2026-01-30 22:20:50,2984444,5726.000,-4021.000,5237.000,1269.000,-82.000,-777.000,NA,0.000,0
2026-01-30 22:20:50,2984484,6196.000,-3274.000,6671.000,962.000,-152.000,-486.000,NA,0.000,0
2026-01-30 22:20:50,2984524,5592.000,-1261.000,5079.000,511.000,-336.000,-719.000,NA,0.000,0
2026-01-30 22:20:50,2984564,6821.000,-2370.000,5411.000,448.000,10.000,-169.000,NA,0.000,0
2026-01-30 22:20:50,2984604,4669.000,-2224.000,6293.000,816.000,-188.000,-133.000,NA,0.000,0
2026-01-30 22:20:50,2984644,6052.000,-2124.000,4876.000,5.000,147.000,-179.000,NA,0.000,0
2026-01-30 22:20:50,2984684,5118.000,-2489.000,6648.000,-41.000,748.000,-375.000,NA,0.000,0
2026-01-30 22:20:50,2984724,6705.000,-1799.000,5990.000,-956.000,602.000,-398.000,NA,0.000,0
2026-01-30 22:20:50,2984764,4384.000,-964.000,6445.000,-519.000,303.000,-380.000,NA,0.000,0
2026-01-30 22:20:50,2984804,6441.000,-2611.000,4981.000,-1443.000,520.000,-79.000,NA,0.000,0
2026-01-30 22:20:50,2984844,6325.000,-2182.000,6132.000,-1265.000,938.000,-278.000,NA,0.000,0
2026-01-30 22:20:50,2984884,5795.000,-452.000,4064.000,-1189.000,676.000,-819.000,NA,0.000,0
2026-01-30 22:20:50,2984924,6250.000,-2166.000,5053.000,-834.000,438.000,-362.000,NA,0.000,0
2026-01-30 22:20:50,2984964,5734.000,-1838.000,5517.000,-410.000,483.000,-727.000,NA,0.000,0
2026-01-30 22:20:50,2985004,6006.000,-2220.000,3628.000,71.000,497.000,-689.000,NA,0.000,0
2026-01-30 22:20:50,2985044,7085.000,-3632.000,5066.000,380.000,945.000,-504.000,NA,0.000,0
2026-01-30 22:20:50,2985084,6143.000,-3178.000,5741.000,718.000,-489.000,-935.000,NA,0.000,0
2026-01-30 22:20:50,2985124,5184.000,-2546.000,5947.000,-38.000,-322.000,-457.000,NA,0.000,0
2026-01-30 22:20:50,2985164,6397.000,-65.000,3871.000,-163.000,-221.000,-448.000,NA,0.000,0
2026-01-30 22:20:50,2985204,6315.000,-2702.000,5725.000,445.000,285.000,-278.000,NA,0.000,0
2026-01-30 22:20:50,2985244,4873.000,-2152.000,6774.000,99.000,154.000,-516.000,NA,0.000,0
2026-01-30 22:20:51,2985284,6188.000,-2664.000,4412.000,-355.000,-135.000,-62.000,NA,0.000,0
2026-01-30 22:20:51,2985324,6515.000,-2976.000,5934.000,-53.000,228.000,80.000,NA,0.000,0
2026-01-30 22:20:51,2985364,5205.000,-1193.000,4850.000,336.000,-139.000,-413.000,NA,0.000,0
2026-01-30 22:20:51,2985404,6719.000,-2053.000,4723.000,-76.000,-257.000,-515.000,NA,0.000,0
2026-01-30 22:20:51,2985444,5228.000,-1705.000,6317.000,392.000,-136.000,-536.000,NA,0.000,0
2026-01-30 22:20:51,2985484,6234.000,-1922.000,4415.000,-5.000,-132.000,-614.000,NA,0.000,0
2026-01-30 22:20:51,2985524,6252.000,-1514.000,4106.000,289.000,-63.000,-546.000,NA,0.000,0
2026-01-30 22:20:51,2985564,7391.000,-3255.000,4135.000,1116.000,-25.000,-450.000,NA,0.000,0
2026-01-30 22:20:51,2985604,5835.000,-2164.000,4208.000,1575.000,-523.000,-897.000,NA,0.000,0
2026-01-30 22:20:51,2985644,6294.000,-2968.000,6922.000,1976.000,-625.000,-1237.000,NA,0.000,0
2026-01-30 22:20:51,2985684,5935.000,-3667.000,4274.000,1864.000,-1143.000,-79.000,NA,0.000,0
2026-01-30 22:20:51,2985724,6852.000,-2971.000,5942.000,1848.000,-247.000,-566.000,NA,0.000,0
2026-01-30 22:20:51,2985764,5940.000,-717.000,6990.000,2480.000,-539.000,-611.000,NA,0.000,0
2026-01-30 22:20:51,2985804,4568.000,-2213.000,7288.000,1383.000,-357.000,-375.000,NA,0.000,0
2026-01-30 22:20:51,2985844,5157.000,-2581.000,7272.000,358.000,369.000,17.000,NA,0.000,0
2026-01-30 22:20:51,2985887,6951.000,-1567.000,4929.000,-733.000,421.000,192.000,NA,0.000,0
2026-01-30 22:20:51,2985926,5218.000,-2221.000,4560.000,535.000,192.000,121.000,NA,0.000,0
2026-01-30 22:20:51,2985964,5512.000,-1870.000,4035.000,534.000,359.000,278.000,NA,0.000,0
2026-01-30 22:20:51,2986004,8422.000,-2168.000,3983.000,610.000,516.000,623.000,NA,0.000,0
2026-01-30 22:20:51,2986044,6331.000,-865.000,6555.000,1980.000,415.000,172.000,NA,0.000,0
2026-01-30 22:20:51,2986084,5261.000,-1376.000,5302.000,1098.000,24.000,-55.000,NA,0.000,0
2026-01-30 22:20:51,2986127,5699.000,-1148.000,6778.000,798.000,-546.000,656.000,NA,0.000,0
2026-01-30 22:20:51,2986164,6617.000,-113.000,6894.000,743.000,-267.000,570.000,NA,0.000,0
2026-01-30 22:20:51,2986204,5381.000,-1156.000,6215.000,-10.000,34.000,328.000,NA,0.000,0
2026-01-30 22:20:51,2986244,4944.000,-2163.000,6071.000,-483.000,479.000,839.000,NA,0.000,0
2026-01-30 22:20:52,2986284,7022.000,-1268.000,6207.000,-606.000,876.000,731.000,NA,0.000,0
2026-01-30 22:20:52,2986324,1163.000,794.000,2926.000,545.000,-408.000,842.000,NA,0.000,0
2026-01-30 22:20:52,2986364,10322.000,-7457.000,9254.000,-2078.000,1022.000,1736.000,NA,0.000,0
2026-01-30 22:20:52,2986404,1570.000,260.000,8402.000,-201.000,328.000,-73.000,NA,0.000,0
2026-01-30 22:20:52,2986444,9297.000,-1449.000,4946.000,-1651.000,4.000,872.000,NA,0.000,0
2026-01-30 22:20:52,2986484,4283.000,-221.000,6754.000,-574.000,276.000,729.000,NA,0.000,0
2026-01-30 22:20:52,2986524,6990.000,-1201.000,5686.000,-1153.000,582.000,1024.000,NA,0.000,0
2026-01-30 22:20:52,2986564,3483.000,-1930.000,8544.000,-1647.000,1662.000,150.000,NA,0.000,0
2026-01-30 22:20:52,2986604,5629.000,-2953.000,4759.000,-1542.000,535.000,425.000,NA,0.000,0
2026-01-30 22:20:52,2986644,6024.000,-2372.000,6769.000,-1446.000,-145.000,678.000,NA,0.000,0
2026-01-30 22:20:52,2986684,3316.000,-2449.000,5307.000,-930.000,470.000,419.000,NA,0.000,0
2026-01-30 22:20:52,2986724,6425.000,-2884.000,3876.000,-1646.000,751.000,418.000,NA,0.000,0
2026-01-30 22:20:52,2986764,5954.000,-1949.000,5359.000,-43.000,817.000,402.000,NA,0.000,0
2026-01-30 22:20:52,2986804,6925.000,-1373.000,4710.000,-746.000,99.000,-549.000,NA,0.000,0
2026-01-30 22:20:52,2986844,6545.000,-2147.000,7102.000,-214.000,-585.000,-471.000,NA,0.000,0
2026-01-30 22:20:52,2986884,3913.000,-2323.000,6175.000,108.000,-711.000,-250.000,NA,0.000,0
2026-01-30 22:20:52,2986924,5894.000,-2259.000,5478.000,-193.000,-654.000,24.000,NA,0.000,0
2026-01-30 22:20:52,2986964,6162.000,-2474.000,4885.000,-37.000,-177.000,-129.000,NA,0.000,0
2026-01-30 22:20:52,2987004,-3999.000,2510.000,17465.000,2090.000,963.000,-2384.000,NA,0.000,0
2026-01-30 22:20:52,2987044,9947.000,-1553.000,1655.000,-1733.000,-1225.000,-1247.000,NA,0.000,0
2026-01-30 22:20:52,2987084,2687.000,-2018.000,5219.000,2735.000,-92.000,-329.000,NA,0.000,0
2026-01-30 22:20:52,2987124,3448.000,-1817.000,4471.000,28.000,-877.000,-520.000,NA,0.000,0
2026-01-30 22:20:52,2987164,8695.000,-2690.000,4259.000,-1166.000,-248.000,-559.000,NA,0.000,0
2026-01-30 22:20:52,2987204,8085.000,-2929.000,5474.000,-391.000,963.000,-910.000,NA,0.000,0
2026-01-30 22:20:52,2987244,7227.000,-2590.000,10255.000,1723.000,510.000,-631.000,NA,0.000,0
2026-01-30 22:20:53,2987284,4414.000,-1053.000,5187.000,522.000,-1039.000,-311.000,NA,0.000,0
2026-01-30 22:20:53,2987324,9892.000,-2639.000,-2469.000,201.000,-1054.000,1157.000,NA,0.000,0
2026-01-30 22:20:53,2987364,353.000,607.000,11120.000,2303.000,-842.000,-365.000,NA,0.000,0
2026-01-30 22:20:53,2987404,4399.000,-507.000,-1668.000,664.000,-3041.000,327.000,NA,0.000,0
2026-01-30 22:20:53,2987444,1243.000,-4296.000,6530.000,-843.000,307.000,-1540.000,NA,0.000,0
2026-01-30 22:20:53,2987484,1785.000,1177.000,5028.000,-1006.000,1607.000,883.000,NA,0.000,0
2026-01-30 22:20:53,2987524,-382.000,-2103.000,6698.000,-2140.000,2905.000,92.000,NA,0.000,0
2026-01-30 22:20:53,2987564,9661.000,-4984.000,6762.000,-2109.000,3220.000,1466.000,NA,0.000,0
2026-01-30 22:20:53,2987604,3207.000,-415.000,6691.000,1692.000,1110.000,819.000,NA,0.000,0
2026-01-30 22:20:53,2987644,8401.000,-183.000,6337.000,-727.000,-612.000,463.000,NA,0.000,0
2026-01-30 22:20:53,2987684,3369.000,258.000,5809.000,-1683.000,-1362.000,-626.000,NA,0.000,0
2026-01-30 22:20:53,2987724,4749.000,-2381.000,2547.000,-2452.000,-505.000,-9.000,NA,0.000,0
2026-01-30 22:20:53,2987764,305.000,-3850.000,3187.000,940.000,2784.000,919.000,NA,0.000,0
2026-01-30 22:20:53,2987804,6540.000,-4238.000,5366.000,-2035.000,1756.000,-11.000,NA,0.000,0
2026-01-30 22:20:53,2987844,7235.000,-3275.000,9885.000,654.000,1138.000,-411.000,NA,0.000,0
2026-01-30 22:20:53,2987887,6689.000,-1584.000,5332.000,-491.000,-2601.000,-386.000,NA,0.000,0
2026-01-30 22:20:53,2987924,7085.000,-1038.000,4556.000,-1208.000,-3204.000,-481.000,NA,0.000,0
2026-01-30 22:20:53,2987964,4065.000,-1974.000,6119.000,-1180.000,-2879.000,-880.000,NA,0.000,0
2026-01-30 22:20:53,2988004,4255.000,-2520.000,4994.000,-106.000,-988.000,42.000,NA,0.000,0
2026-01-30 22:20:53,2988044,4301.000,-3205.000,5407.000,-183.000,699.000,298.000,NA,0.000,0
2026-01-30 22:20:53,2988084,6034.000,-2570.000,4576.000,-7.000,1548.000,386.000,NA,0.000,0
2026-01-30 22:20:53,2988127,6428.000,-2198.000,7717.000,-1002.000,1109.000,232.000,NA,0.000,0
2026-01-30 22:20:53,2988164,9265.000,-2668.000,7260.000,-1943.000,775.000,200.000,NA,0.000,0
2026-01-30 22:20:53,2988204,5292.000,1279.000,6189.000,-1590.000,-355.000,-1004.000,NA,0.000,0
2026-01-30 22:20:53,2988244,6275.000,-1931.000,5903.000,-2765.000,-933.000,-1555.000,NA,0.000,0
2026-01-30 22:20:54,2988284,3979.000,-2578.000,4623.000,-1518.000,-478.000,-1029.000,NA,0.000,0
2026-01-30 22:20:54,2988324,5675.000,-3638.000,3680.000,-676.000,492.000,-206.000,NA,0.000,0
2026-01-30 22:20:54,2988364,4703.000,-2247.000,5240.000,456.000,996.000,-40.000,NA,0.000,0
2026-01-30 22:20:54,2988404,7158.000,-3419.000,5724.000,86.000,1222.000,-12.000,NA,0.000,0
2026-01-30 22:20:54,2988444,5321.000,-2055.000,6354.000,512.000,807.000,57.000,NA,0.000,0
2026-01-30 22:20:54,2988484,6442.000,-2230.000,5674.000,-447.000,-1.000,-316.000,NA,0.000,0
2026-01-30 22:20:54,2988524,4525.000,-1571.000,6591.000,-534.000,-540.000,-780.000,NA,0.000,0
2026-01-30 22:20:54,2988564,8260.000,-2751.000,6230.000,-1659.000,-75.000,-708.000,NA,0.000,0
2026-01-30 22:20:54,2988604,2905.000,-1385.000,6918.000,-409.000,611.000,-1122.000,NA,0.000,0
2026-01-30 22:20:54,2988644,5834.000,-2321.000,6645.000,-1592.000,516.000,-809.000,NA,0.000,0
2026-01-30 22:20:54,2988684,5711.000,-2498.000,6763.000,-1697.000,1007.000,-820.000,NA,0.000,0
2026-01-30 22:20:54,2988724,4356.000,-997.000,5397.000,-1576.000,1124.000,-1252.000,NA,0.000,0
2026-01-30 22:20:54,2988764,6833.000,-1763.000,4311.000,-1459.000,1414.000,-1005.000,NA,0.000,0
2026-01-30 22:20:54,2988804,6965.000,-3374.000,4783.000,-661.000,1899.000,-1121.000,NA,0.000,0
2026-01-30 22:20:54,2988844,5480.000,-2309.000,4774.000,371.000,1119.000,-1212.000,NA,0.000,0
2026-01-30 22:20:54,2988884,6438.000,-2061.000,4311.000,-77.000,179.000,-868.000,NA,0.000,0
2026-01-30 22:20:54,2988924,2393.000,-2747.000,6065.000,1247.000,372.000,-1371.000,NA,0.000,0
2026-01-30 22:20:54,2988964,7141.000,-3533.000,3775.000,522.000,-264.000,-720.000,NA,0.000,0
2026-01-30 22:20:54,2989004,4156.000,-2671.000,5107.000,2907.000,-303.000,-595.000,NA,0.000,0
2026-01-30 22:20:54,2989044,6050.000,-3147.000,4551.000,2774.000,-555.000,-876.000,NA,0.000,0
2026-01-30 22:20:54,2989084,6674.000,-2456.000,4569.000,2467.000,-218.000,-896.000,NA,0.000,0
2026-01-30 22:20:54,2989124,5645.000,-1378.000,5778.000,3505.000,383.000,-1181.000,NA,0.000,0
2026-01-30 22:20:54,2989164,5797.000,-2047.000,5747.000,3578.000,343.000,-1277.000,NA,0.000,0
2026-01-30 22:20:54,2989204,4923.000,-1586.000,5605.000,4723.000,175.000,-764.000,NA,0.000,0
2026-01-30 22:20:54,2989244,5623.000,-1577.000,6039.000,3021.000,211.000,-644.000,NA,0.000,0
2026-01-30 22:20:55,2989284,7159.000,-465.000,5847.000,2522.000,547.000,-441.000,NA,0.000,0
2026-01-30 22:20:55,2989324,4906.000,-519.000,7338.000,2384.000,614.000,-557.000,NA,0.000,0
2026-01-30 22:20:55,2989364,5533.000,-742.000,6711.000,2474.000,734.000,20.000,NA,0.000,0
2026-01-30 22:20:55,2989404,5762.000,-30.000,7348.000,1624.000,344.000,-22.000,NA,0.000,0
2026-01-30 22:20:55,2989444,3716.000,-213.000,6423.000,1605.000,869.000,-50.000,NA,0.000,0
2026-01-30 22:20:55,2989484,5646.000,-123.000,6501.000,484.000,809.000,268.000,NA,0.000,0
2026-01-30 22:20:55,2989524,4474.000,95.000,7301.000,410.000,1256.000,65.000,NA,0.000,0
2026-01-30 22:20:55,2989564,4990.000,115.000,7654.000,-446.000,851.000,236.000,NA,0.000,0
2026-01-30 22:20:55,2989604,4509.000,143.000,8814.000,-511.000,481.000,405.000,NA,0.000,0
2026-01-30 22:20:55,2989644,2451.000,365.000,6517.000,-1298.000,217.000,490.000,NA,0.000,0
2026-01-30 22:20:55,2989684,4509.000,-152.000,5872.000,-1471.000,-150.000,329.000,NA,0.000,0
2026-01-30 22:20:55,2989724,4408.000,118.000,5454.000,-1083.000,-538.000,667.000,NA,0.000,0
2026-01-30 22:20:55,2989764,4986.000,-814.000,5867.000,-651.000,-1131.000,841.000,NA,0.000,0
2026-01-30 22:20:55,2989804,6585.000,-1169.000,4518.000,-1707.000,-1353.000,799.000,NA,0.000,0
2026-01-30 22:20:55,2989844,5869.000,-2150.000,6522.000,-762.000,-1099.000,649.000,NA,0.000,0
2026-01-30 22:20:55,2989884,5560.000,-1304.000,4819.000,181.000,-1326.000,779.000,NA,0.000,0
2026-01-30 22:20:55,2989925,6053.000,-702.000,5310.000,114.000,-1856.000,730.000,NA,0.000,0
2026-01-30 22:20:55,2989964,7022.000,-2006.000,4664.000,144.000,-1849.000,862.000,NA,0.000,0
2026-01-30 22:20:55,2990004,5384.000,-2141.000,4880.000,1415.000,-1658.000,510.000,NA,0.000,0
2026-01-30 22:20:55,2990044,7610.000,-2165.000,6107.000,1442.000,-1038.000,640.000,NA,0.000,0
2026-01-30 22:20:55,2990084,3959.000,-998.000,7081.000,2275.000,-609.000,583.000,NA,0.000,0
2026-01-30 22:20:55,2990127,6653.000,-1015.000,5781.000,1793.000,-107.000,1420.000,NA,0.000,0
2026-01-30 22:20:55,2990164,6166.000,-2005.000,7138.000,1539.000,124.000,1445.000,NA,0.000,0
2026-01-30 22:20:55,2990204,6165.000,-1000.000,6309.000,1890.000,7.000,1491.000,NA,0.000,0
2026-01-30 22:20:55,2990244,8139.000,-668.000,7187.000,1369.000,301.000,1359.000,NA,0.000,0
2026-01-30 22:20:56,2990284,2554.000,-396.000,7428.000,605.000,420.000,872.000,NA,0.000,0
2026-01-30 22:20:56,2990324,5088.000,-1120.000,6307.000,-545.000,-169.000,1652.000,NA,0.000,0
2026-01-30 22:20:56,2990364,2805.000,-1380.000,6267.000,-897.000,60.000,1513.000,NA,0.000,0
2026-01-30 22:20:56,2990404,7256.000,-3209.000,4496.000,-1039.000,394.000,1717.000,NA,0.000,0
2026-01-30 22:20:56,2990444,5701.000,-1696.000,7891.000,-1129.000,466.000,957.000,NA,0.000,0
2026-01-30 22:20:56,2990484,7928.000,-425.000,6827.000,-856.000,157.000,581.000,NA,0.000,0
2026-01-30 22:20:56,2990524,5297.000,179.000,5076.000,-643.000,169.000,-57.000,NA,0.000,0
2026-01-30 22:20:56,2990564,4956.000,-1336.000,5927.000,-843.000,-576.000,-94.000,NA,0.000,0
2026-01-30 22:20:56,2990604,10708.000,-5404.000,4441.000,-635.000,-464.000,733.000,NA,0.000,0
2026-01-30 22:20:56,2990644,3845.000,-80.000,4643.000,1467.000,634.000,-711.000,NA,0.000,0
2026-01-30 22:20:56,2990684,5699.000,-1957.000,6617.000,773.000,4.000,-297.000,NA,0.000,0
2026-01-30 22:20:56,2990724,7119.000,-2839.000,6482.000,150.000,-393.000,359.000,NA,0.000,0
2026-01-30 22:20:56,2990764,5192.000,-1667.000,5761.000,686.000,-906.000,273.000,NA,0.000,0
2026-01-30 22:20:56,2990804,4368.000,-2076.000,4897.000,593.000,-321.000,373.000,NA,0.000,0
2026-01-30 22:20:56,2990844,10005.000,-3245.000,6336.000,310.000,0.000,965.000,NA,0.000,0
2026-01-30 22:20:56,2990884,5390.000,-496.000,5469.000,1564.000,-173.000,287.000,NA,0.000,0
2026-01-30 22:20:56,2990924,7312.000,-723.000,6027.000,730.000,-131.000,392.000,NA,0.000,0
2026-01-30 22:20:56,2990964,3933.000,-1027.000,5764.000,483.000,-6.000,407.000,NA,0.000,0
2026-01-30 22:20:56,2991004,7562.000,-2001.000,5359.000,221.000,-571.000,788.000,NA,0.000,0
2026-01-30 22:20:56,2991044,6158.000,-1439.000,5907.000,821.000,-156.000,229.000,NA,0.000,0
2026-01-30 22:20:56,2991084,4754.000,-411.000,5261.000,309.000,-728.000,156.000,NA,0.000,0
2026-01-30 22:20:56,2991124,11721.000,-3348.000,3092.000,-598.000,-753.000,1211.000,NA,0.000,0
2026-01-30 22:20:56,2991164,2941.000,-49.000,6690.000,1008.000,309.000,-495.000,NA,0.000,0
2026-01-30 22:20:56,2991204,8330.000,-1708.000,5347.000,285.000,320.000,776.000,NA,0.000,0
2026-01-30 22:20:56,2991244,5601.000,-2038.000,5504.000,909.000,297.000,1069.000,NA,0.000,0
2026-01-30 22:20:57,2991284,4814.000,-1659.000,6098.000,1000.000,-30.000,617.000,NA,0.000,0
2026-01-30 22:20:57,2991324,10973.000,-1475.000,6619.000,467.000,-193.000,1153.000,NA,0.000,0
2026-01-30 22:20:57,2991364,977.000,-1575.000,7918.000,682.000,1258.000,164.000,NA,0.000,0
2026-01-30 22:20:57,2991404,4280.000,-1176.000,7050.000,-895.000,119.000,793.000,NA,0.000,0
2026-01-30 22:20:57,2991444,6521.000,-1408.000,5351.000,-956.000,191.000,1560.000,NA,0.000,0
2026-01-30 22:20:57,2991484,4684.000,-1563.000,11625.000,-1546.000,2719.000,-330.000,NA,0.000,0
2026-01-30 22:20:57,2991524,5275.000,4402.000,7005.000,-1215.000,216.000,919.000,NA,0.000,0
2026-01-30 22:20:57,2991564,4301.000,-2513.000,1235.000,-2095.000,1380.000,496.000,NA,0.000,0
2026-01-30 22:20:57,2991604,518.000,1399.000,1903.000,186.000,1129.000,-1204.000,NA,0.000,0
2026-01-30 22:20:57,2991644,6566.000,-1703.000,7255.000,-3062.000,890.000,-1131.000,NA,0.000,0
2026-01-30 22:20:57,2991684,4046.000,193.000,4734.000,-848.000,917.000,-567.000,NA,0.000,0
2026-01-30 22:20:57,2991724,7036.000,-1767.000,5111.000,-883.000,593.000,-686.000,NA,0.000,0
2026-01-30 22:20:57,2991764,5314.000,-3120.000,5767.000,187.000,328.000,-973.000,NA,0.000,0
2026-01-30 22:20:57,2991804,5594.000,-2769.000,6622.000,122.000,-720.000,-946.000,NA,0.000,0
2026-01-30 22:20:57,2991844,10121.000,-3558.000,8750.000,-287.000,-1042.000,-911.000,NA,0.000,0
2026-01-30 22:20:57,2991884,5772.000,89.000,13234.000,2625.000,-1255.000,-1370.000,NA,0.000,0
2026-01-30 22:20:57,2991924,8811.000,-3381.000,11096.000,974.000,-2455.000,-789.000,NA,0.000,0
2026-01-30 22:20:57,2991964,5297.000,-2510.000,2387.000,1459.000,-1406.000,187.000,NA,0.000,0
2026-01-30 22:20:57,2992004,7819.000,-1265.000,4546.000,671.000,-864.000,322.000,NA,0.000,0
2026-01-30 22:20:57,2992044,5725.000,-2038.000,7334.000,2406.000,-703.000,84.000,NA,0.000,0
2026-01-30 22:20:57,2992084,6069.000,-812.000,8694.000,2300.000,-815.000,906.000,NA,0.000,0
2026-01-30 22:20:57,2992124,6031.000,-1891.000,6955.000,655.000,-737.000,743.000,NA,0.000,0
2026-01-30 22:20:57,2992164,4042.000,-1005.000,8585.000,576.000,232.000,775.000,NA,0.000,0
2026-01-30 22:20:57,2992204,5725.000,-866.000,7030.000,-454.000,970.000,1462.000,NA,0.000,0
2026-01-30 22:20:57,2992244,4711.000,-780.000,7930.000,-62.000,1278.000,1318.000,NA,0.000,0
2026-01-30 22:20:58,2992284,6083.000,-274.000,7956.000,-950.000,688.000,1287.000,NA,0.000,0
2026-01-30 22:20:58,2992324,3771.000,-513.000,7688.000,-2230.000,1070.000,705.000,NA,0.000,0
2026-01-30 22:20:58,2992364,4665.000,216.000,5836.000,-3171.000,947.000,571.000,NA,0.000,0
2026-01-30 22:20:58,2992404,5605.000,-1254.000,5790.000,-1894.000,1082.000,479.000,NA,0.000,0
2026-01-30 22:20:58,2992444,5129.000,-432.000,5875.000,-1731.000,1011.000,130.000,NA,0.000,0
2026-01-30 22:20:58,2992484,5249.000,-1724.000,6337.000,-1728.000,457.000,-286.000,NA,0.000,0
2026-01-30 22:20:58,2992524,5270.000,-2177.000,6278.000,-2492.000,674.000,-611.000,NA,0.000,0
2026-01-30 22:20:58,2992564,4922.000,-1021.000,3841.000,-955.000,-12.000,-1100.000,NA,0.000,0
2026-01-30 22:20:58,2992604,8877.000,-4343.000,5291.000,-1403.000,-159.000,-558.000,NA,0.000,0
2026-01-30 22:20:58,2992644,3582.000,-1257.000,4223.000,34.000,380.000,-2026.000,NA,0.000,0
2026-01-30 22:20:58,2992684,6605.000,-3878.000,4800.000,382.000,-515.000,-805.000,NA,0.000,0
2026-01-30 22:20:58,2992724,3802.000,144.000,8559.000,1678.000,83.000,-1740.000,NA,0.000,0
2026-01-30 22:20:58,2992764,11731.000,-5910.000,6593.000,358.000,-2053.000,-493.000,NA,0.000,0
2026-01-30 22:20:58,2992804,9364.000,-2395.000,3629.000,3268.000,-939.000,-786.000,NA,0.000,0
2026-01-30 22:20:58,2992844,395.000,1635.000,5469.000,4231.000,-174.000,-2232.000,NA,0.000,0
2026-01-30 22:20:58,2992884,4996.000,-3262.000,6490.000,1972.000,-902.000,-143.000,NA,0.000,0
2026-01-30 22:20:58,2992924,7267.000,-2310.000,4170.000,2832.000,-2062.000,-20.000,NA,0.000,0
2026-01-30 22:20:58,2992964,4925.000,-917.000,6485.000,3187.000,-898.000,-936.000,NA,0.000,0
2026-01-30 22:20:58,2993004,7378.000,-1140.000,7453.000,1878.000,-986.000,-268.000,NA,0.000,0
2026-01-30 22:20:58,2993044,6573.000,-1362.000,6484.000,1068.000,-96.000,-352.000,NA,0.000,0
2026-01-30 22:20:58,2993084,7712.000,-2899.000,10970.000,968.000,-186.000,675.000,NA,0.000,0
2026-01-30 22:20:58,2993124,2771.000,-384.000,8695.000,912.000,-1176.000,-148.000,NA,0.000,0
2026-01-30 22:20:58,2993164,4790.000,1070.000,7461.000,-133.000,-1006.000,-64.000,NA,0.000,0
2026-01-30 22:20:58,2993204,8287.000,-160.000,3403.000,-535.000,-165.000,536.000,NA,0.000,0
2026-01-30 22:20:58,2993244,4361.000,-756.000,4999.000,-34.000,1001.000,-390.000,NA,0.000,0
2026-01-30 22:20:59,2993284,4716.000,-1597.000,3049.000,-331.000,494.000,151.000,NA,0.000,0
2026-01-30 22:20:59,2993324,4763.000,-1937.000,5847.000,615.000,21.000,600.000,NA,0.000,0
2026-01-30 22:20:59,2993364,6380.000,-2396.000,4278.000,209.000,101.000,608.000,NA,0.000,0
2026-01-30 22:20:59,2993404,4301.000,-1684.000,5942.000,823.000,790.000,416.000,NA,0.000,0
2026-01-30 22:20:59,2993444,16258.000,-5022.000,8660.000,-893.000,2917.000,1261.000,NA,0.000,0
2026-01-30 22:20:59,2993484,16779.000,2151.000,4179.000,443.000,-2579.000,1628.000,NA,0.000,0
2026-01-30 22:20:59,2993524,3817.000,-247.000,5808.000,2363.000,85.000,-1868.000,NA,0.000,0
2026-01-30 22:20:59,2993564,3349.000,-1513.000,6228.000,-820.000,884.000,-285.000,NA,0.000,0
2026-01-30 22:20:59,2993604,8088.000,-1310.000,6105.000,579.000,1625.000,1048.000,NA,0.000,0
2026-01-30 22:20:59,2993644,5205.000,-236.000,4937.000,1009.000,1702.000,610.000,NA,0.000,0
2026-01-30 22:20:59,2993684,8242.000,-1159.000,4583.000,2067.000,522.000,1088.000,NA,0.000,0
2026-01-30 22:20:59,2993724,933.000,-2347.000,9233.000,2740.000,2022.000,185.000,NA,0.000,0
2026-01-30 22:20:59,2993764,18001.000,-1332.000,4026.000,-755.000,923.000,998.000,NA,0.000,0
2026-01-30 22:20:59,2993804,809.000,3178.000,9573.000,3484.000,-269.000,48.000,NA,0.000,0
2026-01-30 22:20:59,2993844,6828.000,-842.000,6346.000,-1479.000,-1982.000,588.000,NA,0.000,0
2026-01-30 22:20:59,2993887,1935.000,120.000,5903.000,631.000,-737.000,385.000,NA,0.000,0
2026-01-30 22:20:59,2993924,6773.000,126.000,3068.000,733.000,-760.000,895.000,NA,0.000,0
2026-01-30 22:20:59,2993964,4607.000,-2626.000,6612.000,1143.000,1022.000,213.000,NA,0.000,0
2026-01-30 22:20:59,2994004,7003.000,-1806.000,6235.000,1024.000,402.000,691.000,NA,0.000,0
2026-01-30 22:20:59,2994044,5584.000,-290.000,5132.000,1301.000,516.000,660.000,NA,0.000,0
2026-01-30 22:20:59,2994084,5769.000,-1760.000,6506.000,1292.000,271.000,1107.000,NA,0.000,0
2026-01-30 22:20:59,2994127,6381.000,252.000,8403.000,1664.000,29.000,210.000,NA,0.000,0
2026-01-30 22:20:59,2994164,51.000,1400.000,6800.000,1784.000,-406.000,-51.000,NA,0.000,0
2026-01-30 22:20:59,2994204,6672.000,-1845.000,6741.000,-529.000,-1503.000,1204.000,NA,0.000,0
2026-01-30 22:20:59,2994244,176.000,-1831.000,9771.000,485.000,353.000,322.000,NA,0.000,0
2026-01-30 22:21:00,2994284,9165.000,121.000,2633.000,-21.000,-133.000,1704.000,NA,0.000,0
2026-01-30 22:21:00,2994324,7095.000,-362.000,5574.000,494.000,1199.000,818.000,NA,0.000,0
2026-01-30 22:21:00,2994364,6307.000,-747.000,5029.000,1378.000,721.000,775.000,NA,0.000,0
2026-01-30 22:21:00,2994404,5307.000,-554.000,5459.000,1850.000,-122.000,583.000,NA,0.000,0
2026-01-30 22:21:00,2994444,4864.000,-1789.000,6801.000,1179.000,-856.000,809.000,NA,0.000,0
2026-01-30 22:21:00,2994484,6564.000,-879.000,3846.000,1005.000,-913.000,710.000,NA,0.000,0
2026-01-30 22:21:00,2994524,5096.000,-1503.000,8318.000,883.000,-269.000,1069.000,NA,0.000,0
2026-01-30 22:21:00,2994564,3809.000,-613.000,5847.000,760.000,-125.000,1112.000,NA,0.000,0
2026-01-30 22:21:00,2994604,3694.000,-449.000,6902.000,568.000,-391.000,907.000,NA,0.000,0
2026-01-30 22:21:00,2994644,8422.000,-1539.000,5342.000,88.000,936.000,1374.000,NA,0.000,0
2026-01-30 22:21:00,2994684,5556.000,567.000,2478.000,1521.000,130.000,994.000,NA,0.000,0
2026-01-30 22:21:00,2994724,5675.000,-2160.000,3300.000,1177.000,750.000,1080.000,NA,0.000,0
2026-01-30 22:21:00,2994764,6048.000,-1141.000,7116.000,1693.000,708.000,802.000,NA,0.000,0
2026-01-30 22:21:00,2994804,7481.000,-493.000,5866.000,934.000,-238.000,744.000,NA,0.000,0
2026-01-30 22:21:00,2994844,5654.000,-352.000,7005.000,336.000,-728.000,903.000,NA,0.000,0
2026-01-30 22:21:00,2994884,3621.000,-876.000,7037.000,51.000,-926.000,698.000,NA,0.000,0
2026-01-30 22:21:00,2994924,4415.000,-1239.000,8150.000,-30.000,-530.000,989.000,NA,0.000,0
2026-01-30 22:21:00,2994964,3749.000,-1261.000,5529.000,-593.000,648.000,1630.000,NA,0.000,0
2026-01-30 22:21:00,2995004,4450.000,-694.000,6931.000,109.000,725.000,1852.000,NA,0.000,0
2026-01-30 22:21:00,2995044,6986.000,142.000,6336.000,-264.000,373.000,1717.000,NA,0.000,0
2026-01-30 22:21:00,2995084,5046.000,-327.000,6530.000,-666.000,89.000,870.000,NA,0.000,0
2026-01-30 22:21:00,2995124,7334.000,-2398.000,4264.000,-1469.000,97.000,561.000,NA,0.000,0
2026-01-30 22:21:00,2995164,2250.000,-383.000,6773.000,-370.000,-469.000,109.000,NA,0.000,0
2026-01-30 22:21:00,2995204,10273.000,-2876.000,5452.000,-1622.000,-806.000,226.000,NA,0.000,0
2026-01-30 22:21:00,2995244,3586.000,-734.000,5922.000,79.000,-512.000,-303.000,NA,0.000,0
2026-01-30 22:21:01,2995284,7882.000,-1743.000,6188.000,-586.000,-1075.000,158.000,NA,0.000,0
2026-01-30 22:21:01,2995324,4423.000,-1321.000,5599.000,-79.000,-273.000,-18.000,NA,0.000,0
2026-01-30 22:21:01,2995364,6849.000,-3114.000,6845.000,-167.000,73.000,605.000,NA,0.000,0
2026-01-30 22:21:01,2995404,795.000,304.000,3295.000,2146.000,-442.000,750.000,NA,0.000,0
2026-01-30 22:21:01,2995444,3681.000,-5739.000,6449.000,-991.000,1618.000,618.000,NA,0.000,0
2026-01-30 22:21:01,2995484,3832.000,214.000,4812.000,458.000,-854.000,744.000,NA,0.000,0
2026-01-30 22:21:01,2995524,8048.000,-965.000,6416.000,53.000,-784.000,453.000,NA,0.000,0
2026-01-30 22:21:01,2995564,4260.000,-1235.000,5094.000,-418.000,-681.000,505.000,NA,0.000,0
2026-01-30 22:21:01,2995604,6442.000,-2041.000,6148.000,207.000,-517.000,-201.000,NA,0.000,0
2026-01-30 22:21:01,2995644,4550.000,-2265.000,4906.000,610.000,451.000,-126.000,NA,0.000,0
2026-01-30 22:21:01,2995684,7542.000,-1972.000,6107.000,1259.000,509.000,291.000,NA,0.000,0
2026-01-30 22:21:01,2995724,4797.000,-1330.000,4788.000,2024.000,310.000,-12.000,NA,0.000,0
2026-01-30 22:21:01,2995764,4271.000,-4120.000,9029.000,2264.000,1615.000,-335.000,NA,0.000,0
2026-01-30 22:21:01,2995804,4902.000,104.000,4726.000,3162.000,-97.000,-326.000,NA,0.000,0
2026-01-30 22:21:01,2995844,6256.000,-1587.000,4570.000,2194.000,54.000,95.000,NA,0.000,0
2026-01-30 22:21:01,2995884,4551.000,-677.000,6258.000,2035.000,869.000,479.000,NA,0.000,0
2026-01-30 22:21:01,2995926,6090.000,562.000,8152.000,2014.000,1039.000,-72.000,NA,0.000,0
2026-01-30 22:21:01,2995966,5519.000,390.000,6547.000,1903.000,1803.000,352.000,NA,0.000,0
2026-01-30 22:21:01,2996007,6835.000,-717.000,8263.000,1221.000,2318.000,28.000,NA,0.000,0
2026-01-30 22:21:01,2996044,4698.000,-484.000,7718.000,1723.000,2714.000,-280.000,NA,0.000,0
2026-01-30 22:21:01,2996084,2730.000,-577.000,9770.000,1644.000,2725.000,27.000,NA,0.000,0
2026-01-30 22:21:01,2996127,4433.000,-902.000,8666.000,-1265.000,1710.000,-579.000,NA,0.000,0
2026-01-30 22:21:01,2996166,1593.000,-910.000,8015.000,-923.000,2153.000,-196.000,NA,0.000,0
2026-01-30 22:21:01,2996204,768.000,418.000,9491.000,-847.000,1292.000,-55.000,NA,0.000,0
2026-01-30 22:21:01,2996244,3070.000,2364.000,8016.000,-3357.000,-111.000,-283.000,NA,0.000,0
2026-01-30 22:21:02,2996284,3820.000,866.000,6967.000,-3896.000,-55.000,-888.000,NA,0.000,0
2026-01-30 22:21:02,2996324,1126.000,755.000,7534.000,-2640.000,724.000,-777.000,NA,0.000,0
2026-01-30 22:21:02,2996364,8230.000,78.000,5695.000,-3408.000,-1075.000,26.000,NA,0.000,0
2026-01-30 22:21:02,2996404,2687.000,-203.000,5173.000,-1023.000,123.000,-72.000,NA,0.000,0
2026-01-30 22:21:02,2996444,5323.000,-2956.000,6822.000,-1575.000,-1158.000,119.000,NA,0.000,0
2026-01-30 22:21:02,2996484,5804.000,-1238.000,5498.000,-1877.000,-1460.000,-457.000,NA,0.000,0
2026-01-30 22:21:02,2996524,5497.000,-2899.000,8007.000,-640.000,-2414.000,409.000,NA,0.000,0
2026-01-30 22:21:02,2996564,4662.000,-921.000,7080.000,499.000,-3087.000,679.000,NA,0.000,0
2026-01-30 22:21:02,2996604,4309.000,-1755.000,6101.000,-1388.000,-2296.000,911.000,NA,0.000,0
2026-01-30 22:21:02,2996644,8478.000,-1030.000,6744.000,-1141.000,-1806.000,1151.000,NA,0.000,0
2026-01-30 22:21:02,2996684,5927.000,-880.000,7034.000,-895.000,94.000,312.000,NA,0.000,0
2026-01-30 22:21:02,2996724,3030.000,-675.000,8240.000,-185.000,-196.000,593.000,NA,0.000,0
2026-01-30 22:21:02,2996764,6491.000,-2020.000,6157.000,-667.000,-1052.000,1148.000,NA,0.000,0
2026-01-30 22:21:02,2996804,3524.000,-2643.000,5705.000,889.000,-770.000,1375.000,NA,0.000,0
2026-01-30 22:21:02,2996844,8511.000,-3353.000,5130.000,545.000,-559.000,1237.000,NA,0.000,0
2026-01-30 22:21:02,2996884,3849.000,-1556.000,6085.000,1514.000,179.000,370.000,NA,0.000,0
2026-01-30 22:21:02,2996924,7908.000,-280.000,6272.000,17.000,301.000,195.000,NA,0.000,0
2026-01-30 22:21:02,2996964,2566.000,-1993.000,7952.000,-334.000,854.000,294.000,NA,0.000,0
2026-01-30 22:21:02,2997004,8027.000,-2469.000,6945.000,-1499.000,-4.000,622.000,NA,0.000,0
2026-01-30 22:21:02,2997044,5327.000,118.000,5898.000,-1722.000,-424.000,-664.000,NA,0.000,0
2026-01-30 22:21:02,2997084,3846.000,670.000,8122.000,-1726.000,-257.000,-791.000,NA,0.000,0
2026-01-30 22:21:02,2997124,3656.000,4.000,7326.000,-2492.000,-276.000,-1223.000,NA,0.000,0
2026-01-30 22:21:02,2997164,3213.000,-2228.000,6051.000,-2113.000,1264.000,-697.000,NA,0.000,0
2026-01-30 22:21:02,2997204,5418.000,-3269.000,6500.000,-1490.000,1710.000,-875.000,NA,0.000,0
2026-01-30 22:21:02,2997244,6085.000,-439.000,6000.000,-2088.000,1059.000,-1569.000,NA,0.000,0
2026-01-30 22:21:03,2997284,4351.000,-1836.000,6606.000,-1928.000,900.000,-1228.000,NA,0.000,0
2026-01-30 22:21:03,2997324,5675.000,-2088.000,7397.000,-2417.000,99.000,-1708.000,NA,0.000,0
2026-01-30 22:21:03,2997364,5463.000,-725.000,5110.000,-1440.000,-60.000,-1438.000,NA,0.000,0
2026-01-30 22:21:03,2997404,2866.000,-485.000,5883.000,-544.000,612.000,-1610.000,NA,0.000,0
2026-01-30 22:21:03,2997444,8289.000,-3471.000,4956.000,-1026.000,1151.000,-901.000,NA,0.000,0
2026-01-30 22:21:03,2997484,5528.000,-1993.000,3959.000,474.000,591.000,-1623.000,NA,0.000,0
2026-01-30 22:21:03,2997524,6818.000,-2457.000,6103.000,570.000,-501.000,-1198.000,NA,0.000,0
2026-01-30 22:21:03,2997564,6563.000,-3103.000,4246.000,113.000,-1137.000,-882.000,NA,0.000,0
2026-01-30 22:21:03,2997604,4981.000,-269.000,7205.000,1010.000,-770.000,-1574.000,NA,0.000,0
2026-01-30 22:21:03,2997644,6722.000,-4241.000,3794.000,-489.000,-670.000,-907.000,NA,0.000,0
2026-01-30 22:21:03,2997684,6695.000,-1673.000,6649.000,1286.000,215.000,-999.000,NA,0.000,0
2026-01-30 22:21:03,2997724,5704.000,-345.000,5003.000,2298.000,231.000,-1234.000,NA,0.000,0
2026-01-30 22:21:03,2997764,6071.000,-1924.000,7153.000,1561.000,1074.000,-924.000,NA,0.000,0
2026-01-30 22:21:03,2997804,5288.000,-1557.000,6742.000,2176.000,1656.000,-887.000,NA,0.000,0
2026-01-30 22:21:03,2997844,6435.000,-2056.000,6426.000,2101.000,1618.000,-874.000,NA,0.000,0
2026-01-30 22:21:03,2997884,4463.000,129.000,9105.000,2119.000,2603.000,-954.000,NA,0.000,0
2026-01-30 22:21:03,2997924,3348.000,1454.000,6300.000,1527.000,1586.000,-496.000,NA,0.000,0
2026-01-30 22:21:03,2997964,4122.000,481.000,7488.000,-568.000,2015.000,-493.000,NA,0.000,0
2026-01-30 22:21:03,2998004,5059.000,-91.000,6122.000,-2074.000,1180.000,-935.000,NA,0.000,0
2026-01-30 22:21:03,2998044,4703.000,-527.000,7487.000,-820.000,1155.000,-866.000,NA,0.000,0
2026-01-30 22:21:03,2998084,5679.000,-59.000,7382.000,-1293.000,580.000,-1178.000,NA,0.000,0
2026-01-30 22:21:03,2998124,4389.000,-831.000,7153.000,-1593.000,755.000,-1126.000,NA,0.000,0
2026-01-30 22:21:03,2998164,3928.000,-1364.000,5950.000,-763.000,-276.000,-603.000,NA,0.000,0
2026-01-30 22:21:03,2998204,6618.000,-2094.000,8627.000,-1440.000,-742.000,-580.000,NA,0.000,0
2026-01-30 22:21:03,2998244,2900.000,-1085.000,6159.000,-751.000,-702.000,-158.000,NA,0.000,0
2026-01-30 22:21:04,2998284,5503.000,846.000,8148.000,-1802.000,-1446.000,-169.000,NA,0.000,0
2026-01-30 22:21:04,2998324,4046.000,-1768.000,5717.000,-2438.000,-1348.000,118.000,NA,0.000,0
2026-01-30 22:21:04,2998364,6464.000,97.000,7606.000,-2669.000,-1095.000,389.000,NA,0.000,0
2026-01-30 22:21:04,2998404,4076.000,-467.000,5078.000,-1274.000,-745.000,-38.000,NA,0.000,0
2026-01-30 22:21:04,2998444,5916.000,-558.000,5914.000,-834.000,-1110.000,249.000,NA,0.000,0
2026-01-30 22:21:04,2998484,8328.000,-2556.000,5161.000,-1039.000,-1098.000,22.000,NA,0.000,0
2026-01-30 22:21:04,2998524,4817.000,-1686.000,6252.000,575.000,-1065.000,150.000,NA,0.000,0
2026-01-30 22:21:04,2998564,5683.000,-1166.000,7471.000,246.000,-1571.000,504.000,NA,0.000,0
2026-01-30 22:21:04,2998604,4783.000,-2511.000,7946.000,-452.000,-495.000,270.000,NA,0.000,0
2026-01-30 22:21:04,2998644,3459.000,-1320.000,7269.000,-108.000,-54.000,684.000,NA,0.000,0
2026-01-30 22:21:04,2998684,6570.000,-346.000,6566.000,-685.000,-139.000,1345.000,NA,0.000,0
2026-01-30 22:21:04,2998724,5747.000,-2495.000,7532.000,-993.000,723.000,299.000,NA,0.000,0
2026-01-30 22:21:04,2998764,4329.000,-47.000,5754.000,-847.000,427.000,196.000,NA,0.000,0
2026-01-30 22:21:04,2998804,5089.000,-1711.000,5171.000,-2428.000,479.000,-290.000,NA,0.000,0
2026-01-30 22:21:04,2998844,5889.000,-1314.000,5536.000,-564.000,492.000,-366.000,NA,0.000,0
2026-01-30 22:21:04,2998884,5381.000,-1926.000,5845.000,-1795.000,564.000,-929.000,NA,0.000,0
2026-01-30 22:21:04,2998924,5903.000,-2789.000,4896.000,-459.000,439.000,-399.000,NA,0.000,0
2026-01-30 22:21:04,2998964,7198.000,-948.000,6420.000,-340.000,-184.000,-658.000,NA,0.000,0
2026-01-30 22:21:04,2999004,4433.000,-1497.000,6041.000,219.000,281.000,-1083.000,NA,0.000,0
2026-01-30 22:21:04,2999044,4129.000,-1182.000,6767.000,69.000,243.000,-708.000,NA,0.000,0
2026-01-30 22:21:04,2999084,6426.000,-1820.000,5892.000,-644.000,225.000,-779.000,NA,0.000,0
2026-01-30 22:21:04,2999124,6249.000,-2086.000,5933.000,-101.000,158.000,-1205.000,NA,0.000,0
2026-01-30 22:21:04,2999164,4517.000,-2129.000,6222.000,639.000,505.000,-964.000,NA,0.000,0
2026-01-30 22:21:04,2999204,5642.000,-1520.000,6222.000,-689.000,54.000,-823.000,NA,0.000,0
2026-01-30 22:21:04,2999244,6121.000,-1751.000,7354.000,-946.000,38.000,-1120.000,NA,0.000,0
2026-01-30 22:21:05,2999284,5307.000,-1888.000,6579.000,-53.000,719.000,-1121.000,NA,0.000,0
2026-01-30 22:21:05,2999324,6878.000,-1295.000,6350.000,-289.000,373.000,-986.000,NA,0.000,0
2026-01-30 22:21:05,2999364,3927.000,-411.000,5489.000,-88.000,412.000,-1071.000,NA,0.000,0
2026-01-30 22:21:05,2999404,5212.000,-1098.000,4989.000,-145.000,16.000,-1007.000,NA,0.000,0
2026-01-30 22:21:05,2999444,6598.000,-2248.000,5978.000,-375.000,310.000,-1042.000,NA,0.000,0
2026-01-30 22:21:05,2999484,4879.000,-1437.000,5371.000,68.000,838.000,-1134.000,NA,0.000,0
2026-01-30 22:21:05,2999524,7553.000,-1099.000,5613.000,53.000,462.000,-1188.000,NA,0.000,0
2026-01-30 22:21:05,2999564,6579.000,-2136.000,6822.000,1343.000,352.000,-831.000,NA,0.000,0
2026-01-30 22:21:05,2999604,6000.000,-2273.000,6467.000,1036.000,156.000,-540.000,NA,0.000,0
2026-01-30 22:21:05,2999644,3595.000,-1043.000,7301.000,1297.000,2.000,39.000,NA,0.000,0
2026-01-30 22:21:05,2999684,6806.000,-317.000,6794.000,-772.000,-564.000,93.000,NA,0.000,0
2026-01-30 22:21:05,2999724,5454.000,59.000,7471.000,-86.000,12.000,-119.000,NA,0.000,0
2026-01-30 22:21:05,2999764,4007.000,-640.000,6569.000,130.000,597.000,-142.000,NA,0.000,0
2026-01-30 22:21:05,2999804,4777.000,-868.000,6912.000,87.000,772.000,-129.000,NA,0.000,0
2026-01-30 22:21:05,2999844,4318.000,-870.000,6316.000,-311.000,834.000,-120.000,NA,0.000,0
2026-01-30 22:21:05,2999887,3559.000,319.000,7446.000,-988.000,1124.000,-839.000,NA,0.000,0
2026-01-30 22:21:05,2999926,4762.000,-536.000,6387.000,-2560.000,578.000,-864.000,NA,0.000,0
2026-01-30 22:21:05,2999964,5899.000,221.000,6538.000,-2177.000,652.000,-1054.000,NA,0.000,0
2026-01-30 22:21:05,3000004,3237.000,92.000,5280.000,-1417.000,975.000,-1049.000,NA,0.000,0
2026-01-30 22:21:05,3000044,6840.000,-2215.000,5222.000,-1686.000,469.000,-934.000,NA,0.000,0
2026-01-30 22:21:05,3000084,4862.000,-922.000,4883.000,-90.000,369.000,-818.000,NA,0.000,0
2026-01-30 22:21:05,3000124,4626.000,-909.000,5710.000,-530.000,-305.000,-1196.000,NA,0.000,0
2026-01-30 22:21:05,3000164,6545.000,-2052.000,5962.000,-804.000,-794.000,-1157.000,NA,0.000,0
2026-01-30 22:21:05,3000204,4327.000,-217.000,5764.000,233.000,-844.000,-909.000,NA,0.000,0
2026-01-30 22:21:05,3000244,7052.000,-1835.000,4963.000,-724.000,-816.000,-426.000,NA,0.000,0
2026-01-30 22:21:06,3000284,5124.000,-1980.000,7409.000,456.000,-567.000,-465.000,NA,0.000,0
2026-01-30 22:21:06,3000324,7795.000,-3414.000,4951.000,72.000,-1308.000,833.000,NA,0.000,0
2026-01-30 22:21:06,3000364,4995.000,-2606.000,7514.000,684.000,-535.000,309.000,NA,0.000,0
2026-01-30 22:21:06,3000404,4555.000,-579.000,6700.000,1012.000,-110.000,433.000,NA,0.000,0
2026-01-30 22:21:06,3000444,3654.000,-1591.000,7779.000,207.000,187.000,770.000,NA,0.000,0
2026-01-30 22:21:06,3000484,6228.000,-1644.000,7083.000,-690.000,-120.000,998.000,NA,0.000,0
2026-01-30 22:21:06,3000524,3005.000,-1300.000,6315.000,-233.000,126.000,987.000,NA,0.000,0
2026-01-30 22:21:06,3000564,6367.000,-1599.000,6523.000,-1616.000,122.000,1240.000,NA,0.000,0
2026-01-30 22:21:06,3000604,5427.000,-627.000,4334.000,-1719.000,731.000,525.000,NA,0.000,0
2026-01-30 22:21:06,3000644,4518.000,116.000,6602.000,-484.000,377.000,398.000,NA,0.000,0
2026-01-30 22:21:06,3000684,8334.000,-3757.000,5856.000,-2988.000,-344.000,813.000,NA,0.000,0
2026-01-30 22:21:06,3000724,6446.000,-155.000,6352.000,-1540.000,463.000,-1167.000,NA,0.000,0
2026-01-30 22:21:06,3000764,8486.000,-2136.000,6002.000,-2305.000,1961.000,-1302.000,NA,0.000,0
2026-01-30 22:21:06,3000804,8073.000,452.000,6605.000,3809.000,4984.000,-3522.000,NA,0.000,0
2026-01-30 22:21:06,3000844,6907.000,465.000,3426.000,6321.000,6999.000,-2630.000,NA,0.000,0
2026-01-30 22:21:06,3000884,8062.000,1151.000,1344.000,7469.000,5809.000,-3619.000,NA,0.000,0
2026-01-30 22:21:06,3000924,6033.000,6021.000,6694.000,8172.000,5130.000,-7481.000,NA,0.000,0
2026-01-30 22:21:06,3000964,1690.000,6202.000,6756.000,5919.000,2675.000,-9437.000,NA,0.000,0
2026-01-30 22:21:06,3001004,-703.000,4116.000,7227.000,7599.000,-1387.000,-11195.000,NA,0.000,0
2026-01-30 22:21:06,3001044,-1259.000,2815.000,6425.000,10518.000,-4757.000,-10662.000,NA,0.000,0
2026-01-30 22:21:06,3001084,2085.000,1709.000,7675.000,7855.000,-8319.000,-9335.000,NA,0.000,0
2026-01-30 22:21:06,3001124,1316.000,-1648.000,3516.000,-140.000,-10025.000,-3311.000,NA,0.000,0
2026-01-30 22:21:06,3001164,9064.000,1694.000,7859.000,3475.000,-11846.000,-771.000,NA,0.000,0
2026-01-30 22:21:06,3001204,7844.000,2034.000,5179.000,1486.000,-9559.000,2406.000,NA,0.000,0
2026-01-30 22:21:06,3001244,12434.000,4894.000,9223.000,-4435.000,-8921.000,2205.000,NA,0.000,0
2026-01-30 22:21:07,3001284,8949.000,5149.000,10838.000,1598.000,-3296.000,-1854.000,NA,0.000,0
2026-01-30 22:21:07,3001324,6249.000,3863.000,2377.000,1246.000,-1705.000,-1653.000,NA,0.000,0
2026-01-30 22:21:07,3001364,4412.000,4509.000,-601.000,2765.000,-1840.000,-1694.000,NA,0.000,0
2026-01-30 22:21:07,3001404,6020.000,4357.000,738.000,-3593.000,-2597.000,-1806.000,NA,0.000,0
2026-01-30 22:21:07,3001444,8155.000,5694.000,6262.000,700.000,-500.000,-1307.000,NA,0.000,0
2026-01-30 22:21:07,3001484,6860.000,5391.000,2382.000,979.000,1509.000,-3957.000,NA,0.000,0
2026-01-30 22:21:07,3001524,5628.000,6396.000,4153.000,279.000,810.000,-3195.000,NA,0.000,0
2026-01-30 22:21:07,3001564,6063.000,5281.000,3779.000,-1621.000,712.000,-3391.000,NA,0.000,0
2026-01-30 22:21:07,3001604,4416.000,7762.000,3799.000,402.000,972.000,-4240.000,NA,0.000,0
2026-01-30 22:21:07,3001644,4909.000,4821.000,2589.000,-4465.000,1953.000,-3326.000,NA,0.000,0
2026-01-30 22:21:07,3001684,2960.000,4073.000,1991.000,2060.000,1435.000,-2359.000,NA,0.000,0
2026-01-30 22:21:07,3001724,3743.000,10211.000,3345.000,2845.000,-395.000,-2672.000,NA,0.000,0
2026-01-30 22:21:07,3001764,3078.000,3316.000,4158.000,-4528.000,652.000,-1597.000,NA,0.000,0
2026-01-30 22:21:07,3001804,2805.000,7023.000,5120.000,1766.000,784.000,-1186.000,NA,0.000,0
2026-01-30 22:21:07,3001844,2179.000,6149.000,3150.000,-795.000,923.000,-1400.000,NA,0.000,0
2026-01-30 22:21:07,3001887,3270.000,6733.000,4788.000,-5465.000,483.000,-682.000,NA,0.000,0
2026-01-30 22:21:07,3001924,3219.000,5855.000,4575.000,-5165.000,1222.000,-467.000,NA,0.000,0
2026-01-30 22:21:07,3001964,3416.000,6069.000,4166.000,-4794.000,1735.000,260.000,NA,0.000,0
2026-01-30 22:21:07,3002004,3939.000,4831.000,5149.000,-5728.000,2343.000,1042.000,NA,0.000,0
2026-01-30 22:21:07,3002044,2712.000,4687.000,5215.000,-3458.000,2458.000,980.000,NA,0.000,0
2026-01-30 22:21:07,3002084,2455.000,4451.000,6889.000,-3055.000,2122.000,1270.000,NA,0.000,0
2026-01-30 22:21:07,3002127,720.000,1072.000,5210.000,337.000,3677.000,2845.000,NA,0.000,0
2026-01-30 22:21:07,3002164,1164.000,1679.000,5811.000,2453.000,3587.000,4146.000,NA,0.000,0
2026-01-30 22:21:07,3002204,1965.000,750.000,4825.000,6147.000,3164.000,6981.000,NA,0.000,0
2026-01-30 22:21:07,3002244,5018.000,5472.000,1548.000,14602.000,1396.000,7055.000,NA,0.000,0
2026-01-30 22:21:08,3002284,7349.000,12528.000,4093.000,14610.000,2191.000,5384.000,NA,0.000,0
2026-01-30 22:21:08,3002324,3245.000,5970.000,-1215.000,6418.000,1735.000,3760.000,NA,0.000,0
2026-01-30 22:21:08,3002364,2489.000,6566.000,1542.000,13037.000,-798.000,1387.000,NA,0.000,0
2026-01-30 22:21:08,3002404,3503.000,5513.000,-518.000,14786.000,-266.000,2160.000,NA,0.000,0
2026-01-30 22:21:08,3002444,4948.000,6797.000,-1502.000,12468.000,865.000,2763.000,NA,0.000,0
2026-01-30 22:21:08,3002484,3439.000,5549.000,-177.000,7779.000,-136.000,3770.000,NA,0.000,0
2026-01-30 22:21:08,3002524,5029.000,4523.000,-72.000,7996.000,314.000,5916.000,NA,0.000,0
2026-01-30 22:21:08,3002564,7434.000,6261.000,-2912.000,11528.000,967.000,6694.000,NA,0.000,0
2026-01-30 22:21:08,3002604,7416.000,8199.000,-3600.000,6637.000,1011.000,5888.000,NA,0.000,0
2026-01-30 22:21:08,3002644,7801.000,3918.000,-2585.000,-1083.000,6.000,2325.000,NA,0.000,0
2026-01-30 22:21:08,3002684,7536.000,5945.000,-1851.000,2332.000,-668.000,204.000,NA,0.000,0
2026-01-30 22:21:08,3002724,7963.000,4314.000,-1710.000,-2598.000,-757.000,377.000,NA,0.000,0
2026-01-30 22:21:08,3002764,6514.000,4884.000,-1219.000,-1106.000,499.000,-182.000,NA,0.000,0
2026-01-30 22:21:08,3002804,6108.000,4509.000,-837.000,-2198.000,1041.000,880.000,NA,0.000,0
2026-01-30 22:21:08,3002844,6103.000,8384.000,-918.000,-5324.000,456.000,1238.000,NA,0.000,0
2026-01-30 22:21:08,3002884,7215.000,7779.000,-1183.000,-13279.000,-2.000,1428.000,NA,0.000,0
2026-01-30 22:21:08,3002924,6098.000,9688.000,-718.000,-8888.000,52.000,-1671.000,NA,0.000,0
2026-01-30 22:21:08,3002964,6300.000,6473.000,869.000,-8726.000,627.000,-2335.000,NA,0.000,0
2026-01-30 22:21:08,3003004,9273.000,8658.000,3070.000,-9492.000,1898.000,-5762.000,NA,0.000,0
2026-01-30 22:21:08,3003044,8253.000,4667.000,3514.000,-10586.000,4492.000,-6680.000,NA,0.000,0
2026-01-30 22:21:08,3003084,7894.000,3049.000,4044.000,-7313.000,6154.000,-6958.000,NA,0.000,0
2026-01-30 22:21:08,3003124,6720.000,2870.000,4071.000,-3812.000,7698.000,-6689.000,NA,0.000,0
2026-01-30 22:21:08,3003164,6021.000,3360.000,3991.000,-4943.000,8842.000,-5012.000,NA,0.000,0
2026-01-30 22:21:08,3003204,4387.000,3060.000,3749.000,-5724.000,9381.000,-3026.000,NA,0.000,0
2026-01-30 22:21:08,3003244,3226.000,2287.000,4044.000,-7212.000,9112.000,391.000,NA,0.000,0
2026-01-30 22:21:09,3003284,1483.000,1830.000,3236.000,-3765.000,7899.000,2197.000,NA,0.000,0
2026-01-30 22:21:09,3003324,142.000,3080.000,4092.000,-983.000,5524.000,3931.000,NA,0.000,0
2026-01-30 22:21:09,3003364,-1064.000,5774.000,6422.000,1565.000,4037.000,5372.000,NA,0.000,0
2026-01-30 22:21:09,3003404,-1570.000,6142.000,4206.000,4380.000,2551.000,6811.000,NA,0.000,0
2026-01-30 22:21:09,3003444,-419.000,8867.000,5453.000,240.000,1105.000,7281.000,NA,0.000,0
2026-01-30 22:21:09,3003484,1051.000,8462.000,5201.000,-5393.000,-450.000,7291.000,NA,0.000,0
2026-01-30 22:21:09,3003524,1976.000,6949.000,4780.000,-2174.000,-1594.000,4623.000,NA,0.000,0
2026-01-30 22:21:09,3003564,2529.000,4463.000,4709.000,-2497.000,-1989.000,4547.000,NA,0.000,0
2026-01-30 22:21:09,3003604,5682.000,7206.000,5260.000,-1617.000,-3090.000,3673.000,NA,0.000,0
2026-01-30 22:21:09,3003644,6295.000,4061.000,2605.000,-5190.000,-3866.000,2543.000,NA,0.000,0
2026-01-30 22:21:09,3003684,8557.000,-2394.000,8790.000,-8574.000,-2371.000,3309.000,NA,0.000,0
2026-01-30 22:21:09,3003724,7766.000,7472.000,10504.000,-572.000,260.000,1099.000,NA,0.000,0
2026-01-30 22:21:09,3003764,3834.000,-923.000,8207.000,-13872.000,384.000,-1964.000,NA,0.000,0
2026-01-30 22:21:09,3003804,2444.000,-266.000,8510.000,-11173.000,1530.000,-1683.000,NA,0.000,0
2026-01-30 22:21:09,3003844,1927.000,-607.000,4441.000,-5700.000,1914.000,-626.000,NA,0.000,0
2026-01-30 22:21:09,3003887,3511.000,2315.000,5904.000,-2821.000,-1188.000,-2773.000,NA,0.000,0
2026-01-30 22:21:09,3003926,4094.000,-3882.000,4241.000,-4.000,-1735.000,-1436.000,NA,0.000,0
