datetime_local,uptime_ms,acc_x,acc_y,acc_z,gyro_x,gyro_y,gyro_z,speed_mps,turn_rate_deg_s,gps_valid
2026-01-30 23:07:33,478054,-848.000,-5306.000,6509.000,-900.000,315.000,-281.000,0.000,0.000,0
2026-01-30 23:07:33,478094,-497.000,-4755.000,6513.000,-66.000,517.000,-432.000,0.000,0.000,0
2026-01-30 23:07:33,478134,-653.000,-4718.000,6749.000,480.000,605.000,-354.000,0.000,0.000,0
2026-01-30 23:07:33,478178,-630.000,-4493.000,6414.000,127.000,48.000,379.000,0.000,0.000,0
2026-01-30 23:07:34,478215,-664.000,-4333.000,6407.000,199.000,-185.000,715.000,0.000,0.000,0
2026-01-30 23:07:34,478254,-1518.000,-5066.000,6185.000,-2023.000,80.000,-1054.000,0.000,0.000,0
2026-01-30 23:07:34,478294,-215.000,-4478.000,5995.000,2632.000,-288.000,770.000,0.000,0.000,0
2026-01-30 23:07:34,478334,-663.000,-4336.000,7012.000,2305.000,-335.000,619.000,0.000,0.000,0
2026-01-30 23:07:34,478374,-745.000,-4668.000,7173.000,1118.000,-601.000,1082.000,0.000,0.000,0
2026-01-30 23:07:34,478414,-972.000,-4584.000,6876.000,1171.000,-656.000,1054.000,0.000,0.000,0
2026-01-30 23:07:34,478454,-937.000,-4334.000,7109.000,1398.000,-568.000,704.000,0.000,0.000,0
2026-01-30 23:07:34,478494,-1062.000,-4146.000,6861.000,1171.000,-441.000,494.000,0.000,0.000,0
2026-01-30 23:07:34,478534,-1315.000,-4407.000,6954.000,1290.000,-357.000,295.000,0.000,0.000,0
2026-01-30 23:07:34,478574,-1116.000,-3982.000,7097.000,1455.000,-384.000,376.000,0.000,0.000,0
2026-01-30 23:07:34,478614,-786.000,-4174.000,7557.000,1034.000,-146.000,253.000,0.000,0.000,0
2026-01-30 23:07:34,478654,-702.000,-3759.000,7528.000,1537.000,-56.000,-52.000,0.000,0.000,0
2026-01-30 23:07:34,478694,-654.000,-3563.000,7760.000,1276.000,-14.000,-137.000,0.000,0.000,0
2026-01-30 23:07:34,478734,-679.000,-3503.000,7697.000,988.000,-60.000,-144.000,0.000,0.000,0
2026-01-30 23:07:34,478774,-807.000,-3687.000,7763.000,1004.000,-31.000,-155.000,0.000,0.000,0
2026-01-30 23:07:34,478814,-788.000,-3407.000,7918.000,1421.000,-50.000,-121.000,0.000,0.000,0
2026-01-30 23:07:34,478854,-846.000,-3390.000,7995.000,1260.000,-38.000,-109.000,0.000,0.000,0
2026-01-30 23:07:34,478894,-500.000,-3440.000,8000.000,1483.000,-156.000,-195.000,0.000,0.000,0
2026-01-30 23:07:34,478934,-340.000,-3197.000,7835.000,1580.000,-70.000,-297.000,0.000,0.000,0
2026-01-30 23:07:34,478974,-68.000,-3192.000,7304.000,1623.000,-227.000,-96.000,0.000,0.000,0
2026-01-30 23:07:34,479014,-629.000,-3242.000,6373.000,2157.000,-177.000,237.000,0.000,0.000,0
2026-01-30 23:07:34,479054,-119.000,-2637.000,6336.000,3067.000,-753.000,833.000,0.000,0.000,0
2026-01-30 23:07:34,479094,650.000,-2888.000,5742.000,4351.000,-1264.000,1767.000,0.000,0.000,0
2026-01-30 23:07:34,479134,836.000,-968.000,4508.000,8097.000,-1579.000,2759.000,0.000,0.000,0
2026-01-30 23:07:34,479174,1526.000,-153.000,4447.000,7015.000,-2153.000,4507.000,0.000,0.000,0
2026-01-30 23:07:35,479214,2011.000,-1011.000,7097.000,12409.000,-2489.000,6331.000,0.000,0.000,0
2026-01-30 23:07:35,479254,1146.000,6155.000,8737.000,18009.000,-2902.000,6173.000,0.000,0.000,0
2026-01-30 23:07:35,479294,699.000,4191.000,10509.000,6772.000,-3364.000,7579.000,0.000,0.000,0
2026-01-30 23:07:35,479334,874.000,6936.000,9902.000,5754.000,-2859.000,7791.000,0.000,0.000,0
2026-01-30 23:07:35,479374,602.000,6694.000,10916.000,4597.000,-1952.000,7298.000,0.000,0.000,0
2026-01-30 23:07:35,479414,1083.000,8490.000,9469.000,-445.000,-1225.000,6261.000,0.000,0.000,0
2026-01-30 23:07:35,479454,1015.000,4002.000,9400.000,-6200.000,-1697.000,7059.000,0.000,0.000,0
2026-01-30 23:07:35,479494,1825.000,1325.000,5959.000,-2614.000,-2538.000,4987.000,0.000,0.000,0
2026-01-30 23:07:35,479534,1449.000,2147.000,7301.000,-1015.000,-1849.000,4431.000,0.000,0.000,0
2026-01-30 23:07:35,479574,2504.000,1528.000,7463.000,-488.000,-3232.000,4212.000,0.000,0.000,0
2026-01-30 23:07:35,479614,1429.000,422.000,6678.000,-1813.000,-4015.000,4337.000,0.000,0.000,0
2026-01-30 23:07:35,479654,5868.000,1481.000,7586.000,-4897.000,-4274.000,3794.000,0.000,0.000,0
2026-01-30 23:07:35,479694,1220.000,-5796.000,9325.000,-7177.000,-36.000,5250.000,0.000,0.000,0
2026-01-30 23:07:35,479734,1217.000,-3185.000,8167.000,-4830.000,-1575.000,6185.000,0.000,0.000,0
2026-01-30 23:07:35,479777,7622.000,663.000,7357.000,-469.000,-2509.000,3443.000,0.000,0.000,0
2026-01-30 23:07:35,479816,8123.000,1232.000,3028.000,-1177.000,-2275.000,1644.000,0.000,0.000,0
2026-01-30 23:07:35,479854,9858.000,-1153.000,3279.000,-2019.000,-1966.000,1244.000,0.000,0.000,0
2026-01-30 23:07:35,479894,8844.000,-5460.000,2163.000,-819.000,45.000,1555.000,0.000,0.000,0
2026-01-30 23:07:35,479934,7359.000,-4997.000,2965.000,5073.000,-566.000,1305.000,0.000,0.000,0
2026-01-30 23:07:35,479974,6373.000,-1069.000,4564.000,5828.000,-953.000,1556.000,0.000,0.000,0
2026-01-30 23:07:35,480014,6067.000,-605.000,6032.000,5045.000,-1102.000,1041.000,0.000,0.000,0
2026-01-30 23:07:35,480054,6209.000,-274.000,7451.000,4088.000,-198.000,1335.000,0.000,0.000,0
2026-01-30 23:07:35,480094,3847.000,-1444.000,6435.000,4258.000,711.000,1065.000,0.000,0.000,0
2026-01-30 23:07:35,480134,3682.000,-2560.000,7909.000,3255.000,958.000,1223.000,0.000,0.000,0
2026-01-30 23:07:35,480174,5140.000,-1941.000,9174.000,2351.000,573.000,1115.000,0.000,0.000,0
2026-01-30 23:07:36,480214,4704.000,-225.000,7563.000,2781.000,865.000,319.000,0.000,0.000,0
2026-01-30 23:07:36,480254,5112.000,-318.000,7338.000,1639.000,270.000,507.000,0.000,0.000,0
2026-01-30 23:07:36,480294,5542.000,-294.000,5806.000,121.000,617.000,802.000,0.000,0.000,0
2026-01-30 23:07:36,480334,4617.000,257.000,5839.000,325.000,602.000,337.000,0.000,0.000,0
2026-01-30 23:07:36,480374,4457.000,-2016.000,5752.000,-1168.000,490.000,449.000,0.000,0.000,0
2026-01-30 23:07:36,480414,2983.000,-844.000,7216.000,50.000,514.000,38.000,0.000,0.000,0
2026-01-30 23:07:36,480454,4518.000,-145.000,8587.000,-1525.000,690.000,858.000,0.000,0.000,0
2026-01-30 23:07:36,480494,4128.000,1234.000,5046.000,-100.000,-322.000,-124.000,0.000,0.000,0
2026-01-30 23:07:36,480534,7690.000,1215.000,7254.000,-1861.000,-701.000,386.000,0.000,0.000,0
2026-01-30 23:07:36,480574,5906.000,-1603.000,4713.000,-1622.000,704.000,-587.000,0.000,0.000,0
2026-01-30 23:07:36,480614,6150.000,-2521.000,6389.000,-1933.000,819.000,-509.000,0.000,0.000,0
2026-01-30 23:07:36,480654,5884.000,483.000,9260.000,-2793.000,1694.000,-33.000,0.000,0.000,0
2026-01-30 23:07:36,480694,2565.000,-5059.000,6890.000,-1792.000,4877.000,-184.000,0.000,0.000,0
2026-01-30 23:07:36,480734,713.000,-8258.000,5546.000,1741.000,4285.000,1857.000,0.000,0.000,0
2026-01-30 23:07:36,480774,3772.000,1954.000,5726.000,9012.000,-659.000,2543.000,0.000,0.000,0
2026-01-30 23:07:36,480814,6872.000,-1039.000,5697.000,7309.000,-1127.000,123.000,0.000,0.000,0
2026-01-30 23:07:36,480854,4155.000,-699.000,7087.000,6537.000,318.000,184.000,0.000,0.000,0
2026-01-30 23:07:36,480894,5175.000,1798.000,7073.000,3574.000,-767.000,591.000,0.000,0.000,0
2026-01-30 23:07:36,480934,6157.000,1319.000,6183.000,3913.000,-13.000,-411.000,0.000,0.000,0
2026-01-30 23:07:36,480974,5486.000,1449.000,5203.000,3093.000,1081.000,413.000,0.000,0.000,0
2026-01-30 23:07:36,481014,5386.000,794.000,6120.000,3824.000,2304.000,652.000,0.000,0.000,0
2026-01-30 23:07:36,481054,3464.000,1085.000,9540.000,4475.000,2477.000,1142.000,0.000,0.000,0
2026-01-30 23:07:36,481094,1432.000,2617.000,8499.000,4457.000,2232.000,1428.000,0.000,0.000,0
2026-01-30 23:07:36,481134,3010.000,-67.000,8055.000,2051.000,1121.000,1970.000,0.000,0.000,0
2026-01-30 23:07:36,481174,2529.000,1558.000,8928.000,2170.000,1077.000,1855.000,0.000,0.000,0
2026-01-30 23:07:37,481214,1917.000,1086.000,7943.000,1309.000,651.000,1145.000,0.000,0.000,0
2026-01-30 23:07:37,481254,2353.000,2162.000,9418.000,186.000,705.000,1059.000,0.000,0.000,0
2026-01-30 23:07:37,481294,2237.000,2159.000,8699.000,-395.000,776.000,843.000,0.000,0.000,0
2026-01-30 23:07:37,481334,1892.000,1771.000,9158.000,-633.000,1026.000,1203.000,0.000,0.000,0
2026-01-30 23:07:37,481374,2158.000,2357.000,7916.000,-586.000,469.000,961.000,0.000,0.000,0
2026-01-30 23:07:37,481414,2269.000,1534.000,7353.000,-1021.000,790.000,714.000,0.000,0.000,0
2026-01-30 23:07:37,481454,3898.000,3381.000,7802.000,-534.000,668.000,810.000,0.000,0.000,0
2026-01-30 23:07:37,481494,1820.000,776.000,7618.000,-1111.000,1382.000,1068.000,0.000,0.000,0
2026-01-30 23:07:37,481534,4978.000,-300.000,6149.000,552.000,-502.000,1465.000,0.000,0.000,0
2026-01-30 23:07:37,481574,3073.000,748.000,7144.000,627.000,238.000,862.000,0.000,0.000,0
2026-01-30 23:07:37,481614,2684.000,268.000,8196.000,102.000,5.000,987.000,0.000,0.000,0
2026-01-30 23:07:37,481654,2846.000,1518.000,7444.000,425.000,108.000,785.000,0.000,0.000,0
2026-01-30 23:07:37,481694,3453.000,1293.000,7928.000,442.000,-49.000,897.000,0.000,0.000,0
2026-01-30 23:07:37,481734,3856.000,946.000,5843.000,282.000,-896.000,997.000,0.000,0.000,0
2026-01-30 23:07:37,481774,4300.000,656.000,8580.000,1026.000,-626.000,879.000,0.000,0.000,0
2026-01-30 23:07:37,481817,4036.000,1016.000,6509.000,1060.000,-800.000,954.000,0.000,0.000,0
2026-01-30 23:07:37,481859,2696.000,1690.000,7957.000,1290.000,92.000,1121.000,0.000,0.000,0
2026-01-30 23:07:37,481894,1118.000,1589.000,9077.000,1127.000,454.000,990.000,0.000,0.000,0
2026-01-30 23:07:37,481934,1732.000,856.000,9979.000,233.000,775.000,1296.000,0.000,0.000,0
2026-01-30 23:07:37,481974,-799.000,1023.000,8315.000,-424.000,1250.000,846.000,0.000,0.000,0
2026-01-30 23:07:37,482014,1817.000,3245.000,10376.000,-105.000,447.000,426.000,0.000,0.000,0
2026-01-30 23:07:37,482057,2608.000,1573.000,7586.000,-3893.000,-106.000,-448.000,0.000,0.000,0
2026-01-30 23:07:37,482094,5010.000,1839.000,6153.000,-3532.000,-841.000,-347.000,0.000,0.000,0
2026-01-30 23:07:37,482134,2618.000,-2253.000,4856.000,-4070.000,-308.000,-179.000,0.000,0.000,0
2026-01-30 23:07:37,482174,3397.000,-289.000,9536.000,-1912.000,-1766.000,6.000,0.000,0.000,0
2026-01-30 23:07:38,482214,3944.000,1615.000,8208.000,-5662.000,-2373.000,-1430.000,0.000,0.000,0
2026-01-30 23:07:38,482254,4287.000,-1793.000,7710.000,-8495.000,-3544.000,-1735.000,0.000,0.000,0
2026-01-30 23:07:38,482294,5028.000,-262.000,6431.000,-5824.000,-4511.000,-1225.000,0.000,0.000,0
2026-01-30 23:07:38,482334,4326.000,-3034.000,2028.000,-4294.000,-3777.000,-376.000,0.000,0.000,0
2026-01-30 23:07:38,482374,5707.000,-4283.000,2101.000,4259.000,-3313.000,-199.000,0.000,0.000,0
2026-01-30 23:07:38,482414,6330.000,4163.000,9493.000,9913.000,-979.000,147.000,0.000,0.000,0
2026-01-30 23:07:38,482454,5393.000,-712.000,10176.000,1986.000,367.000,1188.000,0.000,0.000,0
2026-01-30 23:07:38,482494,4467.000,-584.000,6391.000,645.000,-209.000,402.000,0.000,0.000,0
2026-01-30 23:07:38,482534,5205.000,841.000,6769.000,-389.000,2.000,134.000,0.000,0.000,0
2026-01-30 23:07:38,482574,4637.000,-211.000,7279.000,-167.000,298.000,16.000,0.000,0.000,0
2026-01-30 23:07:38,482614,5314.000,-561.000,6674.000,-569.000,-39.000,171.000,0.000,0.000,0
2026-01-30 23:07:38,482654,4793.000,279.000,7359.000,-552.000,-290.000,102.000,0.000,0.000,0
2026-01-30 23:07:38,482694,4643.000,-1113.000,5691.000,-779.000,-347.000,160.000,0.000,0.000,0
2026-01-30 23:07:38,482734,5011.000,1211.000,6757.000,7.000,-143.000,147.000,0.000,0.000,0
2026-01-30 23:07:38,482774,5462.000,-617.000,6059.000,-651.000,-208.000,39.000,0.000,0.000,0
2026-01-30 23:07:38,482814,4986.000,-649.000,6742.000,414.000,199.000,152.000,0.000,0.000,0
2026-01-30 23:07:38,482854,4723.000,-481.000,6975.000,630.000,100.000,165.000,0.000,0.000,0
2026-01-30 23:07:38,482894,5064.000,-424.000,6490.000,815.000,-148.000,185.000,0.000,0.000,0
2026-01-30 23:07:38,482934,4472.000,-359.000,6522.000,798.000,-215.000,134.000,0.000,0.000,0
2026-01-30 23:07:38,482974,5464.000,-746.000,6527.000,742.000,-374.000,368.000,0.000,0.000,0
2026-01-30 23:07:38,483014,4728.000,-1103.000,5998.000,1086.000,53.000,119.000,0.000,0.000,0
2026-01-30 23:07:38,483054,4968.000,-320.000,6697.000,1148.000,-82.000,-202.000,0.000,0.000,0
2026-01-30 23:07:38,483094,5087.000,-504.000,6461.000,1154.000,-395.000,66.000,0.000,0.000,0
2026-01-30 23:07:38,483134,4601.000,449.000,7253.000,1155.000,-341.000,96.000,0.000,0.000,0
2026-01-30 23:07:38,483174,5558.000,-374.000,6564.000,530.000,-455.000,295.000,0.000,0.000,0
2026-01-30 23:07:39,483214,4672.000,-29.000,7190.000,641.000,-249.000,339.000,0.000,0.000,0
2026-01-30 23:07:39,483254,5009.000,-192.000,6256.000,618.000,-251.000,337.000,0.000,0.000,0
2026-01-30 23:07:39,483294,5254.000,-223.000,6790.000,431.000,-165.000,339.000,0.000,0.000,0
2026-01-30 23:07:39,483334,5347.000,88.000,6110.000,590.000,-166.000,309.000,0.000,0.000,0
2026-01-30 23:07:39,483374,5815.000,172.000,6357.000,188.000,215.000,234.000,0.000,0.000,0
2026-01-30 23:07:39,483414,5559.000,284.000,6745.000,494.000,-45.000,229.000,0.000,0.000,0
2026-01-30 23:07:39,483454,5185.000,421.000,6989.000,951.000,24.000,453.000,0.000,0.000,0
2026-01-30 23:07:39,483494,5008.000,84.000,6479.000,797.000,205.000,374.000,0.000,0.000,0
2026-01-30 23:07:39,483534,5026.000,-451.000,6273.000,605.000,166.000,435.000,0.000,0.000,0
2026-01-30 23:07:39,483574,5136.000,162.000,6852.000,586.000,468.000,331.000,0.000,0.000,0
2026-01-30 23:07:39,483614,6143.000,870.000,7577.000,3.000,286.000,71.000,0.000,0.000,0
2026-01-30 23:07:39,483654,4822.000,857.000,7330.000,227.000,497.000,-50.000,0.000,0.000,0
2026-01-30 23:07:39,483694,5089.000,72.000,7061.000,-521.000,260.000,-33.000,0.000,0.000,0
2026-01-30 23:07:39,483734,5187.000,544.000,6319.000,-340.000,70.000,3.000,0.000,0.000,0
2026-01-30 23:07:39,483774,4501.000,1145.000,7677.000,-177.000,365.000,-74.000,0.000,0.000,0
2026-01-30 23:07:39,483814,5158.000,-790.000,6518.000,-1015.000,227.000,177.000,0.000,0.000,0
2026-01-30 23:07:39,483855,4790.000,320.000,6568.000,-390.000,333.000,-61.000,0.000,0.000,0
2026-01-30 23:07:39,483894,5408.000,700.000,6914.000,-222.000,445.000,45.000,0.000,0.000,0
2026-01-30 23:07:39,483934,4642.000,-408.000,6512.000,57.000,486.000,298.000,0.000,0.000,0
2026-01-30 23:07:39,483974,6075.000,-290.000,5824.000,-360.000,-234.000,216.000,0.000,0.000,0
2026-01-30 23:07:39,484014,4856.000,174.000,6107.000,853.000,-412.000,603.000,0.000,0.000,0
2026-01-30 23:07:39,484057,5905.000,530.000,5624.000,813.000,-119.000,670.000,0.000,0.000,0
2026-01-30 23:07:39,484094,7199.000,405.000,7602.000,398.000,250.000,440.000,0.000,0.000,0
2026-01-30 23:07:39,484134,4088.000,-181.000,6689.000,-112.000,704.000,225.000,0.000,0.000,0
2026-01-30 23:07:39,484174,4896.000,-446.000,8520.000,-81.000,263.000,1007.000,0.000,0.000,0
2026-01-30 23:07:40,484214,3756.000,497.000,7631.000,-323.000,-84.000,1340.000,0.000,0.000,0
2026-01-30 23:07:40,484254,5286.000,-899.000,6874.000,-632.000,-268.000,1312.000,0.000,0.000,0
2026-01-30 23:07:40,484294,4530.000,-241.000,6296.000,686.000,180.000,802.000,0.000,0.000,0
2026-01-30 23:07:40,484334,4450.000,-610.000,6332.000,371.000,130.000,705.000,0.000,0.000,0
2026-01-30 23:07:40,484374,4478.000,-215.000,6143.000,620.000,296.000,687.000,0.000,0.000,0
2026-01-30 23:07:40,484414,4491.000,-283.000,6942.000,914.000,489.000,606.000,0.000,0.000,0
2026-01-30 23:07:40,484454,4142.000,711.000,7503.000,771.000,594.000,332.000,0.000,0.000,0
2026-01-30 23:07:40,484494,4412.000,-152.000,6354.000,-313.000,1097.000,209.000,0.000,0.000,0
2026-01-30 23:07:40,484534,3799.000,351.000,7502.000,945.000,1360.000,-348.000,0.000,0.000,0
2026-01-30 23:07:40,484574,4345.000,143.000,7380.000,493.000,939.000,-252.000,0.000,0.000,0
2026-01-30 23:07:40,484614,3639.000,-122.000,7743.000,-30.000,729.000,-476.000,0.000,0.000,0
2026-01-30 23:07:40,484654,3898.000,742.000,8062.000,-1027.000,114.000,-682.000,0.000,0.000,0
2026-01-30 23:07:40,484694,4091.000,1307.000,6446.000,-1324.000,-27.000,-946.000,0.000,0.000,0
2026-01-30 23:07:40,484734,4844.000,406.000,7085.000,-1602.000,-155.000,-410.000,0.000,0.000,0
2026-01-30 23:07:40,484774,2942.000,-416.000,5821.000,-391.000,91.000,-388.000,0.000,0.000,0
2026-01-30 23:07:40,484814,5918.000,-777.000,7056.000,-1683.000,-176.000,-131.000,0.000,0.000,0
2026-01-30 23:07:40,484854,5044.000,-676.000,7122.000,-12.000,-187.000,-147.000,0.000,0.000,0
2026-01-30 23:07:40,484894,5076.000,63.000,6729.000,-140.000,-834.000,-177.000,0.000,0.000,0
2026-01-30 23:07:40,484934,4918.000,148.000,6461.000,-513.000,-719.000,-198.000,0.000,0.000,0
2026-01-30 23:07:40,484974,4898.000,-17.000,7463.000,-246.000,-1203.000,5.000,0.000,0.000,0
2026-01-30 23:07:40,485014,4878.000,-604.000,5972.000,27.000,-1630.000,257.000,0.000,0.000,0
2026-01-30 23:07:40,485054,5622.000,-82.000,6407.000,-333.000,-1466.000,817.000,0.000,0.000,0
2026-01-30 23:07:40,485094,4214.000,-855.000,6288.000,350.000,-766.000,895.000,0.000,0.000,0
2026-01-30 23:07:40,485134,5053.000,342.000,7346.000,139.000,-719.000,999.000,0.000,0.000,0
2026-01-30 23:07:40,485174,4779.000,-1548.000,6404.000,-386.000,-205.000,1076.000,0.000,0.000,0
2026-01-30 23:07:41,485214,4888.000,245.000,6662.000,-89.000,297.000,336.000,0.000,0.000,0
2026-01-30 23:07:41,485254,5078.000,13.000,7007.000,-394.000,500.000,-229.000,0.000,0.000,0
2026-01-30 23:07:41,485294,4727.000,914.000,7692.000,-386.000,1170.000,-1107.000,0.000,0.000,0
2026-01-30 23:07:41,485334,4212.000,422.000,6992.000,-813.000,942.000,-819.000,0.000,0.000,0
2026-01-30 23:07:41,485374,4795.000,-681.000,7303.000,-1571.000,246.000,-244.000,0.000,0.000,0
2026-01-30 23:07:41,485414,4080.000,167.000,6788.000,-1012.000,301.000,-673.000,0.000,0.000,0
2026-01-30 23:07:41,485454,4884.000,374.000,6530.000,-813.000,-217.000,-664.000,0.000,0.000,0
2026-01-30 23:07:41,485494,5237.000,-714.000,6276.000,-778.000,-35.000,-504.000,0.000,0.000,0
2026-01-30 23:07:41,485534,4593.000,-350.000,7083.000,223.000,78.000,-607.000,0.000,0.000,0
2026-01-30 23:07:41,485574,5065.000,-702.000,6685.000,609.000,-971.000,47.000,0.000,0.000,0
2026-01-30 23:07:41,485614,5314.000,-759.000,6529.000,257.000,-792.000,91.000,0.000,0.000,0
2026-01-30 23:07:41,485654,6110.000,-1839.000,6335.000,128.000,-598.000,46.000,0.000,0.000,0
2026-01-30 23:07:41,485694,3863.000,-417.000,6630.000,1227.000,-159.000,-483.000,0.000,0.000,0
2026-01-30 23:07:41,485734,5071.000,40.000,6655.000,927.000,-784.000,151.000,0.000,0.000,0
2026-01-30 23:07:41,485774,5877.000,-689.000,6122.000,-2.000,-877.000,-22.000,0.000,0.000,0
2026-01-30 23:07:41,485814,4616.000,623.000,7213.000,693.000,-375.000,-658.000,0.000,0.000,0
2026-01-30 23:07:41,485854,6171.000,-926.000,5757.000,-545.000,-593.000,17.000,0.000,0.000,0
2026-01-30 23:07:41,485894,5659.000,-1292.000,6680.000,-772.000,421.000,-527.000,0.000,0.000,0
2026-01-30 23:07:41,485934,5623.000,-449.000,6985.000,-420.000,212.000,-914.000,0.000,0.000,0
2026-01-30 23:07:41,485974,4856.000,44.000,6795.000,-1213.000,550.000,-1310.000,0.000,0.000,0
2026-01-30 23:07:41,486014,5552.000,-893.000,6273.000,-1170.000,535.000,-404.000,0.000,0.000,0
2026-01-30 23:07:41,486057,5352.000,-924.000,7035.000,-752.000,557.000,-819.000,0.000,0.000,0
2026-01-30 23:07:41,486094,5343.000,-581.000,8429.000,-157.000,426.000,-676.000,0.000,0.000,0
2026-01-30 23:07:41,486134,5133.000,366.000,8072.000,-1142.000,-16.000,-470.000,0.000,0.000,0
2026-01-30 23:07:41,486174,6700.000,654.000,8530.000,-4227.000,-60.000,-712.000,0.000,0.000,0
2026-01-30 23:07:42,486214,4039.000,2648.000,6687.000,-7846.000,1007.000,-82.000,0.000,0.000,0
2026-01-30 23:07:42,486254,4310.000,-1428.000,6170.000,-12261.000,547.000,-1022.000,0.000,0.000,0
2026-01-30 23:07:42,486294,3921.000,-4691.000,5264.000,-10638.000,1120.000,-1.000,0.000,0.000,0
2026-01-30 23:07:42,486334,3634.000,-4629.000,6666.000,-10536.000,1495.000,-861.000,0.000,0.000,0
2026-01-30 23:07:42,486374,4772.000,-4805.000,5857.000,-8633.000,135.000,-347.000,0.000,0.000,0
2026-01-30 23:07:42,486414,5837.000,-5926.000,5756.000,-7956.000,284.000,-311.000,0.000,0.000,0
2026-01-30 23:07:42,486454,5327.000,-3740.000,5325.000,-6585.000,1616.000,-296.000,0.000,0.000,0
2026-01-30 23:07:42,486494,4732.000,-7339.000,4487.000,-7448.000,2610.000,430.000,0.000,0.000,0
2026-01-30 23:07:42,486534,4209.000,-6426.000,3998.000,-2614.000,2626.000,720.000,0.000,0.000,0
2026-01-30 23:07:42,486574,3273.000,-5220.000,5015.000,-1487.000,2600.000,737.000,0.000,0.000,0
2026-01-30 23:07:42,486614,4143.000,-5582.000,4776.000,-1590.000,1597.000,675.000,0.000,0.000,0
2026-01-30 23:07:42,486654,4030.000,-6013.000,4013.000,-1082.000,804.000,1140.000,0.000,0.000,0
2026-01-30 23:07:42,486694,4504.000,-6867.000,3351.000,-388.000,211.000,64.000,0.000,0.000,0
2026-01-30 23:07:42,486734,5634.000,-7652.000,3269.000,1223.000,17.000,-78.000,0.000,0.000,0
2026-01-30 23:07:42,486774,6186.000,-6789.000,3284.000,4227.000,285.000,781.000,0.000,0.000,0
2026-01-30 23:07:42,486814,5136.000,-5024.000,2692.000,4603.000,1102.000,1935.000,0.000,0.000,0
2026-01-30 23:07:42,486854,4268.000,-4484.000,2923.000,2901.000,1069.000,2563.000,0.000,0.000,0
2026-01-30 23:07:42,486894,2666.000,-4087.000,2919.000,2880.000,1027.000,2480.000,0.000,0.000,0
2026-01-30 23:07:42,486934,2832.000,-4344.000,4104.000,1823.000,-647.000,2030.000,0.000,0.000,0
2026-01-30 23:07:42,486974,2900.000,-4578.000,4655.000,1826.000,-1410.000,1972.000,0.000,0.000,0
2026-01-30 23:07:42,487014,4272.000,-5538.000,6518.000,2415.000,-1720.000,2138.000,0.000,0.000,0
2026-01-30 23:07:42,487054,4767.000,-5172.000,6490.000,4590.000,307.000,4255.000,0.000,0.000,0
2026-01-30 23:07:42,487094,2000.000,-4617.000,6805.000,4284.000,2409.000,4786.000,0.000,0.000,0
2026-01-30 23:07:42,487134,702.000,-4403.000,7231.000,4935.000,2190.000,3536.000,0.000,0.000,0
2026-01-30 23:07:42,487174,253.000,-3234.000,8974.000,4191.000,762.000,2163.000,0.000,0.000,0
2026-01-30 23:07:43,487214,2088.000,-2736.000,7836.000,335.000,235.000,2126.000,0.000,0.000,0
2026-01-30 23:07:43,487254,664.000,-3678.000,6748.000,-2253.000,1252.000,1785.000,0.000,0.000,0
2026-01-30 23:07:43,487294,1554.000,-3850.000,6177.000,-137.000,1224.000,860.000,0.000,0.000,0
2026-01-30 23:07:43,487334,-1096.000,-2356.000,6300.000,2069.000,2162.000,-429.000,0.000,0.000,0
2026-01-30 23:07:43,487374,-1217.000,-2609.000,6649.000,747.000,388.000,-1553.000,0.000,0.000,0
2026-01-30 23:07:43,487414,-197.000,-3221.000,6184.000,988.000,-459.000,-1473.000,0.000,0.000,0
2026-01-30 23:07:43,487454,286.000,-2759.000,5324.000,1575.000,-427.000,-1442.000,0.000,0.000,0
2026-01-30 23:07:43,487494,361.000,-2297.000,4751.000,2093.000,-224.000,-1751.000,0.000,0.000,0
2026-01-30 23:07:43,487534,469.000,-2472.000,4235.000,3813.000,-596.000,-1599.000,0.000,0.000,0
2026-01-30 23:07:43,487574,35.000,-1616.000,6433.000,5215.000,-1872.000,-1309.000,0.000,0.000,0
2026-01-30 23:07:43,487614,837.000,-2209.000,7634.000,3839.000,-3767.000,-956.000,0.000,0.000,0
2026-01-30 23:07:43,487654,2184.000,-1837.000,8844.000,3115.000,-5560.000,-143.000,0.000,0.000,0
2026-01-30 23:07:43,487694,2924.000,-2692.000,7348.000,301.000,-5567.000,-184.000,0.000,0.000,0
2026-01-30 23:07:43,487734,4567.000,-2802.000,7234.000,1963.000,-6254.000,-347.000,0.000,0.000,0
2026-01-30 23:07:43,487779,6075.000,-1274.000,6916.000,-1.000,-6731.000,-228.000,0.000,0.000,0
2026-01-30 23:07:43,487814,7189.000,-1474.000,7117.000,-1605.000,-7195.000,143.000,0.000,0.000,0
2026-01-30 23:07:43,487854,9098.000,-2407.000,8170.000,-4570.000,-6325.000,78.000,0.000,0.000,0
2026-01-30 23:07:43,487894,8458.000,-6940.000,9112.000,-4755.000,-2960.000,184.000,0.000,0.000,0
2026-01-30 23:07:43,487934,6066.000,-3460.000,5911.000,-5569.000,-495.000,240.000,0.000,0.000,0
2026-01-30 23:07:43,487974,5393.000,-4418.000,4370.000,-11734.000,-1010.000,-361.000,0.000,0.000,0
2026-01-30 23:07:43,488014,5920.000,-6369.000,4855.000,-9519.000,-1862.000,-596.000,0.000,0.000,0
2026-01-30 23:07:43,488057,6919.000,-6976.000,2353.000,-12654.000,-1715.000,-296.000,0.000,0.000,0
2026-01-30 23:07:43,488094,6467.000,-9318.000,3230.000,-10570.000,-948.000,-1556.000,0.000,0.000,0
2026-01-30 23:07:43,488134,5235.000,-4056.000,2061.000,-5971.000,-390.000,-1146.000,0.000,0.000,0
2026-01-30 23:07:43,488174,6274.000,-5346.000,4491.000,-5215.000,-800.000,-984.000,0.000,0.000,0
2026-01-30 23:07:44,488214,6236.000,-3481.000,1029.000,-1821.000,-220.000,570.000,0.000,0.000,0
2026-01-30 23:07:44,488254,7471.000,-6210.000,-2709.000,-370.000,-520.000,1434.000,0.000,0.000,0
2026-01-30 23:07:44,488294,4985.000,-3663.000,3841.000,499.000,1252.000,800.000,0.000,0.000,0
2026-01-30 23:07:44,488334,5996.000,-3728.000,3380.000,2012.000,739.000,1301.000,0.000,0.000,0
2026-01-30 23:07:44,488374,5842.000,-7154.000,2771.000,2048.000,604.000,1295.000,0.000,0.000,0
2026-01-30 23:07:44,488414,5947.000,-5595.000,3978.000,-426.000,605.000,704.000,0.000,0.000,0
2026-01-30 23:07:44,488454,5431.000,-5800.000,3291.000,257.000,426.000,551.000,0.000,0.000,0
2026-01-30 23:07:44,488494,5228.000,-6689.000,1746.000,-936.000,545.000,55.000,0.000,0.000,0
2026-01-30 23:07:44,488534,5834.000,-6892.000,4035.000,254.000,476.000,-580.000,0.000,0.000,0
2026-01-30 23:07:44,488574,6076.000,-6826.000,1167.000,-1846.000,-228.000,-242.000,0.000,0.000,0
2026-01-30 23:07:44,488614,6409.000,-4647.000,3652.000,209.000,190.000,-422.000,0.000,0.000,0
2026-01-30 23:07:44,488654,6379.000,-7104.000,374.000,-79.000,-47.000,-53.000,0.000,0.000,0
2026-01-30 23:07:44,488694,5526.000,-6286.000,1761.000,531.000,30.000,-373.000,0.000,0.000,0
2026-01-30 23:07:44,488734,5886.000,-4369.000,3249.000,1134.000,108.000,-820.000,0.000,0.000,0
2026-01-30 23:07:44,488774,5833.000,-4773.000,2531.000,51.000,166.000,-1018.000,0.000,0.000,0
2026-01-30 23:07:44,488814,5306.000,-4742.000,2868.000,20.000,-32.000,-811.000,0.000,0.000,0
2026-01-30 23:07:44,488854,6083.000,-7468.000,354.000,85.000,-922.000,-296.000,0.000,0.000,0
2026-01-30 23:07:44,488894,6338.000,-4858.000,1314.000,2011.000,-819.000,-607.000,0.000,0.000,0
2026-01-30 23:07:44,488934,6690.000,-4923.000,2399.000,2824.000,-1159.000,-428.000,0.000,0.000,0
2026-01-30 23:07:44,488974,6570.000,-4377.000,2306.000,2121.000,-683.000,-113.000,0.000,0.000,0
2026-01-30 23:07:44,489014,5396.000,-7476.000,1988.000,2135.000,-734.000,302.000,0.000,0.000,0
2026-01-30 23:07:44,489054,6518.000,-4549.000,2254.000,2320.000,-1656.000,344.000,0.000,0.000,0
2026-01-30 23:07:44,489094,5370.000,-5260.000,3115.000,1557.000,-1145.000,350.000,0.000,0.000,0
2026-01-30 23:07:44,489134,6180.000,-2871.000,4160.000,2438.000,-1204.000,282.000,0.000,0.000,0
2026-01-30 23:07:44,489174,8031.000,-3202.000,4883.000,786.000,-1232.000,825.000,0.000,0.000,0
2026-01-30 23:07:45,489214,6237.000,-8770.000,2910.000,-1542.000,-932.000,1257.000,0.000,0.000,0
2026-01-30 23:07:45,489254,6123.000,-5179.000,1825.000,-1024.000,-722.000,319.000,0.000,0.000,0
2026-01-30 23:07:45,489294,5850.000,-3344.000,3823.000,-193.000,-311.000,-288.000,0.000,0.000,0
2026-01-30 23:07:45,489334,4929.000,-1871.000,4356.000,235.000,598.000,-453.000,0.000,0.000,0
2026-01-30 23:07:45,489374,6522.000,-4254.000,2941.000,-34.000,668.000,381.000,0.000,0.000,0
2026-01-30 23:07:45,489414,5143.000,-4062.000,1698.000,642.000,1339.000,53.000,0.000,0.000,0
2026-01-30 23:07:45,489454,5889.000,-3415.000,2872.000,2954.000,633.000,401.000,0.000,0.000,0
2026-01-30 23:07:45,489494,7155.000,-6222.000,732.000,2608.000,-866.000,1435.000,0.000,0.000,0
2026-01-30 23:07:45,489534,7662.000,-3833.000,3817.000,1437.000,-1345.000,923.000,0.000,0.000,0
2026-01-30 23:07:45,489574,4350.000,-6683.000,-390.000,1609.000,-351.000,-662.000,0.000,0.000,0
2026-01-30 23:07:45,489614,4918.000,-3586.000,123.000,2003.000,-1139.000,-703.000,0.000,0.000,0
2026-01-30 23:07:45,489654,6002.000,-3121.000,3598.000,2754.000,-1511.000,-1057.000,0.000,0.000,0
2026-01-30 23:07:45,489694,11480.000,-3380.000,6637.000,964.000,-2197.000,196.000,0.000,0.000,0
2026-01-30 23:07:45,489734,7596.000,-10835.000,2897.000,2801.000,-108.000,-550.000,0.000,0.000,0
2026-01-30 23:07:45,489777,7749.000,-4476.000,4928.000,2483.000,614.000,-622.000,0.000,0.000,0
2026-01-30 23:07:45,489817,4971.000,-4660.000,5019.000,2897.000,604.000,-399.000,0.000,0.000,0
2026-01-30 23:07:45,489854,7547.000,-4553.000,5982.000,3464.000,-305.000,-97.000,0.000,0.000,0
2026-01-30 23:07:45,489894,6036.000,-3761.000,3845.000,1109.000,662.000,-397.000,0.000,0.000,0
2026-01-30 23:07:45,489934,5648.000,-1642.000,4908.000,-195.000,1016.000,-629.000,0.000,0.000,0
2026-01-30 23:07:45,489974,6637.000,-4151.000,2576.000,-73.000,744.000,157.000,0.000,0.000,0
2026-01-30 23:07:45,490014,6398.000,-1057.000,4950.000,-175.000,2319.000,-956.000,0.000,0.000,0
2026-01-30 23:07:45,490057,6750.000,-1869.000,4760.000,956.000,1711.000,-712.000,0.000,0.000,0
2026-01-30 23:07:45,490094,5897.000,-3153.000,4523.000,-107.000,1317.000,-606.000,0.000,0.000,0
2026-01-30 23:07:45,490134,7001.000,-2627.000,4860.000,-501.000,-11.000,-448.000,0.000,0.000,0
2026-01-30 23:07:45,490174,6957.000,-4842.000,2559.000,-3193.000,-29.000,-124.000,0.000,0.000,0
2026-01-30 23:07:46,490214,3663.000,-3227.000,3423.000,-2175.000,526.000,-692.000,0.000,0.000,0
2026-01-30 23:07:46,490254,5807.000,-1843.000,4961.000,77.000,696.000,-361.000,0.000,0.000,0
2026-01-30 23:07:46,490294,6377.000,-3562.000,4122.000,-1227.000,574.000,1.000,0.000,0.000,0
2026-01-30 23:07:46,490334,5697.000,-3840.000,3898.000,373.000,755.000,-87.000,0.000,0.000,0
2026-01-30 23:07:46,490374,5479.000,-2553.000,5729.000,744.000,372.000,238.000,0.000,0.000,0
2026-01-30 23:07:46,490414,5619.000,-4006.000,4477.000,-990.000,-446.000,976.000,0.000,0.000,0
2026-01-30 23:07:46,490454,5493.000,-4046.000,4444.000,-574.000,-334.000,130.000,0.000,0.000,0
2026-01-30 23:07:46,490494,6344.000,-3246.000,3115.000,539.000,-596.000,4.000,0.000,0.000,0
2026-01-30 23:07:46,490534,5939.000,-4344.000,4475.000,-74.000,250.000,-13.000,0.000,0.000,0
2026-01-30 23:07:46,490574,6881.000,-5746.000,5390.000,464.000,303.000,-394.000,0.000,0.000,0
2026-01-30 23:07:46,490614,3825.000,-2529.000,4184.000,-25.000,958.000,-903.000,0.000,0.000,0
2026-01-30 23:07:46,490654,5753.000,-3433.000,4655.000,1118.000,-538.000,124.000,0.000,0.000,0
2026-01-30 23:07:46,490694,6492.000,-2021.000,4640.000,616.000,-247.000,-45.000,0.000,0.000,0
2026-01-30 23:07:46,490734,6767.000,-3343.000,4736.000,-521.000,-893.000,640.000,0.000,0.000,0
2026-01-30 23:07:46,490774,7392.000,-3628.000,3857.000,-629.000,-588.000,539.000,0.000,0.000,0
2026-01-30 23:07:46,490814,5976.000,-4886.000,2760.000,-1736.000,-353.000,528.000,0.000,0.000,0
2026-01-30 23:07:46,490854,6220.000,-4735.000,3725.000,94.000,-65.000,790.000,0.000,0.000,0
2026-01-30 23:07:46,490894,5180.000,-3900.000,2684.000,3150.000,-475.000,477.000,0.000,0.000,0
2026-01-30 23:07:46,490934,5819.000,-2029.000,4313.000,3780.000,-834.000,217.000,0.000,0.000,0
2026-01-30 23:07:46,490974,6274.000,-2176.000,4839.000,3813.000,-834.000,197.000,0.000,0.000,0
2026-01-30 23:07:46,491014,6443.000,-2367.000,5010.000,2315.000,-986.000,222.000,0.000,0.000,0
2026-01-30 23:07:46,491054,6065.000,-3953.000,4471.000,219.000,-546.000,333.000,0.000,0.000,0
2026-01-30 23:07:46,491094,5902.000,-4992.000,2866.000,-221.000,-647.000,436.000,0.000,0.000,0
2026-01-30 23:07:46,491134,5758.000,-1300.000,4194.000,939.000,-397.000,210.000,0.000,0.000,0
2026-01-30 23:07:46,491174,6147.000,-1807.000,5435.000,1050.000,-338.000,461.000,0.000,0.000,0
2026-01-30 23:07:47,491214,5307.000,-3008.000,3838.000,-553.000,-99.000,446.000,0.000,0.000,0
2026-01-30 23:07:47,491254,6624.000,-2986.000,5248.000,920.000,-333.000,514.000,0.000,0.000,0
2026-01-30 23:07:47,491294,4851.000,-1365.000,4016.000,-5.000,43.000,-55.000,0.000,0.000,0
2026-01-30 23:07:47,491334,6465.000,-2996.000,4679.000,228.000,-76.000,344.000,0.000,0.000,0
2026-01-30 23:07:47,491374,6346.000,-4861.000,4349.000,-37.000,42.000,-138.000,0.000,0.000,0
2026-01-30 23:07:47,491414,5618.000,-1481.000,4509.000,180.000,68.000,-738.000,0.000,0.000,0
2026-01-30 23:07:47,491454,8272.000,-4508.000,4086.000,314.000,-159.000,-260.000,0.000,0.000,0
2026-01-30 23:07:47,491494,5099.000,-5453.000,4154.000,-1263.000,414.000,-804.000,0.000,0.000,0
2026-01-30 23:07:47,491534,6199.000,-3019.000,4740.000,-177.000,63.000,-714.000,0.000,0.000,0
2026-01-30 23:07:47,491574,6372.000,-3047.000,3774.000,-195.000,185.000,-419.000,0.000,0.000,0
2026-01-30 23:07:47,491614,5967.000,-2363.000,4397.000,-509.000,289.000,-247.000,0.000,0.000,0
2026-01-30 23:07:47,491654,5807.000,-3897.000,3489.000,-663.000,136.000,312.000,0.000,0.000,0
2026-01-30 23:07:47,491694,8551.000,-6634.000,2771.000,-107.000,179.000,337.000,0.000,0.000,0
2026-01-30 23:07:47,491734,5957.000,-3600.000,3790.000,401.000,617.000,-1042.000,0.000,0.000,0
2026-01-30 23:07:47,491777,6485.000,-686.000,4361.000,618.000,50.000,-557.000,0.000,0.000,0
2026-01-30 23:07:47,491816,6792.000,-3369.000,4190.000,414.000,-500.000,18.000,0.000,0.000,0
2026-01-30 23:07:47,491857,8339.000,-3186.000,3117.000,344.000,-578.000,-402.000,0.000,0.000,0
2026-01-30 23:07:47,491894,5981.000,160.000,4747.000,340.000,-84.000,-984.000,0.000,0.000,0
2026-01-30 23:07:47,491934,6277.000,-2899.000,4140.000,157.000,78.000,461.000,0.000,0.000,0
2026-01-30 23:07:47,491974,8089.000,-2007.000,6335.000,778.000,620.000,362.000,0.000,0.000,0
2026-01-30 23:07:47,492014,6475.000,-2993.000,4642.000,87.000,545.000,661.000,0.000,0.000,0
2026-01-30 23:07:47,492058,5604.000,-5651.000,5037.000,-1750.000,869.000,808.000,0.000,0.000,0
2026-01-30 23:07:47,492094,5282.000,-2095.000,5674.000,-420.000,539.000,435.000,0.000,0.000,0
2026-01-30 23:07:47,492134,5713.000,-3877.000,5112.000,-1125.000,424.000,573.000,0.000,0.000,0
2026-01-30 23:07:47,492174,5503.000,-2088.000,3839.000,-1036.000,204.000,443.000,0.000,0.000,0
2026-01-30 23:07:48,492214,8134.000,-2130.000,3440.000,-1136.000,-45.000,739.000,0.000,0.000,0
2026-01-30 23:07:48,492254,6007.000,-6115.000,2833.000,-2442.000,749.000,357.000,0.000,0.000,0
2026-01-30 23:07:48,492294,7092.000,-4691.000,4188.000,-954.000,605.000,-151.000,0.000,0.000,0
2026-01-30 23:07:48,492334,4566.000,-3926.000,3897.000,-1181.000,688.000,-741.000,0.000,0.000,0
2026-01-30 23:07:48,492374,6654.000,-1867.000,4779.000,-322.000,-311.000,-249.000,0.000,0.000,0
2026-01-30 23:07:48,492414,5964.000,-4509.000,4243.000,-1548.000,-166.000,306.000,0.000,0.000,0
2026-01-30 23:07:48,492454,6473.000,-3598.000,3895.000,-524.000,13.000,265.000,0.000,0.000,0
2026-01-30 23:07:48,492494,6435.000,-5633.000,3682.000,76.000,-193.000,549.000,0.000,0.000,0
2026-01-30 23:07:48,492534,5420.000,-3756.000,4112.000,213.000,-357.000,-97.000,0.000,0.000,0
2026-01-30 23:07:48,492574,6743.000,-2850.000,4802.000,902.000,-741.000,-48.000,0.000,0.000,0
2026-01-30 23:07:48,492614,7556.000,-6330.000,2923.000,9.000,-823.000,-113.000,0.000,0.000,0
2026-01-30 23:07:48,492654,5018.000,-4406.000,4274.000,-309.000,-515.000,-688.000,0.000,0.000,0
2026-01-30 23:07:48,492694,7200.000,-1995.000,3170.000,1900.000,-1139.000,-330.000,0.000,0.000,0
2026-01-30 23:07:48,492734,3957.000,-1881.000,3092.000,-200.000,-317.000,-307.000,0.000,0.000,0
2026-01-30 23:07:48,492774,6745.000,-4329.000,4127.000,1641.000,-463.000,-35.000,0.000,0.000,0
2026-01-30 23:07:48,492814,5454.000,-2611.000,5285.000,1204.000,48.000,149.000,0.000,0.000,0
2026-01-30 23:07:48,492854,5458.000,-3570.000,4699.000,1454.000,139.000,420.000,0.000,0.000,0
2026-01-30 23:07:48,492894,6515.000,-2121.000,5352.000,1282.000,36.000,583.000,0.000,0.000,0
2026-01-30 23:07:48,492934,4529.000,-238.000,6510.000,764.000,-190.000,514.000,0.000,0.000,0
2026-01-30 23:07:48,492974,7765.000,-5352.000,3632.000,-530.000,-486.000,1509.000,0.000,0.000,0
2026-01-30 23:07:48,493014,5847.000,-3028.000,5252.000,-769.000,-166.000,56.000,0.000,0.000,0
2026-01-30 23:07:48,493054,4290.000,592.000,5884.000,-304.000,-158.000,-392.000,0.000,0.000,0
2026-01-30 23:07:48,493094,7475.000,-4170.000,2338.000,-413.000,-83.000,514.000,0.000,0.000,0
2026-01-30 23:07:48,493134,4400.000,-4090.000,5131.000,577.000,645.000,-1074.000,0.000,0.000,0
2026-01-30 23:07:48,493174,5751.000,-801.000,4790.000,216.000,54.000,-373.000,0.000,0.000,0
2026-01-30 23:07:49,493214,8049.000,-5018.000,2192.000,-549.000,-270.000,369.000,0.000,0.000,0
2026-01-30 23:07:49,493254,5865.000,-4732.000,5251.000,-132.000,218.000,-620.000,0.000,0.000,0
2026-01-30 23:07:49,493294,6481.000,-2258.000,4760.000,-208.000,383.000,-680.000,0.000,0.000,0
2026-01-30 23:07:49,493334,6185.000,-2563.000,3512.000,-803.000,420.000,-438.000,0.000,0.000,0
2026-01-30 23:07:49,493374,6914.000,-8614.000,3598.000,-151.000,677.000,164.000,0.000,0.000,0
2026-01-30 23:07:49,493414,6408.000,-2618.000,4004.000,750.000,94.000,-1139.000,0.000,0.000,0
2026-01-30 23:07:49,493454,7608.000,-3361.000,3837.000,-675.000,46.000,-653.000,0.000,0.000,0
2026-01-30 23:07:49,493494,5555.000,-5521.000,4163.000,-1724.000,415.000,-763.000,0.000,0.000,0
2026-01-30 23:07:49,493534,7152.000,-3017.000,4077.000,-270.000,502.000,-731.000,0.000,0.000,0
2026-01-30 23:07:49,493574,6756.000,-6098.000,2395.000,-526.000,1078.000,-150.000,0.000,0.000,0
2026-01-30 23:07:49,493614,6681.000,-1455.000,4315.000,1363.000,1244.000,-827.000,0.000,0.000,0
2026-01-30 23:07:49,493654,6140.000,-2343.000,6649.000,688.000,1166.000,280.000,0.000,0.000,0
2026-01-30 23:07:49,493694,6918.000,-7113.000,5059.000,-617.000,339.000,687.000,0.000,0.000,0
2026-01-30 23:07:49,493734,5726.000,-3963.000,5037.000,-341.000,227.000,-31.000,0.000,0.000,0
2026-01-30 23:07:49,493774,6202.000,-4788.000,3769.000,-524.000,202.000,41.000,0.000,0.000,0
2026-01-30 23:07:49,493814,5982.000,-1939.000,4544.000,346.000,773.000,-140.000,0.000,0.000,0
2026-01-30 23:07:49,493854,5161.000,-3178.000,5263.000,12.000,767.000,-165.000,0.000,0.000,0
2026-01-30 23:07:49,493894,6273.000,-6192.000,4560.000,727.000,785.000,320.000,0.000,0.000,0
2026-01-30 23:07:49,493934,5484.000,-1419.000,4670.000,258.000,-11.000,-245.000,0.000,0.000,0
2026-01-30 23:07:49,493974,5155.000,-3980.000,6000.000,88.000,-63.000,253.000,0.000,0.000,0
2026-01-30 23:07:49,494014,5947.000,-2381.000,4203.000,-446.000,-54.000,-47.000,0.000,0.000,0
2026-01-30 23:07:49,494054,6454.000,-3080.000,4486.000,-269.000,30.000,135.000,0.000,0.000,0
2026-01-30 23:07:49,494094,6819.000,-2918.000,4209.000,-591.000,181.000,-94.000,0.000,0.000,0
2026-01-30 23:07:49,494134,5100.000,-4421.000,5966.000,-810.000,115.000,149.000,0.000,0.000,0
2026-01-30 23:07:49,494174,6509.000,-4341.000,5126.000,137.000,-369.000,82.000,0.000,0.000,0
2026-01-30 23:07:50,494214,5261.000,-3515.000,4108.000,-383.000,-341.000,-517.000,0.000,0.000,0
2026-01-30 23:07:50,494254,5307.000,976.000,5469.000,581.000,-428.000,-653.000,0.000,0.000,0
2026-01-30 23:07:50,494294,5590.000,-4088.000,4068.000,-593.000,-226.000,-88.000,0.000,0.000,0
2026-01-30 23:07:50,494334,7023.000,-3626.000,3925.000,594.000,-493.000,0.000,0.000,0.000,0
2026-01-30 23:07:50,494374,5083.000,-2159.000,4091.000,176.000,-253.000,-149.000,0.000,0.000,0
2026-01-30 23:07:50,494414,7961.000,-1872.000,4458.000,94.000,-575.000,267.000,0.000,0.000,0
2026-01-30 23:07:50,494454,6533.000,-5174.000,5129.000,-862.000,-227.000,555.000,0.000,0.000,0
2026-01-30 23:07:50,494494,5724.000,-3275.000,4729.000,-460.000,-471.000,194.000,0.000,0.000,0
2026-01-30 23:07:50,494534,6344.000,-3031.000,3468.000,-377.000,-826.000,586.000,0.000,0.000,0
2026-01-30 23:07:50,494574,4714.000,-2041.000,5039.000,-204.000,-836.000,532.000,0.000,0.000,0
2026-01-30 23:07:50,494614,6942.000,-671.000,3953.000,594.000,-974.000,728.000,0.000,0.000,0
2026-01-30 23:07:50,494654,7248.000,-2374.000,4846.000,-343.000,-287.000,510.000,0.000,0.000,0
2026-01-30 23:07:50,494694,4763.000,-1704.000,4990.000,96.000,128.000,-229.000,0.000,0.000,0
2026-01-30 23:07:50,494734,7678.000,-2310.000,5251.000,492.000,-417.000,272.000,0.000,0.000,0
2026-01-30 23:07:50,494774,6123.000,-2450.000,5395.000,-512.000,-406.000,-205.000,0.000,0.000,0
2026-01-30 23:07:50,494814,5252.000,-2957.000,4658.000,-858.000,-37.000,-77.000,0.000,0.000,0
2026-01-30 23:07:50,494854,6207.000,-4520.000,3485.000,-417.000,52.000,60.000,0.000,0.000,0
2026-01-30 23:07:50,494894,6210.000,-4083.000,3719.000,446.000,586.000,-520.000,0.000,0.000,0
2026-01-30 23:07:50,494934,5663.000,-1416.000,4004.000,790.000,887.000,-1051.000,0.000,0.000,0
2026-01-30 23:07:50,494974,6063.000,-3386.000,3562.000,202.000,796.000,-609.000,0.000,0.000,0
2026-01-30 23:07:50,495014,6963.000,-2122.000,5879.000,1389.000,296.000,-772.000,0.000,0.000,0
2026-01-30 23:07:50,495054,7255.000,-353.000,4219.000,78.000,222.000,-1017.000,0.000,0.000,0
2026-01-30 23:07:50,495094,5865.000,-4819.000,4595.000,-1364.000,241.000,-19.000,0.000,0.000,0
2026-01-30 23:07:50,495134,8043.000,-4738.000,3013.000,-76.000,421.000,-5.000,0.000,0.000,0
2026-01-30 23:07:50,495174,5921.000,-4437.000,2590.000,-10.000,1106.000,-646.000,0.000,0.000,0
2026-01-30 23:07:51,495214,7370.000,-4936.000,2766.000,2018.000,860.000,-600.000,0.000,0.000,0
2026-01-30 23:07:51,495254,6289.000,-3560.000,3412.000,1865.000,687.000,-717.000,0.000,0.000,0
2026-01-30 23:07:51,495294,6700.000,-2040.000,6170.000,2181.000,328.000,25.000,0.000,0.000,0
2026-01-30 23:07:51,495334,6530.000,-2331.000,4711.000,1037.000,-466.000,294.000,0.000,0.000,0
2026-01-30 23:07:51,495374,5969.000,-4661.000,4370.000,-639.000,-737.000,640.000,0.000,0.000,0
2026-01-30 23:07:51,495414,5893.000,-5048.000,4483.000,1025.000,-565.000,142.000,0.000,0.000,0
2026-01-30 23:07:51,495454,7269.000,-2072.000,5455.000,33.000,-320.000,239.000,0.000,0.000,0
2026-01-30 23:07:51,495494,5690.000,-4940.000,4382.000,-2125.000,515.000,949.000,0.000,0.000,0
2026-01-30 23:07:51,495534,6728.000,-5090.000,5099.000,-1309.000,438.000,914.000,0.000,0.000,0
2026-01-30 23:07:51,495574,4525.000,-2485.000,5512.000,-469.000,1162.000,222.000,0.000,0.000,0
2026-01-30 23:07:51,495614,4479.000,-1624.000,5203.000,-639.000,805.000,344.000,0.000,0.000,0
2026-01-30 23:07:51,495654,5835.000,-1886.000,4926.000,-539.000,579.000,578.000,0.000,0.000,0
2026-01-30 23:07:51,495694,7145.000,-4035.000,4719.000,-990.000,606.000,101.000,0.000,0.000,0
2026-01-30 23:07:51,495734,3067.000,-3038.000,4685.000,-2200.000,1274.000,-411.000,0.000,0.000,0
2026-01-30 23:07:51,495774,5639.000,-2872.000,4005.000,-495.000,228.000,235.000,0.000,0.000,0
2026-01-30 23:07:51,495814,5282.000,-4550.000,4813.000,-698.000,188.000,-78.000,0.000,0.000,0
2026-01-30 23:07:51,495854,6617.000,-2612.000,6491.000,796.000,-127.000,-277.000,0.000,0.000,0
2026-01-30 23:07:51,495894,6326.000,-3957.000,5377.000,-1388.000,-564.000,-165.000,0.000,0.000,0
2026-01-30 23:07:51,495934,5990.000,-6218.000,3133.000,-1446.000,-815.000,97.000,0.000,0.000,0
2026-01-30 23:07:51,495974,6664.000,-3366.000,2656.000,1118.000,-1195.000,-232.000,0.000,0.000,0
2026-01-30 23:07:51,496014,6505.000,-2763.000,4456.000,865.000,-883.000,-446.000,0.000,0.000,0
2026-01-30 23:07:51,496057,6894.000,-5060.000,2883.000,62.000,-771.000,364.000,0.000,0.000,0
2026-01-30 23:07:51,496094,6065.000,-2932.000,3262.000,760.000,-648.000,312.000,0.000,0.000,0
2026-01-30 23:07:51,496134,6148.000,-2984.000,5092.000,1327.000,-859.000,352.000,0.000,0.000,0
2026-01-30 23:07:51,496174,7388.000,-6475.000,5171.000,146.000,-275.000,528.000,0.000,0.000,0
2026-01-30 23:07:52,496214,5793.000,-4495.000,5759.000,100.000,-241.000,1054.000,0.000,0.000,0
2026-01-30 23:07:52,496254,6789.000,-2834.000,5156.000,329.000,-451.000,587.000,0.000,0.000,0
2026-01-30 23:07:52,496294,6018.000,-4229.000,3676.000,-690.000,-245.000,791.000,0.000,0.000,0
2026-01-30 23:07:52,496334,6352.000,-5034.000,5048.000,-292.000,-284.000,764.000,0.000,0.000,0
2026-01-30 23:07:52,496374,5806.000,-3101.000,4811.000,-492.000,-4.000,214.000,0.000,0.000,0
2026-01-30 23:07:52,496414,5366.000,-1103.000,5299.000,-495.000,562.000,-140.000,0.000,0.000,0
2026-01-30 23:07:52,496454,5550.000,-3544.000,4041.000,-722.000,775.000,243.000,0.000,0.000,0
2026-01-30 23:07:52,496494,6701.000,-3434.000,4554.000,52.000,640.000,-249.000,0.000,0.000,0
2026-01-30 23:07:52,496534,5441.000,-2894.000,5596.000,-553.000,206.000,-632.000,0.000,0.000,0
2026-01-30 23:07:52,496574,6317.000,-3816.000,3458.000,-1285.000,66.000,-642.000,0.000,0.000,0
2026-01-30 23:07:52,496614,5340.000,-3036.000,4092.000,-818.000,133.000,-974.000,0.000,0.000,0
2026-01-30 23:07:52,496654,8459.000,-4298.000,3460.000,195.000,490.000,-638.000,0.000,0.000,0
2026-01-30 23:07:52,496694,6324.000,-5158.000,2977.000,-1095.000,739.000,-1346.000,0.000,0.000,0
2026-01-30 23:07:52,496734,5939.000,-5007.000,3611.000,200.000,545.000,-953.000,0.000,0.000,0
2026-01-30 23:07:52,496774,6454.000,-3907.000,2965.000,795.000,256.000,-788.000,0.000,0.000,0
2026-01-30 23:07:52,496814,6202.000,-2924.000,4473.000,735.000,466.000,-959.000,0.000,0.000,0
2026-01-30 23:07:52,496854,6044.000,-2582.000,3588.000,1064.000,401.000,-648.000,0.000,0.000,0
2026-01-30 23:07:52,496894,7765.000,-6803.000,1870.000,952.000,578.000,-89.000,0.000,0.000,0
2026-01-30 23:07:52,496934,6121.000,-1679.000,4808.000,1603.000,618.000,-1335.000,0.000,0.000,0
2026-01-30 23:07:52,496974,7294.000,-4248.000,4136.000,1115.000,320.000,-22.000,0.000,0.000,0
2026-01-30 23:07:52,497014,6092.000,-3177.000,3873.000,782.000,204.000,-156.000,0.000,0.000,0
2026-01-30 23:07:52,497054,6570.000,-3125.000,4607.000,1369.000,213.000,-122.000,0.000,0.000,0
2026-01-30 23:07:52,497094,5302.000,-3006.000,5407.000,95.000,335.000,-118.000,0.000,0.000,0
2026-01-30 23:07:52,497134,6107.000,-4630.000,5500.000,117.000,166.000,385.000,0.000,0.000,0
2026-01-30 23:07:52,497174,5422.000,-2476.000,6097.000,715.000,572.000,179.000,0.000,0.000,0
2026-01-30 23:07:53,497214,5486.000,-2056.000,5857.000,83.000,709.000,277.000,0.000,0.000,0
2026-01-30 23:07:53,497254,5484.000,-2679.000,5929.000,-222.000,913.000,427.000,0.000,0.000,0
2026-01-30 23:07:53,497294,6025.000,-4157.000,5891.000,59.000,778.000,459.000,0.000,0.000,0
2026-01-30 23:07:53,497334,5536.000,-3091.000,4885.000,-149.000,-137.000,219.000,0.000,0.000,0
2026-01-30 23:07:53,497374,5975.000,-1955.000,3584.000,-978.000,-321.000,-89.000,0.000,0.000,0
2026-01-30 23:07:53,497414,5842.000,-2921.000,3311.000,-750.000,-82.000,312.000,0.000,0.000,0
2026-01-30 23:07:53,497454,6840.000,-4319.000,4420.000,-399.000,-230.000,172.000,0.000,0.000,0
2026-01-30 23:07:53,497494,5756.000,-3158.000,4846.000,276.000,-93.000,-288.000,0.000,0.000,0
2026-01-30 23:07:53,497534,5124.000,-2322.000,5190.000,177.000,-735.000,-210.000,0.000,0.000,0
2026-01-30 23:07:53,497574,5689.000,-2474.000,4909.000,508.000,-994.000,285.000,0.000,0.000,0
2026-01-30 23:07:53,497614,6593.000,-5165.000,4231.000,-501.000,-830.000,821.000,0.000,0.000,0
2026-01-30 23:07:53,497654,5879.000,-3267.000,4364.000,-561.000,-168.000,400.000,0.000,0.000,0
2026-01-30 23:07:53,497694,7176.000,-4771.000,4485.000,528.000,9.000,713.000,0.000,0.000,0
2026-01-30 23:07:53,497734,5465.000,-2631.000,5020.000,155.000,-47.000,139.000,0.000,0.000,0
2026-01-30 23:07:53,497774,6164.000,-3906.000,4728.000,35.000,-103.000,255.000,0.000,0.000,0
2026-01-30 23:07:53,497817,6071.000,-2456.000,5400.000,-409.000,-302.000,167.000,0.000,0.000,0
2026-01-30 23:07:53,497857,5862.000,-2846.000,5715.000,-594.000,-397.000,408.000,0.000,0.000,0
2026-01-30 23:07:53,497894,5470.000,-2390.000,4421.000,-513.000,-291.000,377.000,0.000,0.000,0
2026-01-30 23:07:53,497934,5327.000,-1234.000,4240.000,-692.000,-169.000,105.000,0.000,0.000,0
2026-01-30 23:07:53,497974,6042.000,-2936.000,4765.000,89.000,122.000,335.000,0.000,0.000,0
2026-01-30 23:07:53,498014,6528.000,-2530.000,5612.000,-166.000,267.000,-98.000,0.000,0.000,0
2026-01-30 23:07:53,498054,5609.000,-3257.000,4687.000,-1171.000,385.000,3.000,0.000,0.000,0
2026-01-30 23:07:53,498094,7037.000,-3426.000,4194.000,-1243.000,220.000,109.000,0.000,0.000,0
2026-01-30 23:07:53,498134,5930.000,-2462.000,4797.000,-305.000,146.000,-894.000,0.000,0.000,0
2026-01-30 23:07:53,498174,6323.000,-3225.000,3904.000,-121.000,294.000,-859.000,0.000,0.000,0
2026-01-30 23:07:54,498214,6260.000,-2934.000,3211.000,579.000,376.000,-954.000,0.000,0.000,0
2026-01-30 23:07:54,498254,6469.000,-4022.000,3865.000,1115.000,356.000,-1025.000,0.000,0.000,0
2026-01-30 23:07:54,498294,6134.000,-2015.000,5067.000,2741.000,827.000,-1385.000,0.000,0.000,0
2026-01-30 23:07:54,498334,2688.000,-1791.000,4948.000,470.000,-55.000,-659.000,0.000,0.000,0
2026-01-30 23:07:54,498374,7144.000,-5901.000,2837.000,4703.000,60.000,346.000,0.000,0.000,0
2026-01-30 23:07:54,498414,7002.000,-2884.000,6299.000,4197.000,-117.000,-951.000,0.000,0.000,0
2026-01-30 23:07:54,498454,6315.000,-2027.000,6262.000,2624.000,-15.000,-1058.000,0.000,0.000,0
2026-01-30 23:07:54,498494,6757.000,-2045.000,5898.000,-62.000,-239.000,-780.000,0.000,0.000,0
2026-01-30 23:07:54,498534,6384.000,-1596.000,7188.000,817.000,-762.000,-531.000,0.000,0.000,0
2026-01-30 23:07:54,498574,5521.000,-2048.000,4325.000,245.000,-698.000,-355.000,0.000,0.000,0
2026-01-30 23:07:54,498614,5928.000,-906.000,4094.000,-196.000,-424.000,-298.000,0.000,0.000,0
2026-01-30 23:07:54,498654,4944.000,-1869.000,6337.000,613.000,443.000,295.000,0.000,0.000,0
2026-01-30 23:07:54,498694,6193.000,-2022.000,3668.000,-52.000,441.000,541.000,0.000,0.000,0
2026-01-30 23:07:54,498734,6199.000,-2067.000,3682.000,202.000,883.000,530.000,0.000,0.000,0
2026-01-30 23:07:54,498774,6619.000,-2811.000,5655.000,936.000,835.000,371.000,0.000,0.000,0
2026-01-30 23:07:54,498814,7213.000,-1252.000,5638.000,392.000,-26.000,-25.000,0.000,0.000,0
2026-01-30 23:07:54,498854,5293.000,-1779.000,5646.000,-478.000,-1023.000,26.000,0.000,0.000,0
2026-01-30 23:07:54,498894,5230.000,-1914.000,4195.000,-565.000,-848.000,24.000,0.000,0.000,0
2026-01-30 23:07:54,498934,6005.000,-1518.000,4973.000,-392.000,-28.000,81.000,0.000,0.000,0
2026-01-30 23:07:54,498974,5370.000,-1954.000,5222.000,192.000,656.000,66.000,0.000,0.000,0
2026-01-30 23:07:54,499014,6794.000,-2864.000,5054.000,179.000,599.000,456.000,0.000,0.000,0
2026-01-30 23:07:54,499054,5571.000,-1139.000,6306.000,257.000,206.000,160.000,0.000,0.000,0
2026-01-30 23:07:54,499094,6905.000,-1630.000,5818.000,410.000,-526.000,266.000,0.000,0.000,0
2026-01-30 23:07:54,499134,5674.000,-1309.000,4573.000,-728.000,-1048.000,-198.000,0.000,0.000,0
2026-01-30 23:07:54,499174,5276.000,-1277.000,4120.000,-814.000,-959.000,-331.000,0.000,0.000,0
2026-01-30 23:07:55,499214,6661.000,-2548.000,3206.000,-237.000,-267.000,-37.000,0.000,0.000,0
2026-01-30 23:07:55,499254,5904.000,-2789.000,4812.000,497.000,694.000,-361.000,0.000,0.000,0
2026-01-30 23:07:55,499294,6169.000,-2695.000,5705.000,1397.000,650.000,-205.000,0.000,0.000,0
2026-01-30 23:07:55,499334,5838.000,-1900.000,6304.000,1016.000,194.000,38.000,0.000,0.000,0
2026-01-30 23:07:55,499374,5585.000,-1870.000,6088.000,649.000,-218.000,238.000,0.000,0.000,0
2026-01-30 23:07:55,499414,6415.000,-2145.000,4621.000,453.000,-2.000,289.000,0.000,0.000,0
2026-01-30 23:07:55,499454,5753.000,-1558.000,5100.000,-13.000,524.000,-152.000,0.000,0.000,0
2026-01-30 23:07:55,499494,6732.000,-1599.000,5563.000,691.000,672.000,-151.000,0.000,0.000,0
2026-01-30 23:07:55,499534,5615.000,-1748.000,5284.000,239.000,371.000,-137.000,0.000,0.000,0
2026-01-30 23:07:55,499574,5799.000,-1943.000,5615.000,772.000,7.000,141.000,0.000,0.000,0
2026-01-30 23:07:55,499614,6789.000,-1503.000,5364.000,66.000,-196.000,249.000,0.000,0.000,0
2026-01-30 23:07:55,499654,5815.000,-1752.000,5685.000,-151.000,-65.000,-183.000,0.000,0.000,0
2026-01-30 23:07:55,499694,6478.000,-2560.000,5157.000,-54.000,-142.000,280.000,0.000,0.000,0
2026-01-30 23:07:55,499734,6281.000,-2552.000,6164.000,193.000,-60.000,55.000,0.000,0.000,0
2026-01-30 23:07:55,499774,5430.000,-1541.000,5462.000,-52.000,91.000,-238.000,0.000,0.000,0
2026-01-30 23:07:55,499817,5886.000,-1121.000,5424.000,-184.000,191.000,87.000,0.000,0.000,0
2026-01-30 23:07:55,499855,5965.000,-1639.000,5439.000,-165.000,134.000,115.000,0.000,0.000,0
2026-01-30 23:07:55,499897,5595.000,-1159.000,5161.000,-233.000,-158.000,-242.000,0.000,0.000,0
2026-01-30 23:07:55,499934,6338.000,-2210.000,5136.000,-598.000,-126.000,28.000,0.000,0.000,0
2026-01-30 23:07:55,499974,6678.000,-3352.000,4902.000,-477.000,-240.000,117.000,0.000,0.000,0
2026-01-30 23:07:55,500014,6236.000,-2775.000,5625.000,-61.000,192.000,230.000,0.000,0.000,0
2026-01-30 23:07:55,500057,6342.000,-1445.000,4628.000,280.000,167.000,-203.000,0.000,0.000,0
2026-01-30 23:07:55,500094,6068.000,-2100.000,5563.000,-151.000,227.000,77.000,0.000,0.000,0
2026-01-30 23:07:55,500134,5776.000,-1123.000,6014.000,534.000,-201.000,-208.000,0.000,0.000,0
2026-01-30 23:07:55,500174,4756.000,-1392.000,4561.000,-129.000,-454.000,-160.000,0.000,0.000,0
2026-01-30 23:07:56,500214,6117.000,-2189.000,5257.000,-222.000,68.000,434.000,0.000,0.000,0
2026-01-30 23:07:56,500254,6600.000,-2193.000,6254.000,710.000,140.000,263.000,0.000,0.000,0
2026-01-30 23:07:56,500294,5539.000,-1438.000,5010.000,995.000,-66.000,-646.000,0.000,0.000,0
2026-01-30 23:07:56,500334,5063.000,-1628.000,4432.000,492.000,-28.000,-351.000,0.000,0.000,0
2026-01-30 23:07:56,500374,6706.000,-1856.000,5034.000,1323.000,-48.000,84.000,0.000,0.000,0
2026-01-30 23:07:56,500414,10371.000,-1790.000,5531.000,-911.000,1066.000,248.000,0.000,0.000,0
2026-01-30 23:07:56,500454,5421.000,-2588.000,7081.000,-69.000,473.000,-682.000,0.000,0.000,0
2026-01-30 23:07:56,500494,6067.000,-2022.000,5529.000,511.000,103.000,329.000,0.000,0.000,0
2026-01-30 23:07:56,500534,5402.000,-2024.000,4558.000,637.000,-27.000,727.000,0.000,0.000,0
2026-01-30 23:07:56,500574,6252.000,-1216.000,5882.000,1422.000,326.000,655.000,0.000,0.000,0
2026-01-30 23:07:56,500614,3818.000,-150.000,4852.000,1528.000,333.000,257.000,0.000,0.000,0
2026-01-30 23:07:56,500654,5673.000,690.000,6031.000,655.000,1036.000,522.000,0.000,0.000,0
2026-01-30 23:07:56,500694,6578.000,-3486.000,5097.000,157.000,302.000,745.000,0.000,0.000,0
2026-01-30 23:07:56,500734,7440.000,-1656.000,5788.000,859.000,-322.000,16.000,0.000,0.000,0
2026-01-30 23:07:56,500774,5851.000,-1051.000,6078.000,-632.000,-1379.000,-362.000,0.000,0.000,0
2026-01-30 23:07:56,500814,5353.000,-2170.000,4044.000,-71.000,-1327.000,-259.000,0.000,0.000,0
2026-01-30 23:07:56,500854,6248.000,-322.000,4604.000,-209.000,-377.000,-159.000,0.000,0.000,0
2026-01-30 23:07:56,500894,5146.000,-2928.000,4619.000,-206.000,1106.000,-63.000,0.000,0.000,0
2026-01-30 23:07:56,500934,7263.000,-1735.000,4442.000,1300.000,1247.000,273.000,0.000,0.000,0
2026-01-30 23:07:56,500974,5843.000,-1192.000,6488.000,1788.000,1311.000,207.000,0.000,0.000,0
2026-01-30 23:07:56,501014,6525.000,-967.000,6654.000,1541.000,125.000,149.000,0.000,0.000,0
2026-01-30 23:07:56,501054,5128.000,-585.000,5039.000,256.000,-1089.000,71.000,0.000,0.000,0
2026-01-30 23:07:56,501094,7362.000,-1473.000,4893.000,-494.000,-897.000,589.000,0.000,0.000,0
2026-01-30 23:07:56,501134,6809.000,-2310.000,4135.000,-619.000,-111.000,-195.000,0.000,0.000,0
2026-01-30 23:07:56,501174,5564.000,-1140.000,4821.000,685.000,913.000,-204.000,0.000,0.000,0
2026-01-30 23:07:57,501214,7247.000,-1422.000,6712.000,1079.000,547.000,392.000,0.000,0.000,0
2026-01-30 23:07:57,501254,5325.000,-649.000,5641.000,1406.000,-22.000,28.000,0.000,0.000,0
2026-01-30 23:07:57,501294,8184.000,-2344.000,5692.000,1066.000,-447.000,903.000,0.000,0.000,0
2026-01-30 23:07:57,501334,5511.000,-1256.000,5677.000,634.000,71.000,-446.000,0.000,0.000,0
2026-01-30 23:07:57,501374,6850.000,-598.000,5735.000,242.000,4.000,42.000,0.000,0.000,0
2026-01-30 23:07:57,501414,5267.000,-521.000,4984.000,389.000,288.000,-435.000,0.000,0.000,0
2026-01-30 23:07:57,501454,4986.000,-842.000,6431.000,357.000,-2.000,29.000,0.000,0.000,0
2026-01-30 23:07:57,501494,5440.000,-891.000,5232.000,-118.000,-71.000,361.000,0.000,0.000,0
2026-01-30 23:07:57,501534,4982.000,-185.000,5477.000,-446.000,91.000,-256.000,0.000,0.000,0
2026-01-30 23:07:57,501574,5427.000,-772.000,5440.000,-570.000,410.000,232.000,0.000,0.000,0
2026-01-30 23:07:57,501614,5876.000,-1342.000,5469.000,-637.000,761.000,317.000,0.000,0.000,0
2026-01-30 23:07:57,501654,5580.000,-1135.000,5938.000,173.000,528.000,150.000,0.000,0.000,0
2026-01-30 23:07:57,501694,6297.000,-52.000,5668.000,371.000,441.000,161.000,0.000,0.000,0
2026-01-30 23:07:57,501734,6212.000,-1045.000,5522.000,-121.000,498.000,-6.000,0.000,0.000,0
2026-01-30 23:07:57,501774,5355.000,-1389.000,6047.000,-1060.000,891.000,-844.000,0.000,0.000,0
2026-01-30 23:07:57,501817,4784.000,-1884.000,4208.000,-1753.000,842.000,-414.000,0.000,0.000,0
2026-01-30 23:07:57,501857,5847.000,-41.000,7612.000,1112.000,1006.000,40.000,0.000,0.000,0
2026-01-30 23:07:57,501894,6429.000,-1670.000,7713.000,-514.000,688.000,192.000,0.000,0.000,0
2026-01-30 23:07:57,501934,4889.000,108.000,5944.000,-3636.000,-126.000,-298.000,0.000,0.000,0
2026-01-30 23:07:57,501974,6637.000,-2384.000,3947.000,-6844.000,296.000,935.000,0.000,0.000,0
2026-01-30 23:07:57,502014,5343.000,-3038.000,6198.000,-4113.000,3641.000,1519.000,0.000,0.000,0
2026-01-30 23:07:57,502057,6103.000,-482.000,6066.000,-2934.000,276.000,979.000,0.000,0.000,0
2026-01-30 23:07:57,502094,6663.000,-1606.000,5762.000,-4729.000,858.000,579.000,0.000,0.000,0
2026-01-30 23:07:57,502134,5959.000,-3270.000,5415.000,-4557.000,1687.000,-205.000,0.000,0.000,0
2026-01-30 23:07:57,502174,4665.000,-3673.000,7108.000,-343.000,119.000,-658.000,0.000,0.000,0
2026-01-30 23:07:58,502214,5342.000,-4421.000,5250.000,-2003.000,370.000,-770.000,0.000,0.000,0
2026-01-30 23:07:58,502254,4622.000,-4387.000,6463.000,992.000,-1415.000,-358.000,0.000,0.000,0
2026-01-30 23:07:58,502294,5953.000,-2233.000,4850.000,2289.000,-1994.000,-15.000,0.000,0.000,0
2026-01-30 23:07:58,502334,5509.000,-2515.000,6990.000,1442.000,-1672.000,-242.000,0.000,0.000,0
2026-01-30 23:07:58,502374,6538.000,-3889.000,6355.000,3306.000,-2312.000,526.000,0.000,0.000,0
2026-01-30 23:07:58,502414,5794.000,-4433.000,4505.000,3525.000,-2049.000,-333.000,0.000,0.000,0
2026-01-30 23:07:58,502454,5397.000,-1537.000,4773.000,4159.000,-947.000,-335.000,0.000,0.000,0
2026-01-30 23:07:58,502494,5621.000,408.000,5489.000,4664.000,364.000,-89.000,0.000,0.000,0
2026-01-30 23:07:58,502534,5960.000,-1265.000,5996.000,1154.000,1186.000,223.000,0.000,0.000,0
2026-01-30 23:07:58,502574,4883.000,-533.000,7022.000,341.000,1030.000,-134.000,0.000,0.000,0
2026-01-30 23:07:58,502614,4697.000,49.000,5997.000,-527.000,706.000,-432.000,0.000,0.000,0
2026-01-30 23:07:58,502654,6765.000,-1071.000,4786.000,-3470.000,989.000,-447.000,0.000,0.000,0
2026-01-30 23:07:58,502694,5652.000,-2596.000,5507.000,-5798.000,710.000,-571.000,0.000,0.000,0
2026-01-30 23:07:58,502734,4825.000,-2478.000,4853.000,-6801.000,528.000,-900.000,0.000,0.000,0
2026-01-30 23:07:58,502774,6182.000,-2111.000,5799.000,-2224.000,-355.000,-783.000,0.000,0.000,0
2026-01-30 23:07:58,502814,5474.000,-2055.000,4646.000,-286.000,-195.000,-785.000,0.000,0.000,0
2026-01-30 23:07:58,502854,5625.000,-2600.000,5041.000,2195.000,-79.000,-570.000,0.000,0.000,0
2026-01-30 23:07:58,502894,5827.000,-847.000,6847.000,2262.000,141.000,-939.000,0.000,0.000,0
2026-01-30 23:07:58,502934,6320.000,-2911.000,4836.000,1897.000,273.000,-443.000,0.000,0.000,0
2026-01-30 23:07:58,502974,5754.000,-777.000,5836.000,2622.000,61.000,-552.000,0.000,0.000,0
2026-01-30 23:07:58,503014,4973.000,-1771.000,5045.000,1247.000,105.000,-491.000,0.000,0.000,0
2026-01-30 23:07:58,503054,6124.000,-1908.000,5831.000,1626.000,137.000,-44.000,0.000,0.000,0
2026-01-30 23:07:58,503094,5904.000,-2054.000,4993.000,1191.000,501.000,-378.000,0.000,0.000,0
2026-01-30 23:07:58,503134,5070.000,-1140.000,7325.000,1046.000,621.000,-636.000,0.000,0.000,0
2026-01-30 23:07:58,503174,5611.000,-1577.000,6455.000,1061.000,303.000,-109.000,0.000,0.000,0
2026-01-30 23:07:59,503214,5517.000,-1425.000,5795.000,1078.000,-58.000,13.000,0.000,0.000,0
2026-01-30 23:07:59,503254,5913.000,-1616.000,5773.000,1030.000,21.000,214.000,0.000,0.000,0
2026-01-30 23:07:59,503294,5833.000,-1024.000,6017.000,859.000,326.000,-5.000,0.000,0.000,0
2026-01-30 23:07:59,503334,6291.000,-1690.000,5287.000,1096.000,330.000,135.000,0.000,0.000,0
2026-01-30 23:07:59,503374,5387.000,-743.000,6761.000,967.000,465.000,-207.000,0.000,0.000,0
2026-01-30 23:07:59,503414,5446.000,-1615.000,6131.000,1103.000,118.000,393.000,0.000,0.000,0
2026-01-30 23:07:59,503454,6497.000,-305.000,6081.000,576.000,110.000,395.000,0.000,0.000,0
2026-01-30 23:07:59,503494,5396.000,-855.000,7216.000,646.000,-104.000,291.000,0.000,0.000,0
2026-01-30 23:07:59,503534,5208.000,-565.000,6689.000,248.000,-369.000,396.000,0.000,0.000,0
2026-01-30 23:07:59,503574,6369.000,-1500.000,6208.000,112.000,191.000,481.000,0.000,0.000,0
2026-01-30 23:07:59,503614,4370.000,-974.000,7624.000,146.000,75.000,479.000,0.000,0.000,0
2026-01-30 23:07:59,503654,5906.000,-289.000,5161.000,159.000,112.000,622.000,0.000,0.000,0
2026-01-30 23:07:59,503694,5975.000,-986.000,6288.000,76.000,365.000,656.000,0.000,0.000,0
2026-01-30 23:07:59,503734,5664.000,-1356.000,5395.000,-76.000,-503.000,644.000,0.000,0.000,0
2026-01-30 23:07:59,503774,6300.000,-909.000,5166.000,-594.000,-558.000,380.000,0.000,0.000,0
2026-01-30 23:07:59,503815,5574.000,-1949.000,6415.000,-531.000,-319.000,528.000,0.000,0.000,0
2026-01-30 23:07:59,503854,6544.000,-1169.000,5730.000,-580.000,278.000,267.000,0.000,0.000,0
2026-01-30 23:07:59,503894,6029.000,-1043.000,6561.000,-311.000,401.000,99.000,0.000,0.000,0
2026-01-30 23:07:59,503934,5426.000,-1094.000,6908.000,-478.000,-84.000,150.000,0.000,0.000,0
2026-01-30 23:07:59,503974,4508.000,-888.000,6703.000,-708.000,-550.000,221.000,0.000,0.000,0
2026-01-30 23:07:59,504014,5532.000,-1124.000,6462.000,-1079.000,-99.000,175.000,0.000,0.000,0
2026-01-30 23:07:59,504057,5589.000,-1231.000,5586.000,-818.000,349.000,266.000,0.000,0.000,0
2026-01-30 23:07:59,504094,4511.000,-532.000,6861.000,-690.000,404.000,106.000,0.000,0.000,0
2026-01-30 23:07:59,504134,6076.000,-1776.000,6188.000,-1005.000,492.000,292.000,0.000,0.000,0
2026-01-30 23:07:59,504174,5119.000,-1298.000,6351.000,-1162.000,-137.000,129.000,0.000,0.000,0
2026-01-30 23:08:00,504214,5720.000,-840.000,5741.000,-1613.000,68.000,-186.000,0.000,0.000,0
2026-01-30 23:08:00,504254,5866.000,-1785.000,5347.000,-1590.000,-181.000,-180.000,0.000,0.000,0
2026-01-30 23:08:00,504294,6007.000,-1716.000,4387.000,-1634.000,-200.000,-380.000,0.000,0.000,0
2026-01-30 23:08:00,504334,6378.000,-1325.000,5236.000,-1374.000,200.000,-437.000,0.000,0.000,0
2026-01-30 23:08:00,504374,6385.000,-1634.000,5246.000,-1012.000,444.000,-587.000,0.000,0.000,0
2026-01-30 23:08:00,504414,6110.000,-2124.000,5174.000,-796.000,264.000,-433.000,0.000,0.000,0
2026-01-30 23:08:00,504454,5482.000,-2211.000,4556.000,-674.000,-130.000,-32.000,0.000,0.000,0
2026-01-30 23:08:00,504494,6025.000,-2334.000,5391.000,-934.000,268.000,-352.000,0.000,0.000,0
2026-01-30 23:08:00,504534,5368.000,-1488.000,6624.000,-626.000,241.000,-305.000,0.000,0.000,0
2026-01-30 23:08:00,504574,5481.000,-1643.000,5726.000,-687.000,170.000,-354.000,0.000,0.000,0
2026-01-30 23:08:00,504614,5207.000,-2083.000,6488.000,-1186.000,74.000,-347.000,0.000,0.000,0
2026-01-30 23:08:00,504654,5211.000,-1061.000,6930.000,-1220.000,38.000,-344.000,0.000,0.000,0
2026-01-30 23:08:00,504694,4058.000,-1347.000,6405.000,-1605.000,-37.000,-91.000,0.000,0.000,0
2026-01-30 23:08:00,504734,5633.000,-1935.000,5775.000,-1659.000,299.000,24.000,0.000,0.000,0
2026-01-30 23:08:00,504774,5339.000,-1295.000,5747.000,-1865.000,362.000,-558.000,0.000,0.000,0
2026-01-30 23:08:00,504814,5962.000,-1520.000,5503.000,-1986.000,318.000,-891.000,0.000,0.000,0
2026-01-30 23:08:00,504854,5845.000,-1729.000,5554.000,-2421.000,327.000,-1176.000,0.000,0.000,0
2026-01-30 23:08:00,504894,5671.000,-2698.000,5550.000,-1838.000,41.000,-1069.000,0.000,0.000,0
2026-01-30 23:08:00,504934,4832.000,-1353.000,5952.000,-1479.000,12.000,-972.000,0.000,0.000,0
2026-01-30 23:08:00,504974,4643.000,-1540.000,8179.000,-1509.000,693.000,-1319.000,0.000,0.000,0
2026-01-30 23:08:00,505014,3845.000,-1031.000,6384.000,-1406.000,349.000,-882.000,0.000,0.000,0
2026-01-30 23:08:00,505054,6367.000,-2162.000,5765.000,-1791.000,697.000,-714.000,0.000,0.000,0
2026-01-30 23:08:00,505094,5433.000,-1476.000,6667.000,-1861.000,756.000,-1251.000,0.000,0.000,0
2026-01-30 23:08:00,505134,5348.000,-1602.000,5365.000,-1931.000,881.000,-1032.000,0.000,0.000,0
2026-01-30 23:08:00,505174,5944.000,-2384.000,5596.000,-1618.000,1295.000,-993.000,0.000,0.000,0
2026-01-30 23:08:01,505214,5569.000,-2600.000,5720.000,-1105.000,835.000,-1040.000,0.000,0.000,0
2026-01-30 23:08:01,505254,6231.000,-2608.000,5600.000,-1153.000,330.000,-1045.000,0.000,0.000,0
2026-01-30 23:08:01,505294,4248.000,-2042.000,6833.000,-1287.000,507.000,-1508.000,0.000,0.000,0
2026-01-30 23:08:01,505334,5937.000,-1616.000,5334.000,-1323.000,371.000,-1190.000,0.000,0.000,0
2026-01-30 23:08:01,505374,5326.000,-2469.000,5913.000,-968.000,577.000,-1040.000,0.000,0.000,0
2026-01-30 23:08:01,505414,5939.000,-2116.000,4509.000,-1017.000,322.000,-829.000,0.000,0.000,0
2026-01-30 23:08:01,505454,6182.000,-3067.000,4714.000,-845.000,484.000,-779.000,0.000,0.000,0
2026-01-30 23:08:01,505494,5346.000,-2422.000,6283.000,-456.000,822.000,-1101.000,0.000,0.000,0
2026-01-30 23:08:01,505534,5932.000,-2422.000,5692.000,-379.000,586.000,-877.000,0.000,0.000,0
2026-01-30 23:08:01,505574,6422.000,-2460.000,5949.000,-261.000,242.000,-805.000,0.000,0.000,0
2026-01-30 23:08:01,505614,3869.000,-1867.000,6223.000,-220.000,-153.000,-942.000,0.000,0.000,0
2026-01-30 23:08:01,505654,6091.000,-1521.000,7458.000,-287.000,-189.000,-819.000,0.000,0.000,0
2026-01-30 23:08:01,505694,5177.000,-1735.000,6688.000,-1235.000,128.000,-967.000,0.000,0.000,0
2026-01-30 23:08:01,505734,5227.000,-1414.000,6049.000,-1225.000,269.000,-1051.000,0.000,0.000,0
2026-01-30 23:08:01,505777,6603.000,-1860.000,7963.000,-1252.000,1783.000,-1070.000,0.000,0.000,0
2026-01-30 23:08:01,505817,5857.000,-1373.000,6280.000,-1200.000,1185.000,-1222.000,0.000,0.000,0
2026-01-30 23:08:01,505874,5111.000,-795.000,5440.000,-1734.000,435.000,-1209.000,0.000,0.000,0
2026-01-30 23:08:01,505894,5921.000,-2750.000,5161.000,-1608.000,405.000,-1247.000,0.000,0.000,0
2026-01-30 23:08:01,505934,4799.000,-1646.000,4012.000,-1527.000,636.000,-1054.000,0.000,0.000,0
2026-01-30 23:08:01,505974,6417.000,-2480.000,5165.000,-1234.000,717.000,-1061.000,0.000,0.000,0
2026-01-30 23:08:01,506014,5681.000,-2605.000,4960.000,-1258.000,1036.000,-1279.000,0.000,0.000,0
2026-01-30 23:08:01,506059,4461.000,-2273.000,5480.000,-165.000,1142.000,-1262.000,0.000,0.000,0
2026-01-30 23:08:01,506094,5800.000,-2531.000,4915.000,-118.000,1108.000,-882.000,0.000,0.000,0
2026-01-30 23:08:01,506134,5977.000,-2720.000,6435.000,167.000,744.000,-917.000,0.000,0.000,0
2026-01-30 23:08:01,506174,3461.000,139.000,7733.000,267.000,-158.000,-859.000,0.000,0.000,0
2026-01-30 23:08:02,506214,5102.000,-2331.000,5582.000,30.000,-451.000,-286.000,0.000,0.000,0
2026-01-30 23:08:02,506254,5915.000,-2968.000,6260.000,-170.000,-13.000,-444.000,0.000,0.000,0
2026-01-30 23:08:02,506294,4329.000,-3709.000,2393.000,132.000,-1065.000,48.000,0.000,0.000,0
2026-01-30 23:08:02,506334,4800.000,-9.000,6754.000,1295.000,1054.000,-1626.000,0.000,0.000,0
2026-01-30 23:08:02,506374,5781.000,153.000,9927.000,369.000,1244.000,-1096.000,0.000,0.000,0
2026-01-30 23:08:02,506414,5503.000,-885.000,6370.000,-323.000,308.000,-855.000,0.000,0.000,0
2026-01-30 23:08:02,506454,5065.000,-1259.000,6206.000,-885.000,256.000,-776.000,0.000,0.000,0
2026-01-30 23:08:02,506494,7733.000,-667.000,6459.000,-1400.000,31.000,-779.000,0.000,0.000,0
2026-01-30 23:08:02,506534,931.000,-2431.000,3103.000,15.000,-423.000,-760.000,0.000,0.000,0
2026-01-30 23:08:02,506574,5308.000,-310.000,6402.000,244.000,482.000,-1018.000,0.000,0.000,0
2026-01-30 23:08:02,506614,5452.000,-1972.000,6163.000,55.000,843.000,-5.000,0.000,0.000,0
2026-01-30 23:08:02,506654,6253.000,-2150.000,4193.000,589.000,-90.000,304.000,0.000,0.000,0
2026-01-30 23:08:02,506694,7018.000,-1814.000,6032.000,192.000,893.000,-472.000,0.000,0.000,0
2026-01-30 23:08:02,506734,6253.000,-879.000,7727.000,-178.000,429.000,-1028.000,0.000,0.000,0
2026-01-30 23:08:02,506774,4859.000,-964.000,7056.000,-448.000,-1011.000,-871.000,0.000,0.000,0
2026-01-30 23:08:02,506814,5701.000,-2008.000,4179.000,-684.000,-1308.000,-318.000,0.000,0.000,0
2026-01-30 23:08:02,506854,2021.000,-1576.000,6855.000,-8.000,-932.000,-141.000,0.000,0.000,0
2026-01-30 23:08:02,506894,6404.000,-2287.000,4721.000,-289.000,329.000,308.000,0.000,0.000,0
2026-01-30 23:08:02,506934,5669.000,-1993.000,7184.000,-339.000,405.000,-501.000,0.000,0.000,0
2026-01-30 23:08:02,506974,4635.000,-1367.000,5780.000,-182.000,-62.000,-651.000,0.000,0.000,0
2026-01-30 23:08:02,507014,4500.000,-1073.000,5357.000,-259.000,-499.000,-230.000,0.000,0.000,0
2026-01-30 23:08:02,507054,5675.000,-3044.000,5532.000,-1082.000,-176.000,38.000,0.000,0.000,0
2026-01-30 23:08:02,507094,4771.000,-518.000,6927.000,-340.000,-540.000,-642.000,0.000,0.000,0
2026-01-30 23:08:02,507134,8878.000,-1645.000,5148.000,-616.000,849.000,-689.000,0.000,0.000,0
2026-01-30 23:08:02,507174,3863.000,-566.000,5916.000,281.000,-104.000,-1004.000,0.000,0.000,0
2026-01-30 23:08:03,507214,4449.000,-1215.000,7457.000,-493.000,265.000,-138.000,0.000,0.000,0
2026-01-30 23:08:03,507254,4874.000,-2213.000,5328.000,-339.000,625.000,-771.000,0.000,0.000,0
2026-01-30 23:08:03,507294,5801.000,-1511.000,6660.000,-794.000,104.000,-1090.000,0.000,0.000,0
2026-01-30 23:08:03,507334,4945.000,-708.000,6659.000,-772.000,134.000,-1282.000,0.000,0.000,0
2026-01-30 23:08:03,507374,5719.000,-1661.000,5955.000,-883.000,382.000,-974.000,0.000,0.000,0
2026-01-30 23:08:03,507414,4580.000,-1566.000,5681.000,-256.000,482.000,-778.000,0.000,0.000,0
2026-01-30 23:08:03,507454,6825.000,-1019.000,5669.000,-766.000,784.000,-966.000,0.000,0.000,0
2026-01-30 23:08:03,507494,5105.000,-1393.000,6855.000,265.000,627.000,-815.000,0.000,0.000,0
2026-01-30 23:08:03,507534,5446.000,-1071.000,7196.000,-582.000,181.000,-864.000,0.000,0.000,0
2026-01-30 23:08:03,507574,4723.000,-824.000,5210.000,-655.000,55.000,-691.000,0.000,0.000,0
2026-01-30 23:08:03,507614,7935.000,-569.000,7696.000,-2109.000,2099.000,-1525.000,0.000,0.000,0
2026-01-30 23:08:03,507654,6094.000,-570.000,5350.000,-662.000,64.000,-93.000,0.000,0.000,0
2026-01-30 23:08:03,507694,5732.000,4.000,7363.000,-650.000,525.000,-354.000,0.000,0.000,0
2026-01-30 23:08:03,507734,5387.000,-1227.000,7413.000,-414.000,119.000,-88.000,0.000,0.000,0
2026-01-30 23:08:03,507774,4725.000,-1130.000,5736.000,-213.000,-274.000,-266.000,0.000,0.000,0
2026-01-30 23:08:03,507815,5211.000,-758.000,6628.000,-627.000,627.000,-560.000,0.000,0.000,0
2026-01-30 23:08:03,507854,5915.000,-1636.000,5408.000,-151.000,760.000,-400.000,0.000,0.000,0
2026-01-30 23:08:03,507894,4680.000,-710.000,6734.000,-538.000,919.000,-1038.000,0.000,0.000,0
2026-01-30 23:08:03,507934,4356.000,-686.000,6863.000,-259.000,155.000,-1010.000,0.000,0.000,0
2026-01-30 23:08:03,507974,4030.000,-788.000,7473.000,-416.000,38.000,-890.000,0.000,0.000,0
2026-01-30 23:08:03,508014,4992.000,-592.000,7030.000,-989.000,-126.000,-621.000,0.000,0.000,0
2026-01-30 23:08:03,508054,4081.000,-3491.000,1158.000,-2013.000,65.000,125.000,0.000,0.000,0
2026-01-30 23:08:03,508094,3844.000,-415.000,6344.000,-128.000,1141.000,-1080.000,0.000,0.000,0
2026-01-30 23:08:03,508134,7121.000,-378.000,9773.000,27.000,1496.000,-627.000,0.000,0.000,0
2026-01-30 23:08:03,508174,5599.000,-1448.000,6027.000,-902.000,150.000,-1170.000,0.000,0.000,0
2026-01-30 23:08:04,508214,5084.000,2327.000,9628.000,-1496.000,1591.000,-3269.000,0.000,0.000,0
2026-01-30 23:08:04,508254,1455.000,-2899.000,1448.000,-2487.000,-460.000,515.000,0.000,0.000,0
2026-01-30 23:08:04,508294,7039.000,-2396.000,2750.000,-453.000,-383.000,-573.000,0.000,0.000,0
2026-01-30 23:08:04,508334,4438.000,-1135.000,7520.000,-355.000,1431.000,-1075.000,0.000,0.000,0
2026-01-30 23:08:04,508374,5073.000,-519.000,4088.000,1363.000,1541.000,-36.000,0.000,0.000,0
2026-01-30 23:08:04,508414,6910.000,-2173.000,5865.000,1379.000,823.000,410.000,0.000,0.000,0
2026-01-30 23:08:04,508454,6428.000,-798.000,7602.000,1626.000,409.000,-423.000,0.000,0.000,0
2026-01-30 23:08:04,508494,5073.000,122.000,8445.000,1299.000,-537.000,-471.000,0.000,0.000,0
2026-01-30 23:08:04,508534,6001.000,-794.000,6088.000,136.000,-530.000,307.000,0.000,0.000,0
2026-01-30 23:08:04,508574,3824.000,-1173.000,7393.000,-96.000,151.000,-352.000,0.000,0.000,0
2026-01-30 23:08:04,508614,4449.000,-936.000,7508.000,384.000,403.000,-12.000,0.000,0.000,0
2026-01-30 23:08:04,508654,2684.000,214.000,8238.000,-223.000,811.000,-206.000,0.000,0.000,0
2026-01-30 23:08:04,508694,4210.000,-66.000,7273.000,-846.000,720.000,-34.000,0.000,0.000,0
2026-01-30 23:08:04,508734,4097.000,-123.000,6977.000,-1329.000,1124.000,-537.000,0.000,0.000,0
2026-01-30 23:08:04,508774,5134.000,-218.000,7332.000,-1396.000,641.000,-330.000,0.000,0.000,0
2026-01-30 23:08:04,508814,3551.000,-1418.000,6992.000,-1385.000,1122.000,-979.000,0.000,0.000,0
2026-01-30 23:08:04,508854,5252.000,-970.000,6696.000,-974.000,897.000,-899.000,0.000,0.000,0
2026-01-30 23:08:04,508894,4658.000,-1268.000,6381.000,-1161.000,894.000,-1126.000,0.000,0.000,0
2026-01-30 23:08:04,508934,4636.000,-1499.000,6407.000,-1006.000,276.000,-810.000,0.000,0.000,0
2026-01-30 23:08:04,508974,4483.000,-1578.000,5966.000,-580.000,691.000,-824.000,0.000,0.000,0
2026-01-30 23:08:04,509014,4970.000,-1331.000,6127.000,-275.000,294.000,-501.000,0.000,0.000,0
2026-01-30 23:08:04,509054,4583.000,-554.000,6491.000,-125.000,180.000,-377.000,0.000,0.000,0
2026-01-30 23:08:04,509094,6262.000,-2086.000,5959.000,113.000,295.000,-39.000,0.000,0.000,0
2026-01-30 23:08:04,509134,4551.000,-1682.000,6876.000,265.000,141.000,-585.000,0.000,0.000,0
2026-01-30 23:08:04,509174,7275.000,-1766.000,7384.000,143.000,-440.000,-8.000,0.000,0.000,0
2026-01-30 23:08:05,509214,3002.000,-1147.000,7614.000,57.000,604.000,-1568.000,0.000,0.000,0
2026-01-30 23:08:05,509254,5656.000,-163.000,7719.000,238.000,138.000,-890.000,0.000,0.000,0
2026-01-30 23:08:05,509294,2993.000,-252.000,7896.000,-273.000,728.000,-1592.000,0.000,0.000,0
2026-01-30 23:08:05,509334,3297.000,-627.000,6991.000,-286.000,308.000,-903.000,0.000,0.000,0
2026-01-30 23:08:05,509374,9940.000,-994.000,6839.000,-1037.000,157.000,-170.000,0.000,0.000,0
2026-01-30 23:08:05,509414,869.000,-1027.000,7992.000,-966.000,2510.000,-1909.000,0.000,0.000,0
2026-01-30 23:08:05,509454,3198.000,-766.000,6938.000,-93.000,1200.000,-157.000,0.000,0.000,0
2026-01-30 23:08:05,509494,6492.000,-239.000,6771.000,36.000,1291.000,-221.000,0.000,0.000,0
2026-01-30 23:08:05,509534,2352.000,-1405.000,7993.000,-266.000,1568.000,-819.000,0.000,0.000,0
2026-01-30 23:08:05,509574,3703.000,139.000,7043.000,-307.000,431.000,-940.000,0.000,0.000,0
2026-01-30 23:08:05,509614,3817.000,-1547.000,6375.000,-1690.000,-134.000,-1014.000,0.000,0.000,0
2026-01-30 23:08:05,509654,1825.000,-858.000,7168.000,-803.000,491.000,-1074.000,0.000,0.000,0
2026-01-30 23:08:05,509694,6224.000,-1111.000,5125.000,237.000,49.000,-343.000,0.000,0.000,0
2026-01-30 23:08:05,509734,3739.000,-758.000,8802.000,1373.000,457.000,-274.000,0.000,0.000,0
2026-01-30 23:08:05,509774,3075.000,-1436.000,8040.000,300.000,-570.000,-490.000,0.000,0.000,0
2026-01-30 23:08:05,509815,3958.000,-1232.000,7578.000,-174.000,-1179.000,-998.000,0.000,0.000,0
2026-01-30 23:08:05,509854,405.000,-322.000,6645.000,-174.000,-1436.000,-997.000,0.000,0.000,0
2026-01-30 23:08:05,509894,10035.000,960.000,5938.000,258.000,-1916.000,82.000,0.000,0.000,0
2026-01-30 23:08:05,509934,6258.000,20.000,8254.000,-538.000,274.000,-11.000,0.000,0.000,0
2026-01-30 23:08:05,509974,3838.000,-1215.000,6769.000,1428.000,380.000,-272.000,0.000,0.000,0
2026-01-30 23:08:05,510014,6823.000,-210.000,7269.000,1682.000,15.000,298.000,0.000,0.000,0
2026-01-30 23:08:05,510057,4801.000,-513.000,7788.000,3215.000,-505.000,611.000,0.000,0.000,0
2026-01-30 23:08:05,510094,5998.000,956.000,7624.000,2666.000,-643.000,636.000,0.000,0.000,0
2026-01-30 23:08:05,510134,2910.000,-355.000,7576.000,1764.000,-573.000,393.000,0.000,0.000,0
2026-01-30 23:08:05,510174,4940.000,-292.000,6558.000,302.000,-659.000,1334.000,0.000,0.000,0
2026-01-30 23:08:06,510214,3744.000,-851.000,6719.000,183.000,-408.000,1192.000,0.000,0.000,0
2026-01-30 23:08:06,510254,6138.000,-338.000,7198.000,-436.000,-232.000,1337.000,0.000,0.000,0
2026-01-30 23:08:06,510294,1462.000,-706.000,8247.000,260.000,-495.000,744.000,0.000,0.000,0
2026-01-30 23:08:06,510334,4021.000,-133.000,7164.000,-2188.000,-1724.000,525.000,0.000,0.000,0
2026-01-30 23:08:06,510374,3273.000,-275.000,7227.000,-1679.000,-1691.000,978.000,0.000,0.000,0
2026-01-30 23:08:06,510414,4079.000,650.000,5435.000,-1952.000,-1146.000,862.000,0.000,0.000,0
2026-01-30 23:08:06,510454,3741.000,-268.000,6680.000,-2511.000,-242.000,129.000,0.000,0.000,0
2026-01-30 23:08:06,510494,5325.000,-1157.000,6560.000,-1989.000,-178.000,242.000,0.000,0.000,0
2026-01-30 23:08:06,510534,4853.000,-332.000,6954.000,-1361.000,-328.000,-114.000,0.000,0.000,0
2026-01-30 23:08:06,510574,5239.000,315.000,6519.000,-1686.000,-1115.000,-63.000,0.000,0.000,0
2026-01-30 23:08:06,510614,6336.000,-685.000,5654.000,-1913.000,-560.000,-480.000,0.000,0.000,0
2026-01-30 23:08:06,510654,5099.000,-1176.000,6300.000,-1278.000,-226.000,-884.000,0.000,0.000,0
2026-01-30 23:08:06,510694,4833.000,546.000,7933.000,-1205.000,113.000,-695.000,0.000,0.000,0
2026-01-30 23:08:06,510734,5831.000,-1612.000,4651.000,564.000,27.000,-673.000,0.000,0.000,0
2026-01-30 23:08:06,510774,4792.000,-1556.000,6612.000,1144.000,223.000,-588.000,0.000,0.000,0
2026-01-30 23:08:06,510814,5687.000,-3451.000,5098.000,775.000,-537.000,1.000,0.000,0.000,0
2026-01-30 23:08:06,510854,5114.000,-1007.000,5905.000,1746.000,-582.000,-684.000,0.000,0.000,0
2026-01-30 23:08:06,510894,5276.000,-1838.000,5997.000,1333.000,250.000,-669.000,0.000,0.000,0
2026-01-30 23:08:06,510934,5639.000,-1475.000,5833.000,1623.000,500.000,-691.000,0.000,0.000,0
2026-01-30 23:08:06,510974,6198.000,-1427.000,8391.000,1693.000,787.000,-679.000,0.000,0.000,0
2026-01-30 23:08:06,511014,5880.000,754.000,6840.000,1631.000,122.000,-1033.000,0.000,0.000,0
2026-01-30 23:08:06,511054,5107.000,277.000,6234.000,1325.000,-713.000,-273.000,0.000,0.000,0
2026-01-30 23:08:06,511094,4099.000,-16.000,7253.000,172.000,80.000,-937.000,0.000,0.000,0
2026-01-30 23:08:06,511134,5306.000,690.000,6774.000,32.000,663.000,-332.000,0.000,0.000,0
2026-01-30 23:08:06,511174,4980.000,-350.000,5951.000,-418.000,1611.000,-365.000,0.000,0.000,0
2026-01-30 23:08:07,511214,6340.000,-507.000,5569.000,355.000,1521.000,155.000,0.000,0.000,0
2026-01-30 23:08:07,511254,4045.000,-1827.000,6685.000,-67.000,1587.000,-584.000,0.000,0.000,0
2026-01-30 23:08:07,511294,6265.000,-546.000,7131.000,-207.000,74.000,177.000,0.000,0.000,0
2026-01-30 23:08:07,511334,3696.000,-655.000,6986.000,-795.000,12.000,-913.000,0.000,0.000,0
2026-01-30 23:08:07,511374,2994.000,81.000,6836.000,-919.000,-406.000,-331.000,0.000,0.000,0
2026-01-30 23:08:07,511414,6190.000,792.000,5965.000,-1022.000,142.000,5.000,0.000,0.000,0
2026-01-30 23:08:07,511454,4348.000,-925.000,6376.000,-1344.000,1224.000,-52.000,0.000,0.000,0
2026-01-30 23:08:07,511494,6171.000,0.000,7618.000,863.000,740.000,389.000,0.000,0.000,0
2026-01-30 23:08:07,511534,4251.000,-1707.000,7365.000,-608.000,-164.000,222.000,0.000,0.000,0
2026-01-30 23:08:07,511574,5848.000,104.000,6345.000,639.000,-311.000,431.000,0.000,0.000,0
2026-01-30 23:08:07,511614,6732.000,-1116.000,4304.000,394.000,-1510.000,244.000,0.000,0.000,0
2026-01-30 23:08:07,511654,4324.000,-727.000,7746.000,309.000,650.000,-873.000,0.000,0.000,0
2026-01-30 23:08:07,511694,7294.000,354.000,6260.000,2599.000,-316.000,-477.000,0.000,0.000,0
2026-01-30 23:08:07,511734,3436.000,-1767.000,6588.000,1784.000,550.000,179.000,0.000,0.000,0
2026-01-30 23:08:07,511774,3579.000,-833.000,7839.000,1278.000,-513.000,228.000,0.000,0.000,0
2026-01-30 23:08:07,511817,2485.000,-319.000,5980.000,-27.000,751.000,373.000,0.000,0.000,0
2026-01-30 23:08:07,511857,7571.000,917.000,9423.000,-148.000,765.000,1125.000,0.000,0.000,0
2026-01-30 23:08:07,511894,1433.000,333.000,6459.000,-366.000,1507.000,707.000,0.000,0.000,0
2026-01-30 23:08:07,511934,10043.000,680.000,10761.000,-543.000,-787.000,665.000,0.000,0.000,0
2026-01-30 23:08:07,511974,2616.000,380.000,2712.000,-253.000,-221.000,263.000,0.000,0.000,0
2026-01-30 23:08:07,512014,5280.000,-1072.000,6107.000,-1224.000,-595.000,56.000,0.000,0.000,0
2026-01-30 23:08:07,512057,3955.000,-1052.000,5392.000,-626.000,-559.000,59.000,0.000,0.000,0
2026-01-30 23:08:07,512094,5534.000,-1451.000,5749.000,-402.000,-700.000,118.000,0.000,0.000,0
2026-01-30 23:08:07,512134,5946.000,257.000,5057.000,-372.000,-11.000,242.000,0.000,0.000,0
2026-01-30 23:08:07,512174,6498.000,-523.000,7268.000,52.000,-59.000,-428.000,0.000,0.000,0
2026-01-30 23:08:08,512214,4508.000,-607.000,8744.000,1402.000,-109.000,-885.000,0.000,0.000,0
2026-01-30 23:08:08,512254,5771.000,-920.000,9273.000,498.000,-830.000,124.000,0.000,0.000,0
2026-01-30 23:08:08,512294,2552.000,254.000,4484.000,869.000,-564.000,-262.000,0.000,0.000,0
2026-01-30 23:08:08,512334,6055.000,167.000,10353.000,-457.000,979.000,261.000,0.000,0.000,0
2026-01-30 23:08:08,512374,5751.000,2671.000,7420.000,428.000,1072.000,-633.000,0.000,0.000,0
2026-01-30 23:08:08,512414,3329.000,1842.000,5158.000,504.000,1038.000,-458.000,0.000,0.000,0
2026-01-30 23:08:08,512454,7967.000,-630.000,9101.000,65.000,266.000,-142.000,0.000,0.000,0
2026-01-30 23:08:08,512494,-1971.000,458.000,9896.000,-1156.000,3719.000,-2109.000,0.000,0.000,0
2026-01-30 23:08:08,512534,23865.000,7496.000,19353.000,329.000,-2436.000,304.000,0.000,0.000,0
2026-01-30 23:08:08,512574,6564.000,6482.000,942.000,3106.000,-2027.000,88.000,0.000,0.000,0
2026-01-30 23:08:08,512614,10002.000,4733.000,-4097.000,4511.000,-1780.000,-251.000,0.000,0.000,0
2026-01-30 23:08:08,512654,-2091.000,-2044.000,1092.000,59.000,558.000,-784.000,0.000,0.000,0
2026-01-30 23:08:08,512694,6191.000,-4135.000,9637.000,-24.000,-1215.000,708.000,0.000,0.000,0
2026-01-30 23:08:08,512734,-5094.000,1241.000,-16323.000,5754.000,-4788.000,939.000,0.000,0.000,0
2026-01-30 23:08:08,512774,-15839.000,-12551.000,3522.000,-3670.000,3315.000,-1097.000,0.000,0.000,0
2026-01-30 23:08:08,512814,8272.000,6121.000,12441.000,-333.000,-1244.000,-1067.000,0.000,0.000,0
2026-01-30 23:08:08,512854,677.000,1714.000,2706.000,221.000,-65.000,-409.000,0.000,0.000,0
2026-01-30 23:08:08,512894,-32.000,-447.000,4625.000,-3256.000,273.000,-438.000,0.000,0.000,0
2026-01-30 23:08:08,512934,4822.000,115.000,8356.000,-1350.000,716.000,-138.000,0.000,0.000,0
2026-01-30 23:08:08,512974,9563.000,2712.000,8311.000,-953.000,670.000,-617.000,0.000,0.000,0
2026-01-30 23:08:08,513014,9480.000,-194.000,5707.000,-573.000,137.000,-104.000,0.000,0.000,0
2026-01-30 23:08:08,513054,-3398.000,-2421.000,9656.000,-808.000,696.000,-753.000,0.000,0.000,0
2026-01-30 23:08:08,513094,9395.000,-4375.000,9327.000,-1395.000,1280.000,396.000,0.000,0.000,0
2026-01-30 23:08:08,513134,11789.000,5189.000,10134.000,2625.000,329.000,825.000,0.000,0.000,0
2026-01-30 23:08:08,513174,3518.000,-647.000,6435.000,43.000,-820.000,100.000,0.000,0.000,0
2026-01-30 23:08:09,513214,3679.000,38.000,6102.000,456.000,-2201.000,241.000,0.000,0.000,0
2026-01-30 23:08:09,513254,3764.000,131.000,9387.000,-83.000,-1160.000,305.000,0.000,0.000,0
2026-01-30 23:08:09,513294,7475.000,1216.000,6161.000,985.000,-1187.000,585.000,0.000,0.000,0
2026-01-30 23:08:09,513334,3724.000,-1038.000,5383.000,489.000,900.000,76.000,0.000,0.000,0
2026-01-30 23:08:09,513374,3411.000,-718.000,3406.000,-149.000,754.000,-266.000,0.000,0.000,0
2026-01-30 23:08:09,513414,-1809.000,98.000,9222.000,19.000,2027.000,-999.000,0.000,0.000,0
2026-01-30 23:08:09,513454,10178.000,-203.000,12915.000,763.000,-1440.000,933.000,0.000,0.000,0
2026-01-30 23:08:09,513494,3990.000,1875.000,4747.000,1450.000,-675.000,625.000,0.000,0.000,0
2026-01-30 23:08:09,513534,3515.000,-1424.000,6872.000,-940.000,-116.000,-15.000,0.000,0.000,0
2026-01-30 23:08:09,513574,5892.000,-853.000,8289.000,-695.000,-321.000,751.000,0.000,0.000,0
2026-01-30 23:08:09,513614,4715.000,-84.000,5748.000,237.000,-336.000,788.000,0.000,0.000,0
2026-01-30 23:08:09,513654,4682.000,-829.000,6412.000,-781.000,40.000,395.000,0.000,0.000,0
2026-01-30 23:08:09,513694,3219.000,-301.000,6620.000,-356.000,-198.000,-76.000,0.000,0.000,0
2026-01-30 23:08:09,513734,16293.000,315.000,13890.000,-877.000,-122.000,995.000,0.000,0.000,0
2026-01-30 23:08:09,513794,4246.000,-974.000,8339.000,-1475.000,-346.000,-948.000,0.000,0.000,0
2026-01-30 23:08:09,513814,3625.000,949.000,6391.000,-893.000,-523.000,-676.000,0.000,0.000,0
2026-01-30 23:08:09,513854,5157.000,-754.000,6033.000,-1655.000,134.000,-741.000,0.000,0.000,0
2026-01-30 23:08:09,513894,5987.000,-21.000,6346.000,-386.000,439.000,-324.000,0.000,0.000,0
2026-01-30 23:08:09,513934,-890.000,-666.000,3651.000,919.000,-577.000,91.000,0.000,0.000,0
2026-01-30 23:08:09,513974,9891.000,-861.000,9877.000,-1076.000,980.000,-261.000,0.000,0.000,0
2026-01-30 23:08:09,514014,7125.000,170.000,5377.000,-740.000,1041.000,-1625.000,0.000,0.000,0
2026-01-30 23:08:09,514057,6514.000,-75.000,6029.000,1648.000,102.000,334.000,0.000,0.000,0
2026-01-30 23:08:09,514094,5850.000,-1680.000,4924.000,1051.000,195.000,223.000,0.000,0.000,0
2026-01-30 23:08:09,514134,6088.000,-604.000,6323.000,2163.000,267.000,631.000,0.000,0.000,0
2026-01-30 23:08:09,514174,4473.000,-260.000,5646.000,2469.000,-225.000,-305.000,0.000,0.000,0
2026-01-30 23:08:10,514214,8073.000,2528.000,10354.000,922.000,2066.000,-879.000,0.000,0.000,0
2026-01-30 23:08:10,514254,3071.000,-1760.000,-1742.000,3018.000,-825.000,1308.000,0.000,0.000,0
2026-01-30 23:08:10,514294,-13054.000,-11216.000,7433.000,938.000,-764.000,-935.000,0.000,0.000,0
2026-01-30 23:08:10,514334,-2451.000,-1905.000,13198.000,1884.000,1386.000,1000.000,0.000,0.000,0
2026-01-30 23:08:10,514374,12001.000,6421.000,12188.000,1866.000,1778.000,2174.000,0.000,0.000,0
2026-01-30 23:08:10,514414,12465.000,2657.000,9942.000,274.000,1283.000,1514.000,0.000,0.000,0
2026-01-30 23:08:10,514454,2386.000,-873.000,7876.000,472.000,-289.000,916.000,0.000,0.000,0
2026-01-30 23:08:10,514494,5759.000,-304.000,7619.000,-1710.000,-402.000,181.000,0.000,0.000,0
2026-01-30 23:08:10,514534,11523.000,782.000,2630.000,-2108.000,-396.000,933.000,0.000,0.000,0
2026-01-30 23:08:10,514574,2926.000,-2525.000,6488.000,88.000,-44.000,176.000,0.000,0.000,0
2026-01-30 23:08:10,514614,3403.000,-778.000,6484.000,-360.000,-90.000,26.000,0.000,0.000,0
2026-01-30 23:08:10,514654,7828.000,3081.000,4702.000,848.000,-1576.000,1160.000,0.000,0.000,0
2026-01-30 23:08:10,514694,7140.000,-2318.000,148.000,-515.000,-451.000,2027.000,0.000,0.000,0
2026-01-30 23:08:10,514734,5524.000,-4013.000,8392.000,-294.000,700.000,1334.000,0.000,0.000,0
2026-01-30 23:08:10,514774,4079.000,52.000,5267.000,1638.000,753.000,190.000,0.000,0.000,0
2026-01-30 23:08:10,514814,4909.000,1108.000,8456.000,1087.000,899.000,696.000,0.000,0.000,0
2026-01-30 23:08:10,514854,5535.000,692.000,8678.000,-232.000,-60.000,84.000,0.000,0.000,0
2026-01-30 23:08:10,514894,3052.000,421.000,7252.000,-810.000,-1007.000,22.000,0.000,0.000,0
2026-01-30 23:08:10,514934,4764.000,396.000,6544.000,-1265.000,-1416.000,-139.000,0.000,0.000,0
2026-01-30 23:08:10,514974,5925.000,276.000,5736.000,-1238.000,-339.000,344.000,0.000,0.000,0
2026-01-30 23:08:10,515014,4041.000,-719.000,7251.000,301.000,487.000,-154.000,0.000,0.000,0
2026-01-30 23:08:10,515054,3978.000,-2559.000,7904.000,-1102.000,1114.000,95.000,0.000,0.000,0
2026-01-30 23:08:10,515094,2117.000,-646.000,6635.000,-450.000,353.000,-27.000,0.000,0.000,0
2026-01-30 23:08:10,515134,5608.000,-1094.000,4611.000,-1430.000,256.000,173.000,0.000,0.000,0
2026-01-30 23:08:10,515174,7957.000,-735.000,7965.000,-1311.000,1309.000,-237.000,0.000,0.000,0
2026-01-30 23:08:11,515214,2824.000,260.000,7970.000,70.000,146.000,-780.000,0.000,0.000,0
2026-01-30 23:08:11,515254,3596.000,-424.000,8181.000,-1160.000,306.000,-857.000,0.000,0.000,0
2026-01-30 23:08:11,515294,3976.000,-906.000,6319.000,-258.000,-621.000,535.000,0.000,0.000,0
2026-01-30 23:08:11,515334,4157.000,721.000,6975.000,327.000,-90.000,37.000,0.000,0.000,0
2026-01-30 23:08:11,515374,10965.000,-3076.000,8002.000,-1039.000,993.000,34.000,0.000,0.000,0
2026-01-30 23:08:11,515414,-367.000,1327.000,6171.000,291.000,743.000,-2040.000,0.000,0.000,0
2026-01-30 23:08:11,515454,3302.000,184.000,7078.000,265.000,-307.000,195.000,0.000,0.000,0
2026-01-30 23:08:11,515494,7571.000,1537.000,8529.000,-488.000,-273.000,26.000,0.000,0.000,0
2026-01-30 23:08:11,515534,2920.000,-107.000,7217.000,-271.000,-775.000,-248.000,0.000,0.000,0
2026-01-30 23:08:11,515574,4936.000,127.000,5960.000,-1048.000,-876.000,-873.000,0.000,0.000,0
2026-01-30 23:08:11,515614,3187.000,167.000,5828.000,11.000,-1808.000,-98.000,0.000,0.000,0
2026-01-30 23:08:11,515654,10348.000,-1211.000,6018.000,109.000,-2297.000,16.000,0.000,0.000,0
2026-01-30 23:08:11,515694,3992.000,-628.000,5437.000,129.000,-87.000,-1992.000,0.000,0.000,0
2026-01-30 23:08:11,515734,4167.000,-2213.000,1443.000,1706.000,-1399.000,311.000,0.000,0.000,0
2026-01-30 23:08:11,515774,2761.000,-1299.000,12127.000,467.000,1401.000,-1171.000,0.000,0.000,0
2026-01-30 23:08:11,515817,3327.000,-2631.000,6814.000,1801.000,-658.000,-955.000,0.000,0.000,0
2026-01-30 23:08:11,515854,6615.000,3171.000,3645.000,3653.000,-1114.000,-1161.000,0.000,0.000,0
2026-01-30 23:08:11,515894,2834.000,-816.000,2423.000,2179.000,-164.000,-90.000,0.000,0.000,0
2026-01-30 23:08:11,515934,5146.000,-2413.000,4109.000,1285.000,-782.000,-331.000,0.000,0.000,0
2026-01-30 23:08:11,515974,3904.000,454.000,8304.000,3285.000,25.000,-403.000,0.000,0.000,0
2026-01-30 23:08:11,516014,3313.000,-1256.000,4438.000,3017.000,819.000,1104.000,0.000,0.000,0
2026-01-30 23:08:11,516057,12096.000,789.000,7712.000,2032.000,1764.000,1634.000,0.000,0.000,0
2026-01-30 23:08:11,516094,5835.000,-893.000,10402.000,1731.000,2058.000,857.000,0.000,0.000,0
2026-01-30 23:08:11,516134,5185.000,3627.000,11761.000,966.000,2824.000,-540.000,0.000,0.000,0
2026-01-30 23:08:11,516174,8450.000,837.000,8599.000,1282.000,2174.000,2067.000,0.000,0.000,0
2026-01-30 23:08:12,516214,2809.000,78.000,6418.000,1475.000,1179.000,1433.000,0.000,0.000,0
2026-01-30 23:08:12,516254,3723.000,-2265.000,10538.000,-1151.000,1005.000,946.000,0.000,0.000,0
2026-01-30 23:08:12,516294,3391.000,1731.000,3738.000,275.000,-14.000,1264.000,0.000,0.000,0
2026-01-30 23:08:12,516334,181.000,576.000,5016.000,-1287.000,973.000,653.000,0.000,0.000,0
2026-01-30 23:08:12,516374,6025.000,41.000,7065.000,-1730.000,1346.000,1095.000,0.000,0.000,0
2026-01-30 23:08:12,516414,2264.000,265.000,6952.000,-415.000,1343.000,746.000,0.000,0.000,0
2026-01-30 23:08:12,516454,10206.000,1296.000,6604.000,227.000,1812.000,523.000,0.000,0.000,0
2026-01-30 23:08:12,516494,6043.000,-264.000,7919.000,1195.000,369.000,375.000,0.000,0.000,0
2026-01-30 23:08:12,516534,6276.000,9.000,8109.000,2037.000,-2883.000,194.000,0.000,0.000,0
2026-01-30 23:08:12,516574,4853.000,61.000,5118.000,1109.000,-4136.000,141.000,0.000,0.000,0
2026-01-30 23:08:12,516614,4968.000,792.000,6802.000,1728.000,-2306.000,314.000,0.000,0.000,0
2026-01-30 23:08:12,516654,4648.000,-828.000,3565.000,1808.000,649.000,1353.000,0.000,0.000,0
2026-01-30 23:08:12,516694,3721.000,-1792.000,6809.000,1461.000,1235.000,1604.000,0.000,0.000,0
2026-01-30 23:08:12,516734,7445.000,1929.000,5497.000,2300.000,1306.000,1194.000,0.000,0.000,0
2026-01-30 23:08:12,516774,7717.000,357.000,8357.000,1973.000,1795.000,1248.000,0.000,0.000,0
2026-01-30 23:08:12,516814,5106.000,929.000,8174.000,2632.000,599.000,1030.000,0.000,0.000,0
2026-01-30 23:08:12,516854,4871.000,622.000,7821.000,1920.000,-725.000,1164.000,0.000,0.000,0
2026-01-30 23:08:12,516894,5376.000,1457.000,6616.000,1240.000,-670.000,1256.000,0.000,0.000,0
2026-01-30 23:08:12,516934,4170.000,427.000,6131.000,659.000,370.000,1020.000,0.000,0.000,0
2026-01-30 23:08:12,516974,6016.000,-1019.000,6768.000,321.000,2006.000,1480.000,0.000,0.000,0
2026-01-30 23:08:12,517014,3545.000,2093.000,7011.000,1097.000,1114.000,1077.000,0.000,0.000,0
2026-01-30 23:08:12,517054,6273.000,-218.000,7258.000,550.000,1144.000,1384.000,0.000,0.000,0
2026-01-30 23:08:12,517094,4426.000,-854.000,5455.000,1070.000,228.000,1788.000,0.000,0.000,0
2026-01-30 23:08:12,517134,5991.000,389.000,5900.000,1471.000,-368.000,1881.000,0.000,0.000,0
2026-01-30 23:08:12,517174,4170.000,-66.000,6285.000,1196.000,488.000,1297.000,0.000,0.000,0
2026-01-30 23:08:13,517214,7451.000,1792.000,7431.000,863.000,830.000,1536.000,0.000,0.000,0
2026-01-30 23:08:13,517254,1691.000,514.000,7967.000,703.000,794.000,1000.000,0.000,0.000,0
2026-01-30 23:08:13,517294,4808.000,1068.000,8409.000,-294.000,333.000,1388.000,0.000,0.000,0
2026-01-30 23:08:13,517334,4341.000,2436.000,6179.000,-167.000,-504.000,922.000,0.000,0.000,0
2026-01-30 23:08:13,517374,10268.000,1484.000,6270.000,-470.000,225.000,1284.000,0.000,0.000,0
2026-01-30 23:08:13,517414,664.000,-1059.000,4271.000,904.000,220.000,307.000,0.000,0.000,0
2026-01-30 23:08:13,517454,6916.000,-533.000,5318.000,655.000,-87.000,1643.000,0.000,0.000,0
2026-01-30 23:08:13,517494,5167.000,1495.000,5844.000,2233.000,-88.000,1678.000,0.000,0.000,0
2026-01-30 23:08:13,517534,5983.000,86.000,5827.000,2214.000,336.000,1890.000,0.000,0.000,0
2026-01-30 23:08:13,517574,6524.000,590.000,8473.000,2752.000,242.000,1772.000,0.000,0.000,0
2026-01-30 23:08:13,517614,6724.000,1770.000,7371.000,2420.000,40.000,1666.000,0.000,0.000,0
2026-01-30 23:08:13,517654,4334.000,1096.000,8709.000,1468.000,31.000,1532.000,0.000,0.000,0
2026-01-30 23:08:13,517694,3205.000,375.000,9779.000,12.000,622.000,1452.000,0.000,0.000,0
2026-01-30 23:08:13,517734,5144.000,1871.000,7466.000,363.000,667.000,1647.000,0.000,0.000,0
2026-01-30 23:08:13,517774,4584.000,1863.000,8573.000,-495.000,664.000,1424.000,0.000,0.000,0
2026-01-30 23:08:13,517817,3572.000,1204.000,6482.000,-1052.000,355.000,866.000,0.000,0.000,0
2026-01-30 23:08:13,517857,3073.000,210.000,5878.000,-1382.000,-497.000,1073.000,0.000,0.000,0
2026-01-30 23:08:13,517894,4782.000,1608.000,6694.000,-1415.000,-215.000,1021.000,0.000,0.000,0
2026-01-30 23:08:13,517934,3931.000,944.000,6449.000,-1263.000,715.000,627.000,0.000,0.000,0
2026-01-30 23:08:13,517974,5832.000,1230.000,6218.000,-596.000,736.000,810.000,0.000,0.000,0
2026-01-30 23:08:13,518014,3347.000,-145.000,6682.000,-693.000,763.000,794.000,0.000,0.000,0
2026-01-30 23:08:13,518057,5840.000,-975.000,7943.000,-2010.000,33.000,196.000,0.000,0.000,0
2026-01-30 23:08:13,518094,4036.000,-609.000,5713.000,-72.000,-259.000,446.000,0.000,0.000,0
2026-01-30 23:08:13,518134,6105.000,-238.000,6047.000,-668.000,-812.000,902.000,0.000,0.000,0
2026-01-30 23:08:13,518174,5383.000,1254.000,5515.000,141.000,-395.000,319.000,0.000,0.000,0
2026-01-30 23:08:14,518214,4534.000,-1406.000,8028.000,-591.000,-409.000,543.000,0.000,0.000,0
2026-01-30 23:08:14,518254,4750.000,577.000,7078.000,626.000,-554.000,899.000,0.000,0.000,0
2026-01-30 23:08:14,518294,3816.000,-1058.000,6886.000,-109.000,347.000,711.000,0.000,0.000,0
2026-01-30 23:08:14,518334,4948.000,-452.000,6720.000,21.000,-220.000,665.000,0.000,0.000,0
2026-01-30 23:08:14,518374,2295.000,-178.000,8636.000,-430.000,-686.000,488.000,0.000,0.000,0
2026-01-30 23:08:14,518414,5540.000,19.000,6713.000,-1111.000,-324.000,572.000,0.000,0.000,0
2026-01-30 23:08:14,518454,3262.000,-92.000,6410.000,-690.000,-247.000,812.000,0.000,0.000,0
2026-01-30 23:08:14,518494,5062.000,-362.000,7716.000,-1729.000,420.000,606.000,0.000,0.000,0
2026-01-30 23:08:14,518534,-6.000,-277.000,6584.000,-635.000,-747.000,294.000,0.000,0.000,0
2026-01-30 23:08:14,518574,8921.000,-281.000,6359.000,-2582.000,-1123.000,697.000,0.000,0.000,0
2026-01-30 23:08:14,518614,5758.000,931.000,7382.000,-1377.000,-395.000,-68.000,0.000,0.000,0
2026-01-30 23:08:14,518654,4819.000,-125.000,6410.000,-1714.000,87.000,-669.000,0.000,0.000,0
2026-01-30 23:08:14,518694,6117.000,1606.000,6029.000,-1059.000,605.000,-474.000,0.000,0.000,0
2026-01-30 23:08:14,518734,3569.000,448.000,9015.000,-713.000,3693.000,-568.000,0.000,0.000,0
2026-01-30 23:08:14,518774,4089.000,1280.000,7866.000,-118.000,2502.000,-307.000,0.000,0.000,0
2026-01-30 23:08:14,518814,2945.000,-2138.000,6763.000,-1738.000,2557.000,-646.000,0.000,0.000,0
2026-01-30 23:08:14,518854,5463.000,2145.000,9266.000,-1944.000,2562.000,-993.000,0.000,0.000,0
2026-01-30 23:08:14,518894,2968.000,-1019.000,10958.000,-1427.000,881.000,-1341.000,0.000,0.000,0
2026-01-30 23:08:14,518934,1729.000,-159.000,8561.000,-264.000,-802.000,-544.000,0.000,0.000,0
2026-01-30 23:08:14,518974,4072.000,-480.000,7162.000,532.000,-814.000,294.000,0.000,0.000,0
2026-01-30 23:08:14,519014,5578.000,641.000,6206.000,3934.000,448.000,22.000,0.000,0.000,0
2026-01-30 23:08:14,519054,1212.000,-1495.000,5130.000,668.000,1912.000,-22.000,0.000,0.000,0
2026-01-30 23:08:14,519094,2870.000,-67.000,6594.000,1305.000,-740.000,-522.000,0.000,0.000,0
2026-01-30 23:08:14,519134,3546.000,-796.000,6537.000,274.000,872.000,-1011.000,0.000,0.000,0
2026-01-30 23:08:14,519174,3619.000,375.000,7931.000,798.000,675.000,-904.000,0.000,0.000,0
2026-01-30 23:08:15,519214,4265.000,-293.000,7728.000,88.000,490.000,-44.000,0.000,0.000,0
2026-01-30 23:08:15,519254,3348.000,-1348.000,5300.000,72.000,1529.000,-187.000,0.000,0.000,0
2026-01-30 23:08:15,519294,2962.000,-990.000,8952.000,2069.000,1013.000,-166.000,0.000,0.000,0
2026-01-30 23:08:15,519334,5531.000,-36.000,9197.000,2397.000,-952.000,-396.000,0.000,0.000,0
2026-01-30 23:08:15,519374,-4236.000,-2507.000,6891.000,1045.000,1174.000,-860.000,0.000,0.000,0
2026-01-30 23:08:15,519414,5560.000,55.000,8574.000,1315.000,-1920.000,34.000,0.000,0.000,0
2026-01-30 23:08:15,519454,3861.000,2751.000,8620.000,-1162.000,-1405.000,-533.000,0.000,0.000,0
2026-01-30 23:08:15,519494,4130.000,1017.000,7797.000,-2250.000,-1972.000,625.000,0.000,0.000,0
2026-01-30 23:08:15,519534,4440.000,2804.000,9161.000,-1448.000,-2288.000,507.000,0.000,0.000,0
2026-01-30 23:08:15,519574,2522.000,-859.000,3952.000,-2355.000,-1357.000,174.000,0.000,0.000,0
2026-01-30 23:08:15,519614,8339.000,880.000,7136.000,-1872.000,-2074.000,646.000,0.000,0.000,0
2026-01-30 23:08:15,519654,3829.000,-679.000,6825.000,-743.000,-824.000,-265.000,0.000,0.000,0
2026-01-30 23:08:15,519694,4129.000,-1392.000,6602.000,-614.000,-852.000,327.000,0.000,0.000,0
2026-01-30 23:08:15,519734,5088.000,-84.000,5981.000,946.000,-419.000,499.000,0.000,0.000,0
2026-01-30 23:08:15,519774,3671.000,-1649.000,5892.000,-67.000,-256.000,306.000,0.000,0.000,0
2026-01-30 23:08:15,519814,9641.000,-158.000,6804.000,1424.000,-197.000,687.000,0.000,0.000,0
2026-01-30 23:08:15,519854,1614.000,588.000,7738.000,3316.000,88.000,-334.000,0.000,0.000,0
2026-01-30 23:08:15,519898,6819.000,182.000,7224.000,1867.000,500.000,143.000,0.000,0.000,0
2026-01-30 23:08:15,519934,3583.000,-256.000,8007.000,1324.000,1032.000,124.000,0.000,0.000,0
2026-01-30 23:08:15,519974,5169.000,1140.000,6384.000,2701.000,418.000,368.000,0.000,0.000,0
2026-01-30 23:08:15,520014,1647.000,-308.000,9149.000,1402.000,611.000,632.000,0.000,0.000,0
2026-01-30 23:08:15,520057,6571.000,-131.000,7888.000,576.000,-61.000,396.000,0.000,0.000,0
2026-01-30 23:08:15,520096,5168.000,1083.000,8262.000,786.000,-134.000,-394.000,0.000,0.000,0
2026-01-30 23:08:15,520134,-678.000,842.000,7893.000,-412.000,10.000,-659.000,0.000,0.000,0
2026-01-30 23:08:15,520174,6188.000,854.000,8859.000,-69.000,-884.000,700.000,0.000,0.000,0
2026-01-30 23:08:16,520214,3967.000,2506.000,8703.000,-552.000,-1426.000,-95.000,0.000,0.000,0
2026-01-30 23:08:16,520254,3388.000,1581.000,5827.000,-1213.000,-1350.000,-1161.000,0.000,0.000,0
2026-01-30 23:08:16,520294,1097.000,-684.000,7941.000,-3764.000,538.000,-959.000,0.000,0.000,0
2026-01-30 23:08:16,520334,6919.000,241.000,8999.000,-3049.000,-583.000,-295.000,0.000,0.000,0
2026-01-30 23:08:16,520374,4482.000,1348.000,6181.000,-1908.000,-56.000,-1157.000,0.000,0.000,0
2026-01-30 23:08:16,520414,6485.000,430.000,4202.000,-2027.000,347.000,-876.000,0.000,0.000,0
2026-01-30 23:08:16,520454,7210.000,-349.000,6522.000,-1925.000,672.000,-594.000,0.000,0.000,0
2026-01-30 23:08:16,520494,5129.000,2086.000,5982.000,1545.000,731.000,-312.000,0.000,0.000,0
2026-01-30 23:08:16,520534,5296.000,-2607.000,6638.000,-1118.000,928.000,-198.000,0.000,0.000,0
2026-01-30 23:08:16,520574,5112.000,-943.000,7914.000,-670.000,-296.000,-1498.000,0.000,0.000,0
2026-01-30 23:08:16,520614,7243.000,-1416.000,6639.000,-2575.000,-1068.000,-2195.000,0.000,0.000,0
2026-01-30 23:08:16,520654,5496.000,-977.000,7843.000,-4873.000,-407.000,-2576.000,0.000,0.000,0
2026-01-30 23:08:16,520694,7600.000,-1876.000,9413.000,-8936.000,-1376.000,-1073.000,0.000,0.000,0
2026-01-30 23:08:16,520734,6859.000,-7481.000,7678.000,-16148.000,1208.000,54.000,0.000,0.000,0
2026-01-30 23:08:16,520774,6501.000,-7157.000,7986.000,-7810.000,2427.000,-292.000,0.000,0.000,0
2026-01-30 23:08:16,520814,7073.000,-9464.000,10945.000,-1361.000,4315.000,127.000,0.000,0.000,0
2026-01-30 23:08:16,520854,5292.000,-5510.000,11606.000,-1045.000,5860.000,2743.000,0.000,0.000,0
2026-01-30 23:08:16,520894,2408.000,-7328.000,8134.000,-7250.000,5421.000,7232.000,0.000,0.000,0
2026-01-30 23:08:16,520934,2816.000,-5605.000,7123.000,-5392.000,3543.000,9618.000,0.000,0.000,0
2026-01-30 23:08:16,520974,2566.000,-3693.000,5160.000,-3203.000,2539.000,11305.000,0.000,0.000,0
2026-01-30 23:08:16,521014,2963.000,1096.000,7307.000,-718.000,632.000,11930.000,0.000,0.000,0
2026-01-30 23:08:16,521054,1032.000,-1123.000,5739.000,-6717.000,-794.000,10250.000,0.000,0.000,0
2026-01-30 23:08:16,521094,1305.000,90.000,4571.000,-7657.000,147.000,5233.000,0.000,0.000,0
2026-01-30 23:08:16,521134,-132.000,-1737.000,5742.000,-8482.000,993.000,1702.000,0.000,0.000,0
2026-01-30 23:08:16,521174,-860.000,-4101.000,3305.000,-8035.000,1295.000,179.000,0.000,0.000,0
2026-01-30 23:08:17,521214,-1364.000,-4860.000,2989.000,-4883.000,896.000,-1475.000,0.000,0.000,0
2026-01-30 23:08:17,521254,-851.000,-6257.000,2720.000,-5180.000,-8.000,-2078.000,0.000,0.000,0
2026-01-30 23:08:17,521294,-27.000,-6837.000,1864.000,-3103.000,628.000,-1737.000,0.000,0.000,0
2026-01-30 23:08:17,521334,92.000,-7623.000,2693.000,-3263.000,2020.000,-1545.000,0.000,0.000,0
2026-01-30 23:08:17,521374,-120.000,-7167.000,2743.000,-1676.000,2782.000,-1723.000,0.000,0.000,0
2026-01-30 23:08:17,521414,-528.000,-7525.000,2678.000,-1870.000,1188.000,-51.000,0.000,0.000,0
2026-01-30 23:08:17,521454,-1070.000,-6128.000,748.000,-1652.000,1136.000,-1048.000,0.000,0.000,0
2026-01-30 23:08:17,521494,-376.000,-6995.000,2135.000,-2384.000,1752.000,-1121.000,0.000,0.000,0
2026-01-30 23:08:17,521534,-481.000,-6852.000,1443.000,-1216.000,1802.000,-758.000,0.000,0.000,0
2026-01-30 23:08:17,521574,-890.000,-7169.000,765.000,-1077.000,2321.000,-1565.000,0.000,0.000,0
2026-01-30 23:08:17,521614,81.000,-7495.000,1876.000,490.000,2541.000,-1422.000,0.000,0.000,0
2026-01-30 23:08:17,521654,-581.000,-6293.000,1815.000,1655.000,2829.000,-1473.000,0.000,0.000,0
2026-01-30 23:08:17,521694,-240.000,-6844.000,1725.000,-130.000,2871.000,-1933.000,0.000,0.000,0
2026-01-30 23:08:17,521734,396.000,-7065.000,2242.000,2016.000,2979.000,-2300.000,0.000,0.000,0
2026-01-30 23:08:17,521774,1641.000,-8484.000,2634.000,1754.000,3371.000,-3070.000,0.000,0.000,0
2026-01-30 23:08:17,521815,2832.000,-10691.000,2708.000,4111.000,5100.000,-1577.000,0.000,0.000,0
2026-01-30 23:08:17,521854,1702.000,-8311.000,4190.000,4123.000,6361.000,-912.000,0.000,0.000,0
2026-01-30 23:08:17,521894,827.000,-8849.000,3278.000,1883.000,6279.000,-1102.000,0.000,0.000,0
2026-01-30 23:08:17,521934,83.000,-8959.000,2610.000,547.000,4766.000,-1733.000,0.000,0.000,0
2026-01-30 23:08:17,521974,1362.000,-8938.000,2609.000,1097.000,2803.000,-1505.000,0.000,0.000,0
2026-01-30 23:08:17,522014,1752.000,-7719.000,2827.000,890.000,1819.000,-1760.000,0.000,0.000,0
2026-01-30 23:08:17,522058,2338.000,-8972.000,2528.000,1106.000,1141.000,-1174.000,0.000,0.000,0
2026-01-30 23:08:17,522094,1875.000,-8533.000,2709.000,1385.000,1303.000,-745.000,0.000,0.000,0
2026-01-30 23:08:17,522134,2354.000,-8376.000,3317.000,1628.000,468.000,-46.000,0.000,0.000,0
2026-01-30 23:08:17,522174,1052.000,-7653.000,3168.000,434.000,629.000,275.000,0.000,0.000,0
2026-01-30 23:08:18,522214,387.000,-6753.000,3052.000,1621.000,618.000,678.000,0.000,0.000,0
2026-01-30 23:08:18,522254,-1372.000,-5936.000,3323.000,1159.000,548.000,602.000,0.000,0.000,0
2026-01-30 23:08:18,522294,-1004.000,-6491.000,3147.000,2155.000,-121.000,181.000,0.000,0.000,0
2026-01-30 23:08:18,522334,-243.000,-6207.000,4056.000,3717.000,-54.000,482.000,0.000,0.000,0
2026-01-30 23:08:18,522374,143.000,-5409.000,4226.000,4108.000,418.000,911.000,0.000,0.000,0
2026-01-30 23:08:18,522414,735.000,-5859.000,5014.000,4190.000,666.000,711.000,0.000,0.000,0
2026-01-30 23:08:18,522454,1291.000,-5256.000,4896.000,4968.000,1155.000,1011.000,0.000,0.000,0
2026-01-30 23:08:18,522494,611.000,-4814.000,5225.000,3983.000,1382.000,636.000,0.000,0.000,0
2026-01-30 23:08:18,522534,289.000,-4524.000,5384.000,4593.000,884.000,421.000,0.000,0.000,0
2026-01-30 23:08:18,522574,517.000,-4685.000,5504.000,4531.000,-554.000,-411.000,0.000,0.000,0
2026-01-30 23:08:18,522614,74.000,-4058.000,6519.000,5337.000,-1524.000,-599.000,0.000,0.000,0
2026-01-30 23:08:18,522654,967.000,-3731.000,6962.000,6342.000,-2946.000,-755.000,0.000,0.000,0
2026-01-30 23:08:18,522694,267.000,-2762.000,7943.000,8276.000,-3289.000,-458.000,0.000,0.000,0
2026-01-30 23:08:18,522734,434.000,-1958.000,9708.000,6472.000,-4347.000,-188.000,0.000,0.000,0
2026-01-30 23:08:18,522774,363.000,-3187.000,8202.000,3556.000,-4113.000,-52.000,0.000,0.000,0
2026-01-30 23:08:18,522814,730.000,-998.000,9513.000,4622.000,-4479.000,26.000,0.000,0.000,0
2026-01-30 23:08:18,522854,1923.000,-2009.000,9489.000,2123.000,-4073.000,-585.000,0.000,0.000,0
2026-01-30 23:08:18,522894,2015.000,-1227.000,9894.000,1400.000,-3879.000,-716.000,0.000,0.000,0
2026-01-30 23:08:18,522934,2795.000,-2128.000,9098.000,666.000,-2757.000,-1431.000,0.000,0.000,0
2026-01-30 23:08:18,522974,3260.000,-2141.000,8304.000,991.000,-3082.000,-2144.000,0.000,0.000,0
2026-01-30 23:08:18,523014,3812.000,-1469.000,10199.000,2669.000,-1678.000,-1501.000,0.000,0.000,0
2026-01-30 23:08:18,523054,4626.000,-1079.000,8407.000,-395.000,-1412.000,-1338.000,0.000,0.000,0
2026-01-30 23:08:18,523094,3266.000,-1568.000,4858.000,-1689.000,-2349.000,-2099.000,0.000,0.000,0
2026-01-30 23:08:18,523134,4171.000,-6736.000,5739.000,-1949.000,-3182.000,-522.000,0.000,0.000,0
2026-01-30 23:08:18,523174,7934.000,-2966.000,8396.000,989.000,-5351.000,-1317.000,0.000,0.000,0
2026-01-30 23:08:19,523214,5964.000,-209.000,4782.000,-2142.000,-3262.000,-1517.000,0.000,0.000,0
2026-01-30 23:08:19,523254,6863.000,-2625.000,5839.000,-2532.000,-3671.000,-829.000,0.000,0.000,0
2026-01-30 23:08:19,523294,6048.000,466.000,5368.000,-309.000,-2605.000,-848.000,0.000,0.000,0
2026-01-30 23:08:19,523334,5843.000,-3928.000,5126.000,-34.000,-956.000,622.000,0.000,0.000,0
2026-01-30 23:08:19,523374,5653.000,-4579.000,5162.000,2241.000,-455.000,1377.000,0.000,0.000,0
2026-01-30 23:08:19,523414,6116.000,334.000,7952.000,3369.000,283.000,323.000,0.000,0.000,0
2026-01-30 23:08:19,523454,5384.000,-1278.000,6199.000,2811.000,400.000,382.000,0.000,0.000,0
2026-01-30 23:08:19,523494,4743.000,-1777.000,6495.000,1417.000,219.000,1413.000,0.000,0.000,0
2026-01-30 23:08:19,523534,4151.000,556.000,4981.000,2145.000,71.000,709.000,0.000,0.000,0
2026-01-30 23:08:19,523574,9139.000,-2442.000,8347.000,1616.000,-846.000,1265.000,0.000,0.000,0
2026-01-30 23:08:19,523614,4858.000,-603.000,6813.000,3516.000,540.000,-189.000,0.000,0.000,0
2026-01-30 23:08:19,523654,4858.000,-1210.000,4138.000,1731.000,743.000,196.000,0.000,0.000,0
2026-01-30 23:08:19,523694,6194.000,-519.000,9224.000,183.000,761.000,296.000,0.000,0.000,0
2026-01-30 23:08:19,523734,5900.000,-1902.000,4964.000,23.000,252.000,168.000,0.000,0.000,0
2026-01-30 23:08:19,523779,5976.000,-26.000,6907.000,653.000,-201.000,55.000,0.000,0.000,0
2026-01-30 23:08:19,523814,5893.000,-1683.000,6545.000,390.000,-236.000,24.000,0.000,0.000,0
2026-01-30 23:08:19,523854,6840.000,-2718.000,5785.000,859.000,-330.000,-248.000,0.000,0.000,0
2026-01-30 23:08:19,523894,3732.000,1266.000,8391.000,718.000,660.000,-1217.000,0.000,0.000,0
2026-01-30 23:08:19,523934,5806.000,-846.000,5158.000,389.000,-516.000,-145.000,0.000,0.000,0
2026-01-30 23:08:19,523974,5793.000,-501.000,5509.000,1119.000,598.000,-388.000,0.000,0.000,0
2026-01-30 23:08:19,524014,4575.000,-231.000,6191.000,1233.000,813.000,-982.000,0.000,0.000,0
2026-01-30 23:08:19,524057,3796.000,309.000,4107.000,1325.000,485.000,277.000,0.000,0.000,0
2026-01-30 23:08:19,524094,2292.000,2959.000,8933.000,1405.000,575.000,-259.000,0.000,0.000,0
2026-01-30 23:08:19,524134,3009.000,-63.000,3665.000,690.000,56.000,-164.000,0.000,0.000,0
2026-01-30 23:08:19,524174,6053.000,-2573.000,6845.000,-723.000,900.000,-297.000,0.000,0.000,0
2026-01-30 23:08:20,524214,7186.000,258.000,5710.000,141.000,239.000,-1004.000,0.000,0.000,0
2026-01-30 23:08:20,524254,7049.000,-1174.000,7653.000,-639.000,1659.000,-665.000,0.000,0.000,0
2026-01-30 23:08:20,524294,1942.000,2059.000,8106.000,-218.000,1148.000,-630.000,0.000,0.000,0
2026-01-30 23:08:20,524334,6605.000,915.000,6151.000,-1400.000,1420.000,-583.000,0.000,0.000,0
2026-01-30 23:08:20,524374,4734.000,-742.000,7550.000,-3275.000,2210.000,-893.000,0.000,0.000,0
2026-01-30 23:08:20,524414,4479.000,-2055.000,6013.000,-1377.000,2081.000,-219.000,0.000,0.000,0
2026-01-30 23:08:20,524454,6198.000,2677.000,5558.000,2407.000,1526.000,311.000,0.000,0.000,0
2026-01-30 23:08:20,524494,1653.000,850.000,6074.000,1868.000,4180.000,390.000,0.000,0.000,0
2026-01-30 23:08:20,524534,3549.000,-734.000,6650.000,1802.000,2730.000,1035.000,0.000,0.000,0
2026-01-30 23:08:20,524574,4938.000,-744.000,7086.000,-274.000,1183.000,13.000,0.000,0.000,0
2026-01-30 23:08:20,524614,2754.000,-162.000,6285.000,-780.000,2464.000,-585.000,0.000,0.000,0
2026-01-30 23:08:20,524654,3449.000,136.000,9917.000,-622.000,1558.000,-240.000,0.000,0.000,0
2026-01-30 23:08:20,524694,2053.000,-1159.000,7006.000,-1420.000,3512.000,-364.000,0.000,0.000,0
2026-01-30 23:08:20,524734,-3239.000,618.000,9642.000,-1150.000,3175.000,-808.000,0.000,0.000,0
2026-01-30 23:08:20,524774,8300.000,-450.000,4066.000,-829.000,-201.000,-119.000,0.000,0.000,0
2026-01-30 23:08:20,524814,-2677.000,2667.000,9546.000,-327.000,2986.000,-674.000,0.000,0.000,0
2026-01-30 23:08:20,524854,-7714.000,-1749.000,6296.000,-1226.000,4056.000,-370.000,0.000,0.000,0
2026-01-30 23:08:20,524894,9076.000,1332.000,10215.000,-689.000,-2665.000,-1146.000,0.000,0.000,0
2026-01-30 23:08:20,524934,-6052.000,-1687.000,5389.000,-1864.000,3166.000,-1079.000,0.000,0.000,0
2026-01-30 23:08:20,524974,6340.000,-927.000,9825.000,849.000,-1901.000,-952.000,0.000,0.000,0
2026-01-30 23:08:20,525014,-685.000,-1165.000,5669.000,1705.000,749.000,544.000,0.000,0.000,0
2026-01-30 23:08:20,525054,724.000,-1994.000,11910.000,2782.000,-229.000,1962.000,0.000,0.000,0
2026-01-30 23:08:20,525094,4231.000,-1362.000,6373.000,2428.000,-2778.000,2637.000,0.000,0.000,0
2026-01-30 23:08:20,525134,2115.000,-893.000,7320.000,2831.000,-3011.000,1028.000,0.000,0.000,0
2026-01-30 23:08:20,525174,6802.000,583.000,5458.000,1518.000,-5705.000,1615.000,0.000,0.000,0
2026-01-30 23:08:21,525214,8469.000,1690.000,2949.000,564.000,-6584.000,1778.000,0.000,0.000,0
2026-01-30 23:08:21,525254,627.000,1284.000,12611.000,854.000,-1301.000,199.000,0.000,0.000,0
2026-01-30 23:08:21,525294,2962.000,-1021.000,7309.000,304.000,-2295.000,1075.000,0.000,0.000,0
2026-01-30 23:08:21,525334,5632.000,5222.000,8856.000,1321.000,-1412.000,123.000,0.000,0.000,0
2026-01-30 23:08:21,525374,1731.000,-432.000,5376.000,-1473.000,1007.000,-588.000,0.000,0.000,0
2026-01-30 23:08:21,525414,7586.000,2511.000,8381.000,136.000,-723.000,-606.000,0.000,0.000,0
2026-01-30 23:08:21,525454,3404.000,815.000,5019.000,207.000,152.000,-1795.000,0.000,0.000,0
2026-01-30 23:08:21,525494,6827.000,-471.000,7186.000,-40.000,-158.000,-706.000,0.000,0.000,0
2026-01-30 23:08:21,525534,3684.000,1385.000,7567.000,975.000,656.000,-1357.000,0.000,0.000,0
2026-01-30 23:08:21,525574,4406.000,750.000,7462.000,755.000,839.000,-455.000,0.000,0.000,0
2026-01-30 23:08:21,525614,6069.000,1283.000,9277.000,457.000,152.000,-198.000,0.000,0.000,0
2026-01-30 23:08:21,525654,1838.000,640.000,7580.000,291.000,982.000,-462.000,0.000,0.000,0
2026-01-30 23:08:21,525694,3147.000,1741.000,9034.000,-344.000,371.000,343.000,0.000,0.000,0
2026-01-30 23:08:21,525734,2553.000,1730.000,9859.000,-377.000,560.000,-464.000,0.000,0.000,0
2026-01-30 23:08:21,525777,5350.000,807.000,7128.000,-1394.000,-284.000,-61.000,0.000,0.000,0
2026-01-30 23:08:21,525817,1648.000,2251.000,9766.000,-1552.000,1309.000,-117.000,0.000,0.000,0
2026-01-30 23:08:21,525854,3786.000,1434.000,8340.000,-1476.000,442.000,199.000,0.000,0.000,0
2026-01-30 23:08:21,525894,5609.000,1793.000,8298.000,-1080.000,-994.000,258.000,0.000,0.000,0
2026-01-30 23:08:21,525934,4128.000,1396.000,6952.000,-777.000,-42.000,-426.000,0.000,0.000,0
2026-01-30 23:08:21,525974,4774.000,-524.000,4147.000,-961.000,-28.000,4.000,0.000,0.000,0
2026-01-30 23:08:21,526014,8282.000,715.000,9039.000,448.000,-1238.000,-159.000,0.000,0.000,0
2026-01-30 23:08:21,526057,7919.000,2226.000,7269.000,1820.000,-1502.000,-566.000,0.000,0.000,0
2026-01-30 23:08:21,526094,5628.000,-1476.000,6123.000,1268.000,-1118.000,172.000,0.000,0.000,0
2026-01-30 23:08:21,526134,7882.000,1964.000,9053.000,2433.000,-2038.000,-139.000,0.000,0.000,0
2026-01-30 23:08:21,526174,8290.000,5217.000,7272.000,353.000,-467.000,710.000,0.000,0.000,0
2026-01-30 23:08:22,526214,11053.000,4395.000,4775.000,-2480.000,4114.000,838.000,0.000,0.000,0
2026-01-30 23:08:22,526254,7600.000,4605.000,5059.000,-8503.000,11817.000,-1857.000,0.000,0.000,0
2026-01-30 23:08:22,526294,1818.000,1506.000,7700.000,-6916.000,13903.000,-5403.000,0.000,0.000,0
2026-01-30 23:08:22,526334,-3534.000,842.000,5711.000,6252.000,9937.000,-9514.000,0.000,0.000,0
2026-01-30 23:08:22,526374,-3996.000,2952.000,4403.000,10228.000,-1734.000,-12745.000,0.000,0.000,0
2026-01-30 23:08:22,526414,-2521.000,-701.000,5296.000,8404.000,-7856.000,-11696.000,0.000,0.000,0
2026-01-30 23:08:22,526454,-493.000,-271.000,5226.000,10069.000,-11777.000,-10202.000,0.000,0.000,0
2026-01-30 23:08:22,526494,6159.000,1842.000,8468.000,4250.000,-13025.000,-6909.000,0.000,0.000,0
2026-01-30 23:08:22,526534,5718.000,2357.000,8866.000,-2127.000,-8721.000,-2224.000,0.000,0.000,0
2026-01-30 23:08:22,526574,9720.000,1869.000,11083.000,-5159.000,-6374.000,-742.000,0.000,0.000,0
2026-01-30 23:08:22,526614,5406.000,259.000,5719.000,-3819.000,-3329.000,390.000,0.000,0.000,0
2026-01-30 23:08:22,526654,7867.000,5009.000,6327.000,-3969.000,-4464.000,-183.000,0.000,0.000,0
2026-01-30 23:08:22,526694,11661.000,-3287.000,13262.000,-12877.000,870.000,676.000,0.000,0.000,0
2026-01-30 23:08:22,526734,3082.000,4310.000,9984.000,1480.000,3935.000,-981.000,0.000,0.000,0
2026-01-30 23:08:22,526774,1865.000,1404.000,4981.000,-3385.000,2235.000,-463.000,0.000,0.000,0
2026-01-30 23:08:22,526814,3441.000,1002.000,6526.000,-692.000,1696.000,-818.000,0.000,0.000,0
2026-01-30 23:08:22,526854,2958.000,2025.000,7039.000,-1048.000,940.000,-895.000,0.000,0.000,0
2026-01-30 23:08:22,526894,2417.000,-423.000,3485.000,2671.000,489.000,-1665.000,0.000,0.000,0
2026-01-30 23:08:22,526934,2137.000,4362.000,5114.000,1662.000,137.000,-1308.000,0.000,0.000,0
2026-01-30 23:08:22,526974,1864.000,636.000,5071.000,2837.000,-426.000,-2632.000,0.000,0.000,0
2026-01-30 23:08:22,527014,718.000,6616.000,5661.000,7842.000,-1459.000,-4572.000,0.000,0.000,0
2026-01-30 23:08:22,527054,1214.000,1601.000,4359.000,3051.000,-2684.000,-4050.000,0.000,0.000,0
2026-01-30 23:08:22,527094,1155.000,6197.000,2359.000,10307.000,-4808.000,-6456.000,0.000,0.000,0
2026-01-30 23:08:22,527134,4383.000,4195.000,5361.000,-1778.000,-7890.000,-3941.000,0.000,0.000,0
2026-01-30 23:08:22,527174,6721.000,4275.000,9276.000,-1926.000,-6180.000,-2238.000,0.000,0.000,0
2026-01-30 23:08:23,527214,4793.000,3709.000,9135.000,-4473.000,-3047.000,369.000,0.000,0.000,0
2026-01-30 23:08:23,527254,3979.000,1728.000,5558.000,-5409.000,-2526.000,947.000,0.000,0.000,0
2026-01-30 23:08:23,527294,3463.000,4787.000,5997.000,-3993.000,-3336.000,764.000,0.000,0.000,0
2026-01-30 23:08:23,527334,4145.000,4837.000,6276.000,-6429.000,-4418.000,1832.000,0.000,0.000,0
2026-01-30 23:08:23,527374,4958.000,3293.000,6084.000,-6463.000,-3813.000,1793.000,0.000,0.000,0
2026-01-30 23:08:23,527414,5481.000,1660.000,5744.000,-5118.000,-2884.000,2124.000,0.000,0.000,0
2026-01-30 23:08:23,527454,6399.000,331.000,4898.000,-2189.000,-2600.000,2122.000,0.000,0.000,0
2026-01-30 23:08:23,527494,10180.000,-1506.000,7254.000,2170.000,-1997.000,1801.000,0.000,0.000,0
2026-01-30 23:08:23,527534,12405.000,-226.000,7408.000,5199.000,812.000,2495.000,0.000,0.000,0
2026-01-30 23:08:23,527574,12205.000,-2107.000,5804.000,2486.000,4643.000,4264.000,0.000,0.000,0
2026-01-30 23:08:23,527614,11100.000,-344.000,6368.000,2525.000,7626.000,6060.000,0.000,0.000,0
2026-01-30 23:08:23,527654,10997.000,2246.000,4898.000,276.000,9911.000,8849.000,0.000,0.000,0
2026-01-30 23:08:23,527694,5617.000,-106.000,3902.000,-2509.000,12176.000,11427.000,0.000,0.000,0
2026-01-30 23:08:23,527734,4959.000,3854.000,3305.000,2396.000,9591.000,12285.000,0.000,0.000,0
2026-01-30 23:08:23,527774,2205.000,5098.000,2352.000,-1029.000,8145.000,13785.000,0.000,0.000,0
2026-01-30 23:08:23,527814,-465.000,4421.000,3158.000,-4385.000,5405.000,13958.000,0.000,0.000,0
2026-01-30 23:08:23,527854,-1452.000,4873.000,4178.000,-4488.000,1605.000,13708.000,0.000,0.000,0
2026-01-30 23:08:23,527894,933.000,3887.000,6871.000,2167.000,-1904.000,12718.000,0.000,0.000,0
2026-01-30 23:08:23,527934,1807.000,2857.000,8101.000,5816.000,-2861.000,9085.000,0.000,0.000,0
2026-01-30 23:08:23,527974,1628.000,4078.000,8737.000,7944.000,-4689.000,4448.000,0.000,0.000,0
2026-01-30 23:08:23,528014,2639.000,2920.000,9172.000,5306.000,-5561.000,402.000,0.000,0.000,0
2026-01-30 23:08:23,528057,2858.000,-2613.000,12545.000,10815.000,-2494.000,-578.000,0.000,0.000,0
2026-01-30 23:08:23,528094,3331.000,2746.000,13950.000,12009.000,-1433.000,-907.000,0.000,0.000,0
2026-01-30 23:08:23,528134,2920.000,7507.000,11522.000,-203.000,-705.000,-2935.000,0.000,0.000,0
2026-01-30 23:08:23,528174,3045.000,3594.000,6787.000,-13464.000,-1749.000,-1023.000,0.000,0.000,0
2026-01-30 23:08:24,528214,771.000,2444.000,5126.000,-5393.000,-1227.000,-3640.000,0.000,0.000,0
2026-01-30 23:08:24,528254,4578.000,893.000,6602.000,-2469.000,-2603.000,-2853.000,0.000,0.000,0
2026-01-30 23:08:24,528294,3896.000,957.000,5263.000,-1834.000,-1871.000,-2853.000,0.000,0.000,0
2026-01-30 23:08:24,528334,5177.000,-9645.000,7495.000,-1001.000,-1044.000,-47.000,0.000,0.000,0
2026-01-30 23:08:24,528374,4890.000,-2960.000,2614.000,6819.000,-1170.000,595.000,0.000,0.000,0
2026-01-30 23:08:24,528414,8177.000,1685.000,10089.000,5312.000,-1504.000,-136.000,0.000,0.000,0
2026-01-30 23:08:24,528454,1536.000,-1590.000,7099.000,2738.000,-657.000,970.000,0.000,0.000,0
2026-01-30 23:08:24,528494,4618.000,1019.000,6355.000,1345.000,-2636.000,1284.000,0.000,0.000,0
2026-01-30 23:08:24,528534,6128.000,-2051.000,6577.000,-113.000,-2197.000,1837.000,0.000,0.000,0
2026-01-30 23:08:24,528574,3412.000,2782.000,8647.000,617.000,-1025.000,657.000,0.000,0.000,0
2026-01-30 23:08:24,528614,3922.000,-104.000,6127.000,-70.000,-704.000,1391.000,0.000,0.000,0
2026-01-30 23:08:24,528654,1884.000,408.000,9046.000,-1502.000,320.000,1522.000,0.000,0.000,0
2026-01-30 23:08:24,528694,4072.000,1452.000,7085.000,-670.000,-71.000,1335.000,0.000,0.000,0
