datetime_local,uptime_ms,acc_x,acc_y,acc_z,gyro_x,gyro_y,gyro_z,speed_mps,turn_rate_deg_s,gps_valid
2026-01-30 22:23:19,3133604,208.000,-5943.000,6357.000,-328.000,-38.000,5.000,NA,0.000,0
2026-01-30 22:23:19,3133644,364.000,-5556.000,6206.000,175.000,-89.000,-100.000,NA,0.000,0
2026-01-30 22:23:19,3133684,184.000,-5855.000,5980.000,488.000,82.000,-30.000,NA,0.000,0
2026-01-30 22:23:19,3133724,83.000,-5584.000,6369.000,230.000,164.000,29.000,NA,0.000,0
2026-01-30 22:23:19,3133764,75.000,-5715.000,6203.000,45.000,48.000,-44.000,NA,0.000,0
2026-01-30 22:23:19,3133804,63.000,-5725.000,6248.000,290.000,58.000,-109.000,NA,0.000,0
2026-01-30 22:23:19,3133844,39.000,-5662.000,6361.000,191.000,95.000,-149.000,NA,0.000,0
2026-01-30 22:23:19,3133884,124.000,-5613.000,6122.000,37.000,104.000,-248.000,NA,0.000,0
2026-01-30 22:23:19,3133924,186.000,-5569.000,5868.000,71.000,259.000,-290.000,NA,0.000,0
2026-01-30 22:23:19,3133964,153.000,-5727.000,5708.000,444.000,341.000,-294.000,NA,0.000,0
2026-01-30 22:23:19,3134004,231.000,-5306.000,5456.000,1083.000,341.000,-219.000,NA,0.000,0
2026-01-30 22:23:19,3134044,449.000,-4974.000,5340.000,1518.000,407.000,169.000,NA,0.000,0
2026-01-30 22:23:19,3134084,248.000,-5038.000,5050.000,2217.000,293.000,1336.000,NA,0.000,0
2026-01-30 22:23:19,3134124,-9.000,-4559.000,6375.000,3401.000,48.000,1621.000,NA,0.000,0
2026-01-30 22:23:19,3134164,-347.000,-3843.000,7093.000,3279.000,-155.000,1095.000,NA,0.000,0
2026-01-30 22:23:19,3134204,-798.000,-4684.000,7335.000,2888.000,-715.000,638.000,NA,0.000,0
2026-01-30 22:23:19,3134244,282.000,-4679.000,7665.000,-496.000,-441.000,-620.000,NA,0.000,0
2026-01-30 22:23:20,3134284,212.000,-5873.000,6600.000,343.000,-172.000,-38.000,NA,0.000,0
2026-01-30 22:23:20,3134324,367.000,-5094.000,7076.000,3172.000,-361.000,548.000,NA,0.000,0
2026-01-30 22:23:20,3134364,292.000,-3829.000,6842.000,4355.000,-354.000,779.000,NA,0.000,0
2026-01-30 22:23:20,3134404,832.000,-3123.000,5493.000,4675.000,-285.000,1975.000,NA,0.000,0
2026-01-30 22:23:20,3134444,1085.000,-2864.000,4455.000,5582.000,-447.000,3500.000,NA,0.000,0
2026-01-30 22:23:20,3134484,1408.000,-3225.000,4369.000,6826.000,-973.000,4916.000,NA,0.000,0
2026-01-30 22:23:20,3134524,1385.000,-1985.000,4522.000,9155.000,-1774.000,6564.000,NA,0.000,0
2026-01-30 22:23:20,3134564,1007.000,-1153.000,5963.000,9786.000,-2670.000,8958.000,NA,0.000,0
2026-01-30 22:23:20,3134604,-779.000,1313.000,8265.000,8853.000,-3546.000,10775.000,NA,0.000,0
2026-01-30 22:23:20,3134644,320.000,2069.000,10592.000,6716.000,-4993.000,11261.000,NA,0.000,0
2026-01-30 22:23:20,3134684,581.000,5851.000,12751.000,8918.000,-4307.000,8227.000,NA,0.000,0
2026-01-30 22:23:20,3134724,-28.000,3758.000,10013.000,3556.000,-2725.000,6171.000,NA,0.000,0
2026-01-30 22:23:20,3134764,1694.000,2304.000,7408.000,2865.000,-3599.000,3283.000,NA,0.000,0
2026-01-30 22:23:20,3134804,3010.000,2870.000,7610.000,2027.000,-3729.000,2192.000,NA,0.000,0
2026-01-30 22:23:20,3134844,3431.000,2684.000,8190.000,1406.000,-3617.000,1624.000,NA,0.000,0
2026-01-30 22:23:20,3134884,4403.000,2741.000,8220.000,902.000,-3186.000,789.000,NA,0.000,0
2026-01-30 22:23:20,3134924,4726.000,1823.000,7473.000,-670.000,-2490.000,288.000,NA,0.000,0
2026-01-30 22:23:20,3134964,5132.000,3172.000,7594.000,-1034.000,-2013.000,-624.000,NA,0.000,0
2026-01-30 22:23:20,3135004,4096.000,-637.000,7353.000,-288.000,-1416.000,-1763.000,NA,0.000,0
2026-01-30 22:23:20,3135044,5354.000,3904.000,7579.000,12.000,-810.000,-2435.000,NA,0.000,0
2026-01-30 22:23:20,3135084,1501.000,-2579.000,9494.000,-514.000,-92.000,-1828.000,NA,0.000,0
2026-01-30 22:23:20,3135124,5890.000,4948.000,12811.000,3466.000,-779.000,-1444.000,NA,0.000,0
2026-01-30 22:23:20,3135164,-754.000,-234.000,11318.000,-3050.000,1506.000,-1880.000,NA,0.000,0
2026-01-30 22:23:20,3135204,2072.000,1352.000,11563.000,-6722.000,1910.000,-1513.000,NA,0.000,0
2026-01-30 22:23:20,3135244,-241.000,1969.000,11285.000,-6030.000,2931.000,-1350.000,NA,0.000,0
2026-01-30 22:23:21,3135284,297.000,3202.000,10126.000,-6774.000,2682.000,-1659.000,NA,0.000,0
2026-01-30 22:23:21,3135324,-237.000,3026.000,8667.000,-6289.000,2270.000,-2875.000,NA,0.000,0
2026-01-30 22:23:21,3135369,1476.000,-1493.000,7103.000,-7739.000,926.000,-3140.000,NA,0.000,0
2026-01-30 22:23:21,3135404,2788.000,1854.000,6744.000,-5938.000,601.000,-3370.000,NA,0.000,0
2026-01-30 22:23:21,3135444,3335.000,51.000,5791.000,-5695.000,-650.000,-3199.000,NA,0.000,0
2026-01-30 22:23:21,3135484,1454.000,-2225.000,7566.000,-3001.000,-1502.000,-1881.000,NA,0.000,0
2026-01-30 22:23:21,3135524,5224.000,-1078.000,7430.000,84.000,-1667.000,-1756.000,NA,0.000,0
2026-01-30 22:23:21,3135564,-1227.000,-1683.000,9121.000,2390.000,-3294.000,-1135.000,NA,0.000,0
2026-01-30 22:23:21,3135606,-1469.000,-5413.000,7903.000,738.000,-3382.000,-7.000,NA,0.000,0
2026-01-30 22:23:21,3135644,5882.000,-996.000,10696.000,1228.000,-3926.000,-22.000,NA,0.000,0
2026-01-30 22:23:21,3135684,-1328.000,858.000,5033.000,3533.000,-3178.000,984.000,NA,0.000,0
2026-01-30 22:23:21,3135724,-22.000,-3187.000,9547.000,-1614.000,-4207.000,2877.000,NA,0.000,0
2026-01-30 22:23:21,3135764,-1523.000,-1924.000,4983.000,-177.000,-3864.000,4106.000,NA,0.000,0
2026-01-30 22:23:21,3135804,10175.000,259.000,5603.000,-1748.000,-4398.000,4682.000,NA,0.000,0
2026-01-30 22:23:21,3135844,5915.000,-1268.000,4952.000,-147.000,-3927.000,3607.000,NA,0.000,0
2026-01-30 22:23:21,3135884,7638.000,-5274.000,4742.000,-1819.000,-4098.000,3020.000,NA,0.000,0
2026-01-30 22:23:21,3135924,4938.000,-2025.000,7183.000,-1371.000,-4355.000,2660.000,NA,0.000,0
2026-01-30 22:23:21,3135964,6878.000,-91.000,6983.000,-469.000,-3551.000,3174.000,NA,0.000,0
2026-01-30 22:23:21,3136004,5124.000,79.000,3401.000,774.000,-3045.000,3238.000,NA,0.000,0
2026-01-30 22:23:21,3136044,9558.000,-5216.000,6865.000,-3767.000,-680.000,1725.000,NA,0.000,0
2026-01-30 22:23:21,3136084,4917.000,-2910.000,6296.000,-3602.000,1266.000,-518.000,NA,0.000,0
2026-01-30 22:23:21,3136124,7903.000,472.000,219.000,-2510.000,1432.000,276.000,NA,0.000,0
2026-01-30 22:23:21,3136164,6797.000,-2778.000,2777.000,-2307.000,1199.000,159.000,NA,0.000,0
2026-01-30 22:23:21,3136204,7909.000,-3600.000,3067.000,-1979.000,674.000,-1173.000,NA,0.000,0
2026-01-30 22:23:21,3136244,5622.000,-3474.000,5221.000,-192.000,-252.000,-1182.000,NA,0.000,0
2026-01-30 22:23:22,3136284,6539.000,-7117.000,4724.000,721.000,-842.000,-1027.000,NA,0.000,0
2026-01-30 22:23:22,3136324,3742.000,-2771.000,2933.000,2590.000,-707.000,-1646.000,NA,0.000,0
2026-01-30 22:23:22,3136364,6030.000,-1014.000,3426.000,2689.000,-78.000,-996.000,NA,0.000,0
2026-01-30 22:23:22,3136404,5935.000,-4665.000,8037.000,1413.000,886.000,-1001.000,NA,0.000,0
2026-01-30 22:23:22,3136444,3701.000,-3888.000,10326.000,161.000,857.000,-1118.000,NA,0.000,0
2026-01-30 22:23:22,3136484,7583.000,523.000,5742.000,-475.000,468.000,-194.000,NA,0.000,0
2026-01-30 22:23:22,3136524,7694.000,-2260.000,5545.000,-425.000,2280.000,94.000,NA,0.000,0
2026-01-30 22:23:22,3136564,4508.000,-933.000,9006.000,-818.000,1699.000,-150.000,NA,0.000,0
2026-01-30 22:23:22,3136604,8483.000,-1280.000,6164.000,-1401.000,2912.000,397.000,NA,0.000,0
2026-01-30 22:23:22,3136644,6426.000,-3045.000,7162.000,-750.000,3156.000,566.000,NA,0.000,0
2026-01-30 22:23:22,3136684,6039.000,1778.000,5152.000,5961.000,1916.000,303.000,NA,0.000,0
2026-01-30 22:23:22,3136724,5354.000,-358.000,1762.000,9278.000,1935.000,-409.000,NA,0.000,0
2026-01-30 22:23:22,3136764,5895.000,-4563.000,695.000,2967.000,954.000,101.000,NA,0.000,0
2026-01-30 22:23:22,3136804,4617.000,-2557.000,7664.000,3018.000,1295.000,-2072.000,NA,0.000,0
2026-01-30 22:23:22,3136844,7000.000,-1305.000,6175.000,1491.000,1240.000,-1384.000,NA,0.000,0
2026-01-30 22:23:22,3136884,4838.000,1288.000,7989.000,3818.000,2076.000,-1292.000,NA,0.000,0
2026-01-30 22:23:22,3136924,5064.000,813.000,3052.000,3700.000,3290.000,-1541.000,NA,0.000,0
2026-01-30 22:23:22,3136964,-860.000,-404.000,6724.000,5139.000,3810.000,-1103.000,NA,0.000,0
2026-01-30 22:23:22,3137004,1271.000,-1004.000,6691.000,3875.000,1803.000,-16.000,NA,0.000,0
2026-01-30 22:23:22,3137044,-1240.000,1608.000,10880.000,2147.000,2620.000,-713.000,NA,0.000,0
2026-01-30 22:23:22,3137084,8220.000,-363.000,8435.000,-1033.000,-502.000,571.000,NA,0.000,0
2026-01-30 22:23:22,3137124,1392.000,5339.000,7802.000,2038.000,774.000,-339.000,NA,0.000,0
2026-01-30 22:23:22,3137164,6416.000,1402.000,10443.000,-284.000,1046.000,-767.000,NA,0.000,0
2026-01-30 22:23:22,3137204,3236.000,754.000,11291.000,-1338.000,408.000,-593.000,NA,0.000,0
2026-01-30 22:23:22,3137244,7785.000,4095.000,6616.000,-99.000,-787.000,-509.000,NA,0.000,0
2026-01-30 22:23:23,3137284,2682.000,189.000,7736.000,260.000,-471.000,-371.000,NA,0.000,0
2026-01-30 22:23:23,3137324,5141.000,1519.000,9405.000,-1267.000,-2551.000,-97.000,NA,0.000,0
2026-01-30 22:23:23,3137367,-1152.000,3523.000,10468.000,-286.000,-1981.000,428.000,NA,0.000,0
2026-01-30 22:23:23,3137406,1883.000,5324.000,6611.000,-3265.000,-1568.000,-1354.000,NA,0.000,0
2026-01-30 22:23:23,3137444,365.000,1924.000,7809.000,-1618.000,317.000,-1303.000,NA,0.000,0
2026-01-30 22:23:23,3137484,7841.000,2693.000,10190.000,-2490.000,-842.000,-948.000,NA,0.000,0
2026-01-30 22:23:23,3137524,-8950.000,-188.000,7358.000,-1647.000,1484.000,-1827.000,NA,0.000,0
2026-01-30 22:23:23,3137564,15213.000,-1005.000,4634.000,-8201.000,-3208.000,-661.000,NA,0.000,0
2026-01-30 22:23:23,3137607,-2706.000,-2920.000,3579.000,-1557.000,-1578.000,-72.000,NA,0.000,0
2026-01-30 22:23:23,3137644,12425.000,-2846.000,8210.000,-1897.000,-4882.000,1645.000,NA,0.000,0
2026-01-30 22:23:23,3137684,3095.000,-1729.000,6494.000,-346.000,-627.000,-1524.000,NA,0.000,0
2026-01-30 22:23:23,3137724,5114.000,-2479.000,2935.000,-997.000,-1576.000,-788.000,NA,0.000,0
2026-01-30 22:23:23,3137764,4149.000,-62.000,7040.000,1132.000,-1670.000,-192.000,NA,0.000,0
2026-01-30 22:23:23,3137804,1264.000,-4.000,7365.000,1442.000,-1800.000,-1179.000,NA,0.000,0
2026-01-30 22:23:23,3137844,7204.000,2416.000,6560.000,-240.000,-2603.000,305.000,NA,0.000,0
2026-01-30 22:23:23,3137884,934.000,-219.000,7448.000,386.000,-658.000,198.000,NA,0.000,0
2026-01-30 22:23:23,3137924,7696.000,-859.000,4865.000,-2877.000,-1975.000,865.000,NA,0.000,0
2026-01-30 22:23:23,3137964,5137.000,1965.000,2953.000,278.000,-1094.000,1155.000,NA,0.000,0
2026-01-30 22:23:23,3138004,5751.000,-2948.000,5192.000,-1746.000,-96.000,1675.000,NA,0.000,0
2026-01-30 22:23:23,3138044,4392.000,-415.000,4081.000,-570.000,-644.000,1863.000,NA,0.000,0
2026-01-30 22:23:23,3138084,6440.000,-3207.000,5252.000,-1336.000,-1190.000,1780.000,NA,0.000,0
2026-01-30 22:23:23,3138124,1409.000,-554.000,5370.000,1491.000,-1966.000,1898.000,NA,0.000,0
2026-01-30 22:23:23,3138164,12876.000,-2292.000,4964.000,-826.000,-1706.000,2183.000,NA,0.000,0
2026-01-30 22:23:23,3138204,5906.000,1003.000,9654.000,-62.000,-1150.000,167.000,NA,0.000,0
2026-01-30 22:23:23,3138244,5948.000,-1692.000,7546.000,-924.000,-170.000,634.000,NA,0.000,0
2026-01-30 22:23:24,3138284,-2107.000,-231.000,6723.000,-620.000,70.000,1646.000,NA,0.000,0
2026-01-30 22:23:24,3138324,9021.000,-2557.000,4798.000,-2734.000,-510.000,3117.000,NA,0.000,0
2026-01-30 22:23:24,3138364,5043.000,-127.000,7548.000,148.000,-194.000,1467.000,NA,0.000,0
2026-01-30 22:23:24,3138404,7322.000,-2135.000,5602.000,-2638.000,112.000,1068.000,NA,0.000,0
2026-01-30 22:23:24,3138444,5371.000,650.000,2443.000,-1970.000,273.000,103.000,NA,0.000,0
2026-01-30 22:23:24,3138484,8927.000,-2318.000,2144.000,-1625.000,527.000,-111.000,NA,0.000,0
2026-01-30 22:23:24,3138524,8327.000,-2537.000,2362.000,458.000,1033.000,-745.000,NA,0.000,0
2026-01-30 22:23:24,3138564,5603.000,-925.000,8875.000,-449.000,478.000,-1342.000,NA,0.000,0
2026-01-30 22:23:24,3138604,4440.000,-572.000,903.000,-476.000,195.000,-345.000,NA,0.000,0
2026-01-30 22:23:24,3138644,3338.000,-2895.000,1625.000,3153.000,558.000,167.000,NA,0.000,0
2026-01-30 22:23:24,3138684,2537.000,-1438.000,4786.000,3706.000,-100.000,-711.000,NA,0.000,0
2026-01-30 22:23:24,3138724,2612.000,-4351.000,5210.000,123.000,-711.000,-985.000,NA,0.000,0
2026-01-30 22:23:24,3138764,6292.000,1595.000,9070.000,-999.000,-1302.000,-1624.000,NA,0.000,0
2026-01-30 22:23:24,3138804,5457.000,-2275.000,10361.000,-646.000,585.000,-1724.000,NA,0.000,0
2026-01-30 22:23:24,3138844,5585.000,-2733.000,2610.000,1680.000,507.000,-542.000,NA,0.000,0
2026-01-30 22:23:24,3138884,8965.000,-3892.000,7721.000,-321.000,-602.000,-126.000,NA,0.000,0
2026-01-30 22:23:24,3138924,4963.000,-2706.000,7579.000,1043.000,-3.000,-831.000,NA,0.000,0
2026-01-30 22:23:24,3138964,12050.000,-3224.000,1607.000,1273.000,-866.000,463.000,NA,0.000,0
2026-01-30 22:23:24,3139004,5087.000,1095.000,4227.000,4035.000,-1894.000,-526.000,NA,0.000,0
2026-01-30 22:23:24,3139044,10165.000,-4216.000,3770.000,256.000,-2703.000,-502.000,NA,0.000,0
2026-01-30 22:23:24,3139084,4180.000,-420.000,10598.000,1381.000,-1859.000,-1748.000,NA,0.000,0
2026-01-30 22:23:24,3139124,2189.000,1161.000,2259.000,1913.000,286.000,1048.000,NA,0.000,0
2026-01-30 22:23:24,3139164,4943.000,-5069.000,13671.000,594.000,2356.000,1130.000,NA,0.000,0
2026-01-30 22:23:24,3139204,11792.000,3278.000,6383.000,1234.000,1691.000,480.000,NA,0.000,0
2026-01-30 22:23:24,3139244,3452.000,2925.000,7148.000,1713.000,2237.000,-169.000,NA,0.000,0
2026-01-30 22:23:25,3139284,6578.000,-1721.000,7162.000,-3312.000,1442.000,840.000,NA,0.000,0
2026-01-30 22:23:25,3139324,99.000,2016.000,4440.000,-2560.000,747.000,277.000,NA,0.000,0
2026-01-30 22:23:25,3139364,13111.000,1652.000,-6833.000,-2894.000,-2399.000,1649.000,NA,0.000,0
2026-01-30 22:23:25,3139404,3242.000,-4209.000,12568.000,-952.000,2299.000,-1094.000,NA,0.000,0
2026-01-30 22:23:25,3139444,7857.000,4681.000,-158.000,-1822.000,83.000,-1923.000,NA,0.000,0
2026-01-30 22:23:25,3139484,4938.000,-5323.000,7972.000,-12.000,1605.000,-519.000,NA,0.000,0
2026-01-30 22:23:25,3139524,-282.000,3591.000,-2551.000,4418.000,-621.000,575.000,NA,0.000,0
2026-01-30 22:23:25,3139564,7742.000,-3293.000,-2319.000,-348.000,-1618.000,-33.000,NA,0.000,0
2026-01-30 22:23:25,3139607,899.000,-1432.000,7357.000,1101.000,1191.000,-1939.000,NA,0.000,0
2026-01-30 22:23:25,3139644,2996.000,920.000,6815.000,139.000,1216.000,-828.000,NA,0.000,0
2026-01-30 22:23:25,3139684,7529.000,270.000,4736.000,948.000,402.000,1132.000,NA,0.000,0
2026-01-30 22:23:25,3139724,4570.000,165.000,4160.000,1753.000,2643.000,-745.000,NA,0.000,0
2026-01-30 22:23:25,3139764,-4198.000,3909.000,-2509.000,4587.000,1851.000,632.000,NA,0.000,0
2026-01-30 22:23:25,3139804,8291.000,-3474.000,4580.000,-1313.000,159.000,282.000,NA,0.000,0
2026-01-30 22:23:25,3139844,-152.000,5079.000,3350.000,2419.000,-344.000,884.000,NA,0.000,0
2026-01-30 22:23:25,3139884,2117.000,-7327.000,6039.000,-2228.000,-155.000,-940.000,NA,0.000,0
2026-01-30 22:23:25,3139924,-6155.000,3552.000,9710.000,1987.000,-1621.000,2242.000,NA,0.000,0
2026-01-30 22:23:25,3139964,9431.000,-4059.000,-3953.000,-2806.000,-3481.000,4376.000,NA,0.000,0
2026-01-30 22:23:25,3140004,7304.000,-3180.000,-916.000,-4336.000,917.000,-1059.000,NA,0.000,0
2026-01-30 22:23:25,3140044,1762.000,-505.000,7101.000,-2851.000,2996.000,-1802.000,NA,0.000,0
2026-01-30 22:23:25,3140084,5092.000,-5046.000,3538.000,-1113.000,574.000,1293.000,NA,0.000,0
2026-01-30 22:23:25,3140124,6900.000,-362.000,5430.000,-1796.000,-998.000,364.000,NA,0.000,0
2026-01-30 22:23:25,3140164,-508.000,1195.000,887.000,294.000,-1076.000,253.000,NA,0.000,0
2026-01-30 22:23:25,3140204,6851.000,-5800.000,10315.000,-4670.000,2351.000,-516.000,NA,0.000,0
2026-01-30 22:23:25,3140244,9763.000,10067.000,3180.000,2357.000,-1274.000,1799.000,NA,0.000,0
2026-01-30 22:23:26,3140284,-5176.000,-7370.000,4000.000,-1527.000,598.000,-2242.000,NA,0.000,0
2026-01-30 22:23:26,3140324,4747.000,-4960.000,7856.000,-2660.000,-904.000,1153.000,NA,0.000,0
2026-01-30 22:23:26,3140364,11276.000,4236.000,-3592.000,1284.000,639.000,1638.000,NA,0.000,0
2026-01-30 22:23:26,3140404,4408.000,-5441.000,18264.000,-1354.000,2639.000,-1761.000,NA,0.000,0
2026-01-30 22:23:26,3140444,12367.000,-195.000,10812.000,-296.000,107.000,-551.000,NA,0.000,0
2026-01-30 22:23:26,3140484,-1192.000,2473.000,-2428.000,1754.000,-4042.000,1232.000,NA,0.000,0
2026-01-30 22:23:26,3140524,1799.000,-5525.000,4787.000,-1784.000,17.000,-720.000,NA,0.000,0
2026-01-30 22:23:26,3140564,15701.000,-2760.000,6524.000,-1633.000,184.000,1732.000,NA,0.000,0
2026-01-30 22:23:26,3140604,-4946.000,2432.000,5855.000,3806.000,1288.000,-2820.000,NA,0.000,0
2026-01-30 22:23:26,3140644,9450.000,-5639.000,9788.000,-2165.000,2305.000,371.000,NA,0.000,0
2026-01-30 22:23:26,3140684,4241.000,409.000,5701.000,85.000,564.000,-99.000,NA,0.000,0
2026-01-30 22:23:26,3140724,6203.000,-1884.000,11143.000,401.000,223.000,-1076.000,NA,0.000,0
2026-01-30 22:23:26,3140764,4104.000,-3335.000,9538.000,555.000,-1945.000,120.000,NA,0.000,0
2026-01-30 22:23:26,3140804,6222.000,-1624.000,3320.000,-963.000,-1457.000,-418.000,NA,0.000,0
2026-01-30 22:23:26,3140844,7112.000,-550.000,3949.000,306.000,260.000,-505.000,NA,0.000,0
2026-01-30 22:23:26,3140884,9215.000,-4157.000,3395.000,795.000,971.000,593.000,NA,0.000,0
2026-01-30 22:23:26,3140924,4034.000,-1576.000,8122.000,1085.000,1390.000,-1472.000,NA,0.000,0
2026-01-30 22:23:26,3140964,9244.000,-3087.000,5444.000,845.000,-377.000,276.000,NA,0.000,0
2026-01-30 22:23:26,3141004,5840.000,-989.000,6809.000,1872.000,-1947.000,-283.000,NA,0.000,0
2026-01-30 22:23:26,3141044,5948.000,-67.000,8390.000,1245.000,-3150.000,-770.000,NA,0.000,0
2026-01-30 22:23:26,3141084,7066.000,-2318.000,5156.000,1017.000,-1708.000,-560.000,NA,0.000,0
2026-01-30 22:23:26,3141124,1475.000,-1734.000,3832.000,637.000,2.000,-360.000,NA,0.000,0
2026-01-30 22:23:26,3141164,13379.000,-2516.000,8050.000,1178.000,817.000,751.000,NA,0.000,0
2026-01-30 22:23:26,3141204,5496.000,-2222.000,10713.000,3046.000,1438.000,-262.000,NA,0.000,0
2026-01-30 22:23:26,3141244,11834.000,589.000,6608.000,1215.000,-274.000,654.000,NA,0.000,0
2026-01-30 22:23:27,3141284,3642.000,130.000,8368.000,1102.000,-693.000,-584.000,NA,0.000,0
2026-01-30 22:23:27,3141324,9539.000,-2614.000,6507.000,-1278.000,-1709.000,203.000,NA,0.000,0
2026-01-30 22:23:27,3141364,-164.000,1346.000,3556.000,533.000,-1126.000,-101.000,NA,0.000,0
2026-01-30 22:23:27,3141405,14042.000,-2872.000,7306.000,-1229.000,1472.000,1145.000,NA,0.000,0
2026-01-30 22:23:27,3141444,4596.000,-1231.000,7773.000,923.000,1500.000,137.000,NA,0.000,0
2026-01-30 22:23:27,3141484,560.000,-1241.000,4584.000,-96.000,1761.000,-182.000,NA,0.000,0
2026-01-30 22:23:27,3141524,11301.000,-4093.000,4596.000,-1496.000,916.000,1419.000,NA,0.000,0
2026-01-30 22:23:27,3141564,3252.000,-2808.000,12256.000,-159.000,786.000,-1071.000,NA,0.000,0
2026-01-30 22:23:27,3141607,9258.000,-1018.000,1269.000,-2596.000,-1202.000,1656.000,NA,0.000,0
2026-01-30 22:23:27,3141644,10668.000,-2887.000,9110.000,-3464.000,1190.000,1027.000,NA,0.000,0
2026-01-30 22:23:27,3141684,1284.000,-1275.000,12691.000,704.000,2351.000,-1072.000,NA,0.000,0
2026-01-30 22:23:27,3141724,12536.000,-2240.000,6561.000,-2531.000,-350.000,1795.000,NA,0.000,0
2026-01-30 22:23:27,3141764,3989.000,-705.000,84.000,1227.000,314.000,-316.000,NA,0.000,0
2026-01-30 22:23:27,3141804,1051.000,-5688.000,7282.000,-2827.000,860.000,-2077.000,NA,0.000,0
2026-01-30 22:23:27,3141844,1497.000,1095.000,3688.000,868.000,-1138.000,165.000,NA,0.000,0
2026-01-30 22:23:27,3141884,5823.000,-4137.000,1432.000,-1200.000,-1299.000,285.000,NA,0.000,0
2026-01-30 22:23:27,3141924,6530.000,-1676.000,10683.000,38.000,-258.000,-921.000,NA,0.000,0
2026-01-30 22:23:27,3141964,-5809.000,-504.000,-6000.000,2767.000,-269.000,-80.000,NA,0.000,0
2026-01-30 22:23:27,3142004,-2724.000,-5502.000,1271.000,1353.000,-562.000,-333.000,NA,0.000,0
2026-01-30 22:23:27,3142044,6062.000,-4703.000,11968.000,-2117.000,641.000,-2450.000,NA,0.000,0
2026-01-30 22:23:27,3142084,1883.000,1096.000,3343.000,3421.000,-952.000,555.000,NA,0.000,0
2026-01-30 22:23:27,3142124,16970.000,-4515.000,7269.000,-960.000,858.000,761.000,NA,0.000,0
2026-01-30 22:23:27,3142164,-1964.000,-2001.000,13186.000,777.000,239.000,-1241.000,NA,0.000,0
2026-01-30 22:23:27,3142204,6504.000,-3.000,6116.000,-588.000,-2475.000,1444.000,NA,0.000,0
2026-01-30 22:23:27,3142244,7103.000,-848.000,-6.000,-233.000,-958.000,1624.000,NA,0.000,0
2026-01-30 22:23:28,3142284,4325.000,-5874.000,8383.000,-2306.000,3549.000,152.000,NA,0.000,0
2026-01-30 22:23:28,3142324,3233.000,1931.000,6096.000,-1056.000,1641.000,862.000,NA,0.000,0
2026-01-30 22:23:28,3142364,1507.000,-213.000,9091.000,-2023.000,2625.000,81.000,NA,0.000,0
2026-01-30 22:23:28,3142404,11132.000,-3483.000,5251.000,-3577.000,780.000,782.000,NA,0.000,0
2026-01-30 22:23:28,3142444,5673.000,-1141.000,5420.000,-1755.000,304.000,-1233.000,NA,0.000,0
2026-01-30 22:23:28,3142484,3469.000,-2327.000,8980.000,-2745.000,329.000,-2454.000,NA,0.000,0
2026-01-30 22:23:28,3142524,-3059.000,-731.000,123.000,-1565.000,-193.000,-1450.000,NA,0.000,0
2026-01-30 22:23:28,3142564,10796.000,-3911.000,-9617.000,122.000,899.000,1728.000,NA,0.000,0
2026-01-30 22:23:28,3142604,-1565.000,-5831.000,7275.000,1212.000,1939.000,-1764.000,NA,0.000,0
2026-01-30 22:23:28,3142644,24673.000,-5998.000,3244.000,-1724.000,450.000,-116.000,NA,0.000,0
2026-01-30 22:23:28,3142684,-5682.000,848.000,2956.000,5044.000,-1025.000,-2739.000,NA,0.000,0
2026-01-30 22:23:28,3142724,10861.000,-3702.000,9980.000,-1612.000,-2662.000,97.000,NA,0.000,0
2026-01-30 22:23:28,3142764,4458.000,-1904.000,7216.000,1703.000,-453.000,-39.000,NA,0.000,0
2026-01-30 22:23:28,3142804,6269.000,-4376.000,6255.000,1508.000,-209.000,1054.000,NA,0.000,0
2026-01-30 22:23:28,3142844,1709.000,-1159.000,5863.000,1431.000,-208.000,730.000,NA,0.000,0
2026-01-30 22:23:28,3142884,8421.000,-1431.000,4631.000,-112.000,744.000,513.000,NA,0.000,0
2026-01-30 22:23:28,3142924,6341.000,-3951.000,8917.000,-34.000,1362.000,63.000,NA,0.000,0
2026-01-30 22:23:28,3142964,-3099.000,-770.000,1987.000,455.000,40.000,-690.000,NA,0.000,0
2026-01-30 22:23:28,3143004,12433.000,-7188.000,2594.000,-2241.000,-1502.000,1866.000,NA,0.000,0
2026-01-30 22:23:28,3143044,7222.000,-248.000,7043.000,249.000,-1041.000,-659.000,NA,0.000,0
2026-01-30 22:23:28,3143084,5860.000,-1426.000,7114.000,-166.000,266.000,-1252.000,NA,0.000,0
2026-01-30 22:23:28,3143124,-1244.000,-1232.000,4140.000,18.000,408.000,-67.000,NA,0.000,0
2026-01-30 22:23:28,3143164,-706.000,-2985.000,3914.000,1292.000,965.000,54.000,NA,0.000,0
2026-01-30 22:23:28,3143204,13987.000,-3275.000,5432.000,-982.000,-568.000,1231.000,NA,0.000,0
2026-01-30 22:23:28,3143244,6923.000,-156.000,6081.000,1801.000,-110.000,-689.000,NA,0.000,0
2026-01-30 22:23:29,3143284,1999.000,-1778.000,7558.000,175.000,-1821.000,-674.000,NA,0.000,0
2026-01-30 22:23:29,3143324,7521.000,-3434.000,1039.000,244.000,-2543.000,773.000,NA,0.000,0
2026-01-30 22:23:29,3143364,6994.000,-5130.000,5255.000,1015.000,-580.000,470.000,NA,0.000,0
2026-01-30 22:23:29,3143405,3081.000,-231.000,8055.000,320.000,805.000,-977.000,NA,0.000,0
2026-01-30 22:23:29,3143444,9675.000,-1427.000,7396.000,-244.000,799.000,585.000,NA,0.000,0
2026-01-30 22:23:29,3143484,-223.000,-1007.000,2337.000,-840.000,338.000,187.000,NA,0.000,0
2026-01-30 22:23:29,3143524,45.000,-202.000,673.000,-560.000,1570.000,-102.000,NA,0.000,0
2026-01-30 22:23:29,3143564,8530.000,-4127.000,9621.000,-1605.000,1514.000,235.000,NA,0.000,0
2026-01-30 22:23:29,3143607,3769.000,-3573.000,9130.000,-2214.000,967.000,-364.000,NA,0.000,0
2026-01-30 22:23:29,3143644,347.000,-987.000,1246.000,-214.000,315.000,-82.000,NA,0.000,0
2026-01-30 22:23:29,3143684,7878.000,-27.000,9869.000,-1659.000,1874.000,-860.000,NA,0.000,0
2026-01-30 22:23:29,3143724,4431.000,-1615.000,5845.000,296.000,769.000,104.000,NA,0.000,0
2026-01-30 22:23:29,3143764,7631.000,-4224.000,5697.000,-2108.000,1500.000,-736.000,NA,0.000,0
2026-01-30 22:23:29,3143804,4053.000,-24.000,4070.000,-1304.000,241.000,-707.000,NA,0.000,0
2026-01-30 22:23:29,3143844,2224.000,-2971.000,10346.000,-1969.000,-193.000,-1483.000,NA,0.000,0
2026-01-30 22:23:29,3143884,6014.000,-3262.000,6585.000,-250.000,-502.000,454.000,NA,0.000,0
2026-01-30 22:23:29,3143924,9702.000,-2664.000,5348.000,1407.000,627.000,-75.000,NA,0.000,0
2026-01-30 22:23:29,3143964,-699.000,-1402.000,-454.000,1937.000,867.000,-768.000,NA,0.000,0
2026-01-30 22:23:29,3144004,10583.000,-1968.000,5257.000,-325.000,-1180.000,28.000,NA,0.000,0
2026-01-30 22:23:29,3144044,6625.000,-3052.000,7636.000,2947.000,-754.000,-715.000,NA,0.000,0
2026-01-30 22:23:29,3144084,5702.000,-3514.000,3033.000,1570.000,-1223.000,-899.000,NA,0.000,0
2026-01-30 22:23:29,3144124,6148.000,568.000,5152.000,2384.000,-1572.000,-469.000,NA,0.000,0
2026-01-30 22:23:29,3144164,7505.000,-859.000,10769.000,1628.000,-2050.000,-426.000,NA,0.000,0
2026-01-30 22:23:29,3144204,9277.000,-1880.000,6224.000,1320.000,-708.000,82.000,NA,0.000,0
2026-01-30 22:23:29,3144244,2073.000,-129.000,4935.000,332.000,1454.000,-260.000,NA,0.000,0
2026-01-30 22:23:30,3144284,1001.000,-667.000,1255.000,166.000,410.000,1332.000,NA,0.000,0
2026-01-30 22:23:30,3144324,13753.000,-8800.000,9294.000,-1695.000,2798.000,1508.000,NA,0.000,0
2026-01-30 22:23:30,3144364,2782.000,3164.000,9856.000,2701.000,977.000,-777.000,NA,0.000,0
2026-01-30 22:23:30,3144404,11458.000,-3125.000,6419.000,-197.000,-1297.000,881.000,NA,0.000,0
2026-01-30 22:23:30,3144444,6328.000,-1914.000,5815.000,652.000,-1389.000,141.000,NA,0.000,0
2026-01-30 22:23:30,3144484,2816.000,-1076.000,7643.000,-302.000,-620.000,-944.000,NA,0.000,0
2026-01-30 22:23:30,3144524,2660.000,1607.000,2835.000,641.000,-1233.000,1434.000,NA,0.000,0
2026-01-30 22:23:30,3144564,8893.000,-4628.000,4706.000,-390.000,-921.000,1400.000,NA,0.000,0
2026-01-30 22:23:30,3144604,3854.000,-2921.000,8692.000,317.000,770.000,-698.000,NA,0.000,0
2026-01-30 22:23:30,3144644,790.000,2709.000,4886.000,16.000,547.000,918.000,NA,0.000,0
2026-01-30 22:23:30,3144684,606.000,-141.000,5089.000,1388.000,883.000,-60.000,NA,0.000,0
2026-01-30 22:23:30,3144724,5530.000,-2691.000,7282.000,-1425.000,85.000,752.000,NA,0.000,0
2026-01-30 22:23:30,3144764,5797.000,-772.000,4228.000,401.000,-832.000,1155.000,NA,0.000,0
2026-01-30 22:23:30,3144804,7527.000,-3323.000,4857.000,311.000,-22.000,217.000,NA,0.000,0
2026-01-30 22:23:30,3144844,7289.000,-1806.000,11409.000,-24.000,2701.000,-2135.000,NA,0.000,0
2026-01-30 22:23:30,3144884,-169.000,-85.000,7329.000,1928.000,446.000,-747.000,NA,0.000,0
2026-01-30 22:23:30,3144924,10377.000,-2845.000,6886.000,-1545.000,-947.000,1224.000,NA,0.000,0
2026-01-30 22:23:30,3144964,11502.000,827.000,510.000,2609.000,100.000,1661.000,NA,0.000,0
2026-01-30 22:23:30,3145004,6805.000,-3829.000,8806.000,2342.000,1454.000,-652.000,NA,0.000,0
2026-01-30 22:23:30,3145044,-2331.000,-3082.000,8976.000,648.000,-1195.000,-1429.000,NA,0.000,0
2026-01-30 22:23:30,3145084,5119.000,-5974.000,8474.000,-2881.000,-1118.000,1282.000,NA,0.000,0
2026-01-30 22:23:30,3145124,11715.000,2282.000,-2552.000,236.000,-64.000,2118.000,NA,0.000,0
2026-01-30 22:23:30,3145164,3960.000,-1019.000,4185.000,1847.000,488.000,-83.000,NA,0.000,0
2026-01-30 22:23:30,3145204,1665.000,3110.000,4324.000,2422.000,-422.000,966.000,NA,0.000,0
2026-01-30 22:23:30,3145244,3193.000,-5663.000,11362.000,-3249.000,-140.000,652.000,NA,0.000,0
2026-01-30 22:23:31,3145284,2400.000,5156.000,-2857.000,-953.000,-1417.000,1352.000,NA,0.000,0
2026-01-30 22:23:31,3145324,4158.000,-3112.000,-1075.000,-371.000,-40.000,-243.000,NA,0.000,0
2026-01-30 22:23:31,3145367,13483.000,485.000,6816.000,1059.000,-531.000,-640.000,NA,0.000,0
2026-01-30 22:23:31,3145404,7468.000,-3449.000,12075.000,-62.000,-506.000,-982.000,NA,0.000,0
2026-01-30 22:23:31,3145444,5258.000,-1624.000,4411.000,-368.000,-1414.000,85.000,NA,0.000,0
2026-01-30 22:23:31,3145484,12069.000,-2214.000,3510.000,980.000,114.000,711.000,NA,0.000,0
2026-01-30 22:23:31,3145524,-2305.000,-2090.000,10909.000,4134.000,829.000,-60.000,NA,0.000,0
2026-01-30 22:23:31,3145564,10561.000,-4557.000,6179.000,-1185.000,594.000,1525.000,NA,0.000,0
2026-01-30 22:23:31,3145607,1587.000,2701.000,9247.000,1041.000,10.000,220.000,NA,0.000,0
2026-01-30 22:23:31,3145644,2604.000,-1043.000,6965.000,-1395.000,-207.000,967.000,NA,0.000,0
2026-01-30 22:23:31,3145684,8879.000,-1409.000,6947.000,-1011.000,319.000,1385.000,NA,0.000,0
2026-01-30 22:23:31,3145724,8582.000,1320.000,5987.000,440.000,458.000,298.000,NA,0.000,0
2026-01-30 22:23:31,3145764,1995.000,-1347.000,9033.000,-791.000,1338.000,-1617.000,NA,0.000,0
2026-01-30 22:23:31,3145804,5437.000,-4402.000,4523.000,-4963.000,1139.000,-775.000,NA,0.000,0
2026-01-30 22:23:31,3145844,5387.000,-3762.000,9233.000,-1831.000,1206.000,-476.000,NA,0.000,0
2026-01-30 22:23:31,3145884,23.000,2465.000,1478.000,1238.000,-202.000,-972.000,NA,0.000,0
2026-01-30 22:23:31,3145924,420.000,-13372.000,3962.000,-3069.000,2385.000,-228.000,NA,0.000,0
2026-01-30 22:23:31,3145964,2344.000,3392.000,5142.000,1823.000,-715.000,-31.000,NA,0.000,0
2026-01-30 22:23:31,3146004,7773.000,-1492.000,4057.000,-853.000,91.000,-841.000,NA,0.000,0
2026-01-30 22:23:31,3146044,689.000,-3483.000,4231.000,789.000,574.000,209.000,NA,0.000,0
2026-01-30 22:23:31,3146084,9268.000,44.000,-1222.000,-121.000,-2228.000,2016.000,NA,0.000,0
2026-01-30 22:23:31,3146124,5442.000,-1905.000,5931.000,2837.000,-293.000,-1383.000,NA,0.000,0
2026-01-30 22:23:31,3146164,8495.000,-4632.000,10135.000,638.000,678.000,-1359.000,NA,0.000,0
2026-01-30 22:23:31,3146204,-583.000,1178.000,3074.000,-510.000,-965.000,62.000,NA,0.000,0
2026-01-30 22:23:31,3146244,2860.000,-2164.000,2882.000,-1545.000,-1050.000,1123.000,NA,0.000,0
2026-01-30 22:23:32,3146284,3040.000,-3328.000,11999.000,239.000,-77.000,1111.000,NA,0.000,0
2026-01-30 22:23:32,3146324,8096.000,-153.000,3456.000,1095.000,779.000,1194.000,NA,0.000,0
2026-01-30 22:23:32,3146364,2070.000,-1205.000,9614.000,316.000,810.000,-521.000,NA,0.000,0
2026-01-30 22:23:32,3146404,5490.000,-1724.000,7147.000,-1805.000,805.000,813.000,NA,0.000,0
2026-01-30 22:23:32,3146444,5091.000,-2950.000,6907.000,-1907.000,256.000,568.000,NA,0.000,0
2026-01-30 22:23:32,3146484,17174.000,-4409.000,9329.000,-3418.000,2264.000,90.000,NA,0.000,0
2026-01-30 22:23:32,3146524,-1297.000,258.000,10419.000,577.000,704.000,-1827.000,NA,0.000,0
2026-01-30 22:23:32,3146564,13072.000,-2579.000,7278.000,-3797.000,-666.000,263.000,NA,0.000,0
2026-01-30 22:23:32,3146604,-7262.000,1654.000,3.000,213.000,200.000,-419.000,NA,0.000,0
2026-01-30 22:23:32,3146644,7616.000,-1422.000,-25.000,-2997.000,1292.000,1222.000,NA,0.000,0
2026-01-30 22:23:32,3146684,695.000,-3386.000,7986.000,-392.000,2687.000,-476.000,NA,0.000,0
2026-01-30 22:23:32,3146724,6168.000,-6664.000,4772.000,-2048.000,2653.000,759.000,NA,0.000,0
2026-01-30 22:23:32,3146764,-1108.000,7.000,6105.000,3121.000,911.000,430.000,NA,0.000,0
2026-01-30 22:23:32,3146804,10852.000,-8543.000,3550.000,-2724.000,-358.000,310.000,NA,0.000,0
2026-01-30 22:23:32,3146844,6744.000,1898.000,3568.000,1438.000,-215.000,-3172.000,NA,0.000,0
2026-01-30 22:23:32,3146884,-7590.000,-1172.000,-1601.000,1025.000,-5188.000,-1827.000,NA,0.000,0
2026-01-30 22:23:32,3146924,6087.000,-8296.000,914.000,-1824.000,-1720.000,-425.000,NA,0.000,0
2026-01-30 22:23:32,3146964,9414.000,-2848.000,5500.000,637.000,-220.000,492.000,NA,0.000,0
2026-01-30 22:23:32,3147004,-1264.000,-2639.000,10864.000,2395.000,240.000,-363.000,NA,0.000,0
2026-01-30 22:23:32,3147044,12294.000,-3540.000,9017.000,-75.000,830.000,2256.000,NA,0.000,0
2026-01-30 22:23:32,3147084,1089.000,1320.000,8373.000,1958.000,-706.000,451.000,NA,0.000,0
2026-01-30 22:23:32,3147124,4055.000,309.000,5983.000,-1394.000,-1055.000,307.000,NA,0.000,0
2026-01-30 22:23:32,3147164,4746.000,-632.000,-1174.000,-2737.000,-905.000,-58.000,NA,0.000,0
2026-01-30 22:23:32,3147204,6166.000,-4261.000,4674.000,-2051.000,2262.000,-839.000,NA,0.000,0
2026-01-30 22:23:32,3147244,-4692.000,1947.000,1811.000,-18.000,493.000,-840.000,NA,0.000,0
2026-01-30 22:23:33,3147284,19777.000,438.000,9531.000,-662.000,808.000,125.000,NA,0.000,0
2026-01-30 22:23:33,3147324,-2133.000,2363.000,6710.000,1851.000,-662.000,-1385.000,NA,0.000,0
2026-01-30 22:23:33,3147367,-858.000,-817.000,3133.000,166.000,-2245.000,-474.000,NA,0.000,0
2026-01-30 22:23:33,3147406,5304.000,-3941.000,7825.000,-624.000,609.000,-766.000,NA,0.000,0
2026-01-30 22:23:33,3147444,724.000,-1006.000,-1126.000,2618.000,499.000,-1124.000,NA,0.000,0
2026-01-30 22:23:33,3147484,5156.000,-3571.000,6070.000,1194.000,2219.000,-596.000,NA,0.000,0
2026-01-30 22:23:33,3147524,1382.000,-3712.000,6083.000,2255.000,-144.000,583.000,NA,0.000,0
2026-01-30 22:23:33,3147564,11904.000,-9973.000,11827.000,-981.000,1291.000,1330.000,NA,0.000,0
2026-01-30 22:23:33,3147607,7441.000,-4221.000,10359.000,-1787.000,317.000,1010.000,NA,0.000,0
2026-01-30 22:23:33,3147645,-248.000,2703.000,3775.000,1667.000,-958.000,-1224.000,NA,0.000,0
2026-01-30 22:23:33,3147684,11863.000,-173.000,11716.000,-862.000,-779.000,597.000,NA,0.000,0
2026-01-30 22:23:33,3147724,-1397.000,1986.000,2604.000,306.000,888.000,-1217.000,NA,0.000,0
2026-01-30 22:23:33,3147764,3702.000,-932.000,5894.000,483.000,-168.000,680.000,NA,0.000,0
2026-01-30 22:23:33,3147804,11364.000,-5590.000,6083.000,-68.000,151.000,832.000,NA,0.000,0
2026-01-30 22:23:33,3147844,6456.000,1529.000,5726.000,235.000,2347.000,-633.000,NA,0.000,0
2026-01-30 22:23:33,3147884,5827.000,-195.000,5921.000,-807.000,-537.000,-477.000,NA,0.000,0
2026-01-30 22:23:33,3147924,9530.000,-2112.000,8254.000,625.000,-296.000,701.000,NA,0.000,0
2026-01-30 22:23:33,3147964,3765.000,-2504.000,5539.000,823.000,-679.000,-645.000,NA,0.000,0
2026-01-30 22:23:33,3148004,533.000,-1700.000,2627.000,878.000,-661.000,-273.000,NA,0.000,0
2026-01-30 22:23:33,3148044,7533.000,-3263.000,9387.000,-193.000,1487.000,435.000,NA,0.000,0
2026-01-30 22:23:33,3148084,8006.000,-3725.000,10546.000,994.000,1213.000,662.000,NA,0.000,0
2026-01-30 22:23:33,3148124,9034.000,-4054.000,8143.000,147.000,1509.000,1075.000,NA,0.000,0
2026-01-30 22:23:33,3148164,-614.000,626.000,289.000,1439.000,571.000,282.000,NA,0.000,0
2026-01-30 22:23:33,3148204,7226.000,-2437.000,9955.000,-922.000,414.000,418.000,NA,0.000,0
2026-01-30 22:23:33,3148244,7932.000,794.000,7105.000,-834.000,-3271.000,517.000,NA,0.000,0
2026-01-30 22:23:34,3148284,807.000,3115.000,2621.000,-387.000,-738.000,-725.000,NA,0.000,0
2026-01-30 22:23:34,3148324,806.000,-1655.000,3285.000,-338.000,157.000,-58.000,NA,0.000,0
2026-01-30 22:23:34,3148364,5657.000,-3299.000,626.000,778.000,75.000,549.000,NA,0.000,0
2026-01-30 22:23:34,3148404,3194.000,-2718.000,5486.000,96.000,2755.000,-1324.000,NA,0.000,0
2026-01-30 22:23:34,3148444,9872.000,-4338.000,8096.000,145.000,-1377.000,877.000,NA,0.000,0
2026-01-30 22:23:34,3148484,8684.000,-815.000,9905.000,1105.000,-3017.000,267.000,NA,0.000,0
2026-01-30 22:23:34,3148524,7395.000,-126.000,9366.000,340.000,-772.000,-297.000,NA,0.000,0
2026-01-30 22:23:34,3148564,8738.000,-173.000,5645.000,-1345.000,489.000,-462.000,NA,0.000,0
2026-01-30 22:23:34,3148604,2197.000,-1460.000,3788.000,-8.000,813.000,-554.000,NA,0.000,0
2026-01-30 22:23:34,3148644,4438.000,-1602.000,5976.000,376.000,-24.000,5.000,NA,0.000,0
2026-01-30 22:23:34,3148684,149.000,-1156.000,6515.000,1821.000,-230.000,68.000,NA,0.000,0
2026-01-30 22:23:34,3148724,15688.000,-6639.000,11384.000,-1158.000,-141.000,2082.000,NA,0.000,0
2026-01-30 22:23:34,3148764,8173.000,-2773.000,7642.000,1084.000,-411.000,-80.000,NA,0.000,0
2026-01-30 22:23:34,3148804,3181.000,2568.000,4513.000,277.000,294.000,-640.000,NA,0.000,0
2026-01-30 22:23:34,3148844,-2853.000,4793.000,4766.000,-2134.000,2976.000,-983.000,NA,0.000,0
2026-01-30 22:23:34,3148884,9987.000,-3093.000,9986.000,-3568.000,-609.000,1380.000,NA,0.000,0
2026-01-30 22:23:34,3148924,-1094.000,527.000,-845.000,-441.000,-773.000,-814.000,NA,0.000,0
2026-01-30 22:23:34,3148964,3329.000,-471.000,3848.000,-1613.000,133.000,-1040.000,NA,0.000,0
2026-01-30 22:23:34,3149004,6066.000,-1596.000,1289.000,1664.000,-3081.000,-579.000,NA,0.000,0
2026-01-30 22:23:34,3149044,3858.000,-4304.000,6485.000,2205.000,1616.000,-1788.000,NA,0.000,0
2026-01-30 22:23:34,3149084,5256.000,-2614.000,8108.000,706.000,1773.000,185.000,NA,0.000,0
2026-01-30 22:23:34,3149124,3691.000,-1557.000,5593.000,-236.000,142.000,1010.000,NA,0.000,0
2026-01-30 22:23:34,3149164,11985.000,-5456.000,6071.000,66.000,-217.000,1596.000,NA,0.000,0
2026-01-30 22:23:34,3149204,4222.000,987.000,10601.000,1744.000,2.000,-1484.000,NA,0.000,0
2026-01-30 22:23:34,3149244,5251.000,1585.000,7275.000,-871.000,-1961.000,-384.000,NA,0.000,0
2026-01-30 22:23:35,3149284,9865.000,-959.000,7497.000,-12.000,-1630.000,742.000,NA,0.000,0
2026-01-30 22:23:35,3149324,5954.000,-2876.000,6575.000,1893.000,-1360.000,709.000,NA,0.000,0
2026-01-30 22:23:35,3149364,5377.000,-2478.000,7576.000,-393.000,2909.000,416.000,NA,0.000,0
2026-01-30 22:23:35,3149405,2285.000,3701.000,-2466.000,487.000,86.000,-97.000,NA,0.000,0
2026-01-30 22:23:35,3149444,5260.000,-6306.000,10074.000,-50.000,1809.000,1063.000,NA,0.000,0
2026-01-30 22:23:35,3149484,16009.000,-4150.000,8729.000,-1179.000,-3553.000,1015.000,NA,0.000,0
2026-01-30 22:23:35,3149524,3163.000,5363.000,3632.000,355.000,745.000,-2319.000,NA,0.000,0
2026-01-30 22:23:35,3149564,6781.000,-1111.000,3014.000,-1692.000,-480.000,433.000,NA,0.000,0
2026-01-30 22:23:35,3149604,7151.000,-6062.000,5332.000,442.000,557.000,53.000,NA,0.000,0
2026-01-30 22:23:35,3149644,-5328.000,1729.000,-5511.000,294.000,1913.000,-832.000,NA,0.000,0
2026-01-30 22:23:35,3149684,8410.000,-3374.000,6397.000,-518.000,241.000,-316.000,NA,0.000,0
2026-01-30 22:23:35,3149724,3299.000,-2366.000,6266.000,250.000,2062.000,-1056.000,NA,0.000,0
2026-01-30 22:23:35,3149764,12814.000,-3247.000,8072.000,98.000,-2751.000,627.000,NA,0.000,0
2026-01-30 22:23:35,3149804,6203.000,-3568.000,4824.000,2904.000,1008.000,-488.000,NA,0.000,0
2026-01-30 22:23:35,3149844,-1559.000,-529.000,-2363.000,3097.000,-353.000,-943.000,NA,0.000,0
2026-01-30 22:23:35,3149884,2533.000,-6982.000,9682.000,1138.000,1766.000,801.000,NA,0.000,0
2026-01-30 22:23:35,3149924,12500.000,-3042.000,12582.000,-781.000,-2192.000,1118.000,NA,0.000,0
2026-01-30 22:23:35,3149964,5544.000,3885.000,9284.000,1930.000,-167.000,494.000,NA,0.000,0
2026-01-30 22:23:35,3150004,-2136.000,-2456.000,8129.000,-895.000,2839.000,-551.000,NA,0.000,0
2026-01-30 22:23:35,3150044,12077.000,373.000,6990.000,-2028.000,-2647.000,250.000,NA,0.000,0
2026-01-30 22:23:35,3150084,5624.000,1230.000,8076.000,813.000,1483.000,-288.000,NA,0.000,0
2026-01-30 22:23:35,3150124,-4047.000,-1202.000,-1253.000,-895.000,2067.000,-1289.000,NA,0.000,0
2026-01-30 22:23:35,3150164,226.000,-4971.000,3479.000,-2902.000,406.000,580.000,NA,0.000,0
2026-01-30 22:23:35,3150204,9112.000,-7489.000,11474.000,-2771.000,725.000,1128.000,NA,0.000,0
2026-01-30 22:23:35,3150244,4344.000,981.000,6340.000,87.000,-679.000,-155.000,NA,0.000,0
2026-01-30 22:23:36,3150284,6591.000,-3870.000,6570.000,-1722.000,378.000,-125.000,NA,0.000,0
2026-01-30 22:23:36,3150324,-448.000,4625.000,4879.000,621.000,-162.000,-830.000,NA,0.000,0
2026-01-30 22:23:36,3150364,-9376.000,5776.000,1750.000,-7130.000,1385.000,-4855.000,NA,0.000,0
2026-01-30 22:23:36,3150404,24623.000,-8777.000,16770.000,-7303.000,-7560.000,1091.000,NA,0.000,0
2026-01-30 22:23:36,3150444,-21786.000,11476.000,-6232.000,9022.000,3596.000,-4133.000,NA,0.000,0
2026-01-30 22:23:36,3150484,13594.000,-16318.000,12415.000,-8201.000,2720.000,962.000,NA,0.000,0
2026-01-30 22:23:36,3150524,-5742.000,3298.000,483.000,5026.000,-732.000,651.000,NA,0.000,0
2026-01-30 22:23:36,3150564,6786.000,-9445.000,1307.000,-2977.000,2471.000,283.000,NA,0.000,0
2026-01-30 22:23:36,3150604,10003.000,-1070.000,7895.000,-45.000,152.000,-632.000,NA,0.000,0
2026-01-30 22:23:36,3150644,8115.000,1529.000,6861.000,3101.000,-1072.000,-221.000,NA,0.000,0
2026-01-30 22:23:36,3150684,-78.000,-3624.000,5443.000,3123.000,358.000,-646.000,NA,0.000,0
2026-01-30 22:23:36,3150724,9473.000,-5623.000,5031.000,-1554.000,1016.000,-779.000,NA,0.000,0
2026-01-30 22:23:36,3150764,5749.000,-5320.000,7735.000,373.000,-884.000,-23.000,NA,0.000,0
2026-01-30 22:23:36,3150804,6633.000,-1722.000,5773.000,2234.000,-779.000,542.000,NA,0.000,0
2026-01-30 22:23:36,3150844,2690.000,-291.000,3867.000,652.000,-411.000,-1041.000,NA,0.000,0
2026-01-30 22:23:36,3150884,5319.000,-446.000,7170.000,21.000,-469.000,-693.000,NA,0.000,0
2026-01-30 22:23:36,3150924,9664.000,86.000,6616.000,200.000,-1107.000,-341.000,NA,0.000,0
2026-01-30 22:23:36,3150964,6139.000,-1038.000,7699.000,1648.000,178.000,-1153.000,NA,0.000,0
2026-01-30 22:23:36,3151004,2317.000,-2545.000,8593.000,943.000,291.000,-734.000,NA,0.000,0
2026-01-30 22:23:36,3151044,2748.000,-349.000,3162.000,1240.000,19.000,1013.000,NA,0.000,0
2026-01-30 22:23:36,3151084,9581.000,-795.000,6172.000,-219.000,264.000,104.000,NA,0.000,0
2026-01-30 22:23:36,3151124,3053.000,4922.000,5664.000,967.000,1921.000,-704.000,NA,0.000,0
2026-01-30 22:23:36,3151164,361.000,-1250.000,7931.000,-92.000,2883.000,-658.000,NA,0.000,0
2026-01-30 22:23:36,3151204,9487.000,-2872.000,9683.000,-2012.000,1702.000,648.000,NA,0.000,0
2026-01-30 22:23:36,3151244,4910.000,-1814.000,10394.000,883.000,714.000,404.000,NA,0.000,0
2026-01-30 22:23:37,3151284,2729.000,-2883.000,7888.000,289.000,-442.000,1931.000,NA,0.000,0
2026-01-30 22:23:37,3151324,11482.000,760.000,5656.000,-719.000,-2074.000,2401.000,NA,0.000,0
2026-01-30 22:23:37,3151367,-405.000,2046.000,8428.000,1811.000,-1404.000,-239.000,NA,0.000,0
2026-01-30 22:23:37,3151406,9319.000,-1607.000,1967.000,-1983.000,-2291.000,1619.000,NA,0.000,0
2026-01-30 22:23:37,3151444,8442.000,-7538.000,5852.000,-1796.000,-1806.000,1224.000,NA,0.000,0
2026-01-30 22:23:37,3151484,13244.000,4867.000,7770.000,1508.000,-2238.000,688.000,NA,0.000,0
2026-01-30 22:23:37,3151524,10357.000,6390.000,9606.000,5089.000,-2367.000,879.000,NA,0.000,0
2026-01-30 22:23:37,3151564,3024.000,-2337.000,8814.000,-403.000,35.000,-1857.000,NA,0.000,0
2026-01-30 22:23:37,3151607,3031.000,-4687.000,8716.000,-2040.000,797.000,-1229.000,NA,0.000,0
2026-01-30 22:23:37,3151644,801.000,2305.000,8993.000,1443.000,1519.000,-1507.000,NA,0.000,0
2026-01-30 22:23:37,3151684,11803.000,-702.000,2710.000,-2037.000,1113.000,435.000,NA,0.000,0
2026-01-30 22:23:37,3151724,2213.000,-5825.000,9311.000,1119.000,2987.000,-1543.000,NA,0.000,0
2026-01-30 22:23:37,3151764,6781.000,8810.000,3201.000,3728.000,411.000,854.000,NA,0.000,0
2026-01-30 22:23:37,3151804,4635.000,-1885.000,5222.000,785.000,1349.000,200.000,NA,0.000,0
2026-01-30 22:23:37,3151844,2529.000,-1876.000,4684.000,701.000,-301.000,369.000,NA,0.000,0
2026-01-30 22:23:37,3151884,6191.000,3130.000,5762.000,310.000,-376.000,577.000,NA,0.000,0
2026-01-30 22:23:37,3151924,-1107.000,-5855.000,6254.000,434.000,506.000,-182.000,NA,0.000,0
2026-01-30 22:23:37,3151964,6970.000,-623.000,7826.000,-638.000,-1618.000,1312.000,NA,0.000,0
2026-01-30 22:23:37,3152004,4097.000,1946.000,7434.000,1520.000,-1193.000,633.000,NA,0.000,0
2026-01-30 22:23:37,3152044,1747.000,-937.000,2863.000,-2125.000,-160.000,167.000,NA,0.000,0
2026-01-30 22:23:37,3152084,1316.000,-2531.000,9065.000,-3215.000,200.000,-364.000,NA,0.000,0
2026-01-30 22:23:37,3152124,3121.000,3278.000,6283.000,-76.000,-775.000,1335.000,NA,0.000,0
2026-01-30 22:23:37,3152164,6986.000,327.000,5966.000,-1634.000,-1324.000,1398.000,NA,0.000,0
2026-01-30 22:23:37,3152204,7170.000,-5249.000,7735.000,-2768.000,1111.000,1011.000,NA,0.000,0
2026-01-30 22:23:37,3152244,-3441.000,2011.000,4944.000,4052.000,1423.000,540.000,NA,0.000,0
2026-01-30 22:23:38,3152284,4291.000,-1922.000,8010.000,-237.000,558.000,-327.000,NA,0.000,0
2026-01-30 22:23:38,3152324,-1871.000,-1224.000,3589.000,899.000,-677.000,242.000,NA,0.000,0
2026-01-30 22:23:38,3152364,10168.000,-2782.000,6345.000,-1415.000,-1245.000,845.000,NA,0.000,0
2026-01-30 22:23:38,3152404,3241.000,-4182.000,5524.000,577.000,147.000,-53.000,NA,0.000,0
2026-01-30 22:23:38,3152444,13018.000,-386.000,9018.000,-62.000,-306.000,-237.000,NA,0.000,0
2026-01-30 22:23:38,3152484,-591.000,-740.000,7417.000,2336.000,-1222.000,-496.000,NA,0.000,0
2026-01-30 22:23:38,3152524,12242.000,-3846.000,4217.000,-3056.000,-742.000,1216.000,NA,0.000,0
2026-01-30 22:23:38,3152564,3564.000,1825.000,7489.000,2858.000,-328.000,-294.000,NA,0.000,0
2026-01-30 22:23:38,3152604,8954.000,126.000,7086.000,-549.000,-134.000,364.000,NA,0.000,0
2026-01-30 22:23:38,3152644,1529.000,1070.000,7946.000,-142.000,-133.000,-474.000,NA,0.000,0
2026-01-30 22:23:38,3152684,10621.000,-1218.000,7842.000,-1245.000,-871.000,1169.000,NA,0.000,0
2026-01-30 22:23:38,3152724,6375.000,104.000,8483.000,571.000,-106.000,362.000,NA,0.000,0
2026-01-30 22:23:38,3152764,9317.000,-979.000,4495.000,-1923.000,531.000,47.000,NA,0.000,0
2026-01-30 22:23:38,3152804,-74.000,-1312.000,4326.000,-542.000,331.000,-1422.000,NA,0.000,0
2026-01-30 22:23:38,3152844,700.000,-6583.000,4510.000,-4206.000,139.000,105.000,NA,0.000,0
2026-01-30 22:23:38,3152884,7088.000,4881.000,2068.000,-703.000,-1331.000,1156.000,NA,0.000,0
2026-01-30 22:23:38,3152924,1507.000,-2940.000,4365.000,820.000,728.000,-1044.000,NA,0.000,0
2026-01-30 22:23:38,3152964,1691.000,-3593.000,5625.000,-141.000,177.000,418.000,NA,0.000,0
2026-01-30 22:23:38,3153004,11193.000,-4370.000,5933.000,-464.000,211.000,826.000,NA,0.000,0
2026-01-30 22:23:38,3153044,2992.000,130.000,4860.000,-196.000,-900.000,-22.000,NA,0.000,0
2026-01-30 22:23:38,3153084,8057.000,-2268.000,3276.000,40.000,-456.000,665.000,NA,0.000,0
2026-01-30 22:23:38,3153124,512.000,-5812.000,9228.000,1460.000,1263.000,-782.000,NA,0.000,0
2026-01-30 22:23:38,3153164,17300.000,2937.000,2525.000,85.000,-1094.000,2128.000,NA,0.000,0
2026-01-30 22:23:38,3153204,-5059.000,830.000,3020.000,3848.000,-645.000,-2727.000,NA,0.000,0
2026-01-30 22:23:38,3153244,3962.000,-4700.000,2307.000,-5775.000,-1055.000,647.000,NA,0.000,0
2026-01-30 22:23:39,3153284,6831.000,903.000,6177.000,-392.000,-820.000,-620.000,NA,0.000,0
2026-01-30 22:23:39,3153324,5263.000,-760.000,6386.000,-187.000,876.000,-614.000,NA,0.000,0
2026-01-30 22:23:39,3153369,6174.000,2403.000,6161.000,331.000,1090.000,42.000,NA,0.000,0
2026-01-30 22:23:39,3153404,3691.000,634.000,9905.000,-953.000,1175.000,562.000,NA,0.000,0
2026-01-30 22:23:39,3153444,21636.000,-79.000,7137.000,-3572.000,43.000,774.000,NA,0.000,0
2026-01-30 22:23:39,3153484,-4719.000,-437.000,8045.000,2640.000,1608.000,-3373.000,NA,0.000,0
2026-01-30 22:23:39,3153524,9123.000,-3736.000,6030.000,-4857.000,-1113.000,446.000,NA,0.000,0
2026-01-30 22:23:39,3153564,7237.000,799.000,6708.000,115.000,103.000,-473.000,NA,0.000,0
2026-01-30 22:23:39,3153607,5729.000,144.000,4680.000,-73.000,341.000,-177.000,NA,0.000,0
2026-01-30 22:23:39,3153644,10105.000,-3184.000,4568.000,-2220.000,558.000,176.000,NA,0.000,0
2026-01-30 22:23:39,3153684,1470.000,790.000,4134.000,1180.000,862.000,-952.000,NA,0.000,0
2026-01-30 22:23:39,3153724,8564.000,-945.000,5526.000,-1517.000,-241.000,-830.000,NA,0.000,0
2026-01-30 22:23:39,3153764,4048.000,-1452.000,8906.000,819.000,163.000,-1654.000,NA,0.000,0
2026-01-30 22:23:39,3153804,7780.000,-3094.000,8131.000,174.000,1018.000,-1592.000,NA,0.000,0
2026-01-30 22:23:39,3153844,6378.000,302.000,7496.000,2121.000,-94.000,-429.000,NA,0.000,0
2026-01-30 22:23:39,3153884,91.000,-4696.000,8367.000,920.000,-72.000,-876.000,NA,0.000,0
2026-01-30 22:23:39,3153924,3429.000,-379.000,2427.000,471.000,-1795.000,767.000,NA,0.000,0
2026-01-30 22:23:39,3153964,7007.000,774.000,3581.000,644.000,-50.000,-146.000,NA,0.000,0
2026-01-30 22:23:39,3154004,4248.000,-2148.000,8492.000,636.000,62.000,-446.000,NA,0.000,0
2026-01-30 22:23:39,3154044,6845.000,-1481.000,7082.000,336.000,-586.000,895.000,NA,0.000,0
2026-01-30 22:23:39,3154084,1907.000,-2483.000,5455.000,1081.000,451.000,156.000,NA,0.000,0
2026-01-30 22:23:39,3154124,7341.000,-42.000,6025.000,470.000,-618.000,1448.000,NA,0.000,0
2026-01-30 22:23:39,3154164,13410.000,-1132.000,2963.000,1177.000,-1760.000,1468.000,NA,0.000,0
2026-01-30 22:23:39,3154204,3840.000,956.000,5212.000,1910.000,-1800.000,-429.000,NA,0.000,0
2026-01-30 22:23:39,3154244,7889.000,-645.000,9365.000,-1294.000,-2178.000,447.000,NA,0.000,0
2026-01-30 22:23:40,3154284,3383.000,-2219.000,4422.000,-531.000,-1103.000,320.000,NA,0.000,0
2026-01-30 22:23:40,3154324,5458.000,-1344.000,2484.000,-234.000,191.000,924.000,NA,0.000,0
2026-01-30 22:23:40,3154364,7125.000,-1733.000,4948.000,771.000,1346.000,560.000,NA,0.000,0
2026-01-30 22:23:40,3154404,8316.000,-827.000,8987.000,419.000,205.000,200.000,NA,0.000,0
2026-01-30 22:23:40,3154444,6770.000,-1998.000,5182.000,-239.000,-321.000,-285.000,NA,0.000,0
2026-01-30 22:23:40,3154484,1222.000,-813.000,2954.000,362.000,-860.000,-38.000,NA,0.000,0
2026-01-30 22:23:40,3154524,7993.000,-1184.000,5034.000,-2075.000,-1006.000,282.000,NA,0.000,0
2026-01-30 22:23:40,3154564,7847.000,-1119.000,2574.000,58.000,918.000,209.000,NA,0.000,0
2026-01-30 22:23:40,3154604,3674.000,-2348.000,10735.000,479.000,1026.000,-912.000,NA,0.000,0
2026-01-30 22:23:40,3154644,5739.000,-1902.000,8794.000,-1010.000,-404.000,478.000,NA,0.000,0
2026-01-30 22:23:40,3154684,6892.000,-2042.000,3864.000,-694.000,-159.000,333.000,NA,0.000,0
2026-01-30 22:23:40,3154724,6811.000,-713.000,5621.000,469.000,510.000,192.000,NA,0.000,0
2026-01-30 22:23:40,3154764,9042.000,-341.000,1428.000,-1067.000,-114.000,841.000,NA,0.000,0
2026-01-30 22:23:40,3154804,810.000,-2929.000,10772.000,1124.000,935.000,-2208.000,NA,0.000,0
2026-01-30 22:23:40,3154844,5875.000,-2654.000,6116.000,-1549.000,-375.000,289.000,NA,0.000,0
2026-01-30 22:23:40,3154884,3171.000,-968.000,5585.000,-891.000,155.000,-111.000,NA,0.000,0
2026-01-30 22:23:40,3154924,9752.000,-1450.000,2120.000,-1931.000,97.000,423.000,NA,0.000,0
2026-01-30 22:23:40,3154964,2845.000,-124.000,6277.000,-465.000,550.000,-1172.000,NA,0.000,0
2026-01-30 22:23:40,3155004,11885.000,-1835.000,2846.000,-2015.000,-892.000,185.000,NA,0.000,0
2026-01-30 22:23:40,3155044,685.000,-2076.000,5345.000,964.000,624.000,-1420.000,NA,0.000,0
2026-01-30 22:23:40,3155084,2363.000,-1378.000,-1195.000,-408.000,11.000,344.000,NA,0.000,0
2026-01-30 22:23:40,3155124,8449.000,-1402.000,3372.000,878.000,-156.000,386.000,NA,0.000,0
2026-01-30 22:23:40,3155164,7604.000,-1677.000,10903.000,1146.000,-231.000,-1142.000,NA,0.000,0
2026-01-30 22:23:40,3155204,2434.000,-2369.000,6567.000,424.000,-1194.000,-1317.000,NA,0.000,0
2026-01-30 22:23:40,3155244,7285.000,-1774.000,3972.000,-5.000,-1028.000,145.000,NA,0.000,0
2026-01-30 22:23:41,3155284,10117.000,-2281.000,4996.000,486.000,528.000,-32.000,NA,0.000,0
2026-01-30 22:23:41,3155324,6348.000,433.000,5092.000,46.000,1773.000,153.000,NA,0.000,0
2026-01-30 22:23:41,3155364,859.000,-891.000,8933.000,-194.000,763.000,8.000,NA,0.000,0
2026-01-30 22:23:41,3155405,6686.000,1244.000,6234.000,-1240.000,-877.000,1279.000,NA,0.000,0
2026-01-30 22:23:41,3155444,2517.000,-1212.000,6486.000,-870.000,909.000,-190.000,NA,0.000,0
2026-01-30 22:23:41,3155484,3607.000,-785.000,1399.000,-2838.000,1163.000,-110.000,NA,0.000,0
2026-01-30 22:23:41,3155524,9209.000,-4364.000,7565.000,-1777.000,2694.000,-441.000,NA,0.000,0
2026-01-30 22:23:41,3155564,3893.000,-1837.000,9415.000,708.000,781.000,-374.000,NA,0.000,0
2026-01-30 22:23:41,3155607,13777.000,-2633.000,4315.000,-1612.000,-893.000,840.000,NA,0.000,0
2026-01-30 22:23:41,3155644,2920.000,-3203.000,6713.000,891.000,-386.000,-1205.000,NA,0.000,0
2026-01-30 22:23:41,3155684,6627.000,-1345.000,5069.000,-720.000,-2043.000,-1084.000,NA,0.000,0
2026-01-30 22:23:41,3155724,-2422.000,-4455.000,10133.000,520.000,-386.000,-2249.000,NA,0.000,0
2026-01-30 22:23:41,3155764,18701.000,2697.000,-1141.000,-598.000,-2268.000,764.000,NA,0.000,0
2026-01-30 22:23:41,3155804,-8902.000,719.000,547.000,3283.000,1996.000,-2901.000,NA,0.000,0
2026-01-30 22:23:41,3155844,10894.000,-4756.000,4709.000,-3479.000,1771.000,1027.000,NA,0.000,0
2026-01-30 22:23:41,3155884,4517.000,-495.000,10293.000,2262.000,1449.000,-466.000,NA,0.000,0
2026-01-30 22:23:41,3155924,12384.000,378.000,6208.000,-948.000,-1809.000,435.000,NA,0.000,0
2026-01-30 22:23:41,3155964,-157.000,-289.000,6119.000,-471.000,-950.000,-1793.000,NA,0.000,0
2026-01-30 22:23:41,3156004,2535.000,-631.000,2241.000,-2104.000,-881.000,-32.000,NA,0.000,0
2026-01-30 22:23:41,3156044,13617.000,-5845.000,6063.000,-1443.000,3009.000,129.000,NA,0.000,0
2026-01-30 22:23:41,3156084,11675.000,-5975.000,7357.000,-2298.000,2150.000,2933.000,NA,0.000,0
2026-01-30 22:23:41,3156124,3748.000,-1213.000,6669.000,1027.000,459.000,724.000,NA,0.000,0
2026-01-30 22:23:41,3156164,9735.000,993.000,6561.000,-909.000,-1088.000,234.000,NA,0.000,0
2026-01-30 22:23:41,3156204,8113.000,-1494.000,5511.000,-1486.000,220.000,-1609.000,NA,0.000,0
2026-01-30 22:23:41,3156244,-2749.000,114.000,3705.000,-179.000,-394.000,-1353.000,NA,0.000,0
2026-01-30 22:23:42,3156284,12209.000,-4669.000,2675.000,-2317.000,89.000,224.000,NA,0.000,0
2026-01-30 22:23:42,3156324,2187.000,-6711.000,11413.000,1278.000,2094.000,-1304.000,NA,0.000,0
2026-01-30 22:23:42,3156364,15805.000,3123.000,2138.000,1254.000,-865.000,1457.000,NA,0.000,0
2026-01-30 22:23:42,3156404,-2033.000,-159.000,10087.000,4250.000,575.000,-3595.000,NA,0.000,0
2026-01-30 22:23:42,3156444,6263.000,-3100.000,7287.000,-1043.000,-1433.000,-160.000,NA,0.000,0
2026-01-30 22:23:42,3156484,7187.000,547.000,2151.000,708.000,-1730.000,219.000,NA,0.000,0
2026-01-30 22:23:42,3156524,-1803.000,-5668.000,3501.000,483.000,1890.000,-2027.000,NA,0.000,0
2026-01-30 22:23:42,3156564,7290.000,-1414.000,6707.000,1105.000,-163.000,1608.000,NA,0.000,0
2026-01-30 22:23:42,3156604,5321.000,-2230.000,9144.000,1240.000,168.000,543.000,NA,0.000,0
2026-01-30 22:23:42,3156644,10605.000,491.000,5922.000,-611.000,-175.000,-14.000,NA,0.000,0
2026-01-30 22:23:42,3156684,889.000,-5568.000,13234.000,338.000,387.000,-1373.000,NA,0.000,0
2026-01-30 22:23:42,3156724,10325.000,-647.000,6928.000,-742.000,-1642.000,669.000,NA,0.000,0
2026-01-30 22:23:42,3156764,-224.000,-739.000,5358.000,2425.000,-664.000,-17.000,NA,0.000,0
2026-01-30 22:23:42,3156804,14601.000,-375.000,4491.000,-3637.000,-1425.000,359.000,NA,0.000,0
2026-01-30 22:23:42,3156844,62.000,-1564.000,4403.000,888.000,663.000,56.000,NA,0.000,0
2026-01-30 22:23:42,3156884,10346.000,5470.000,4136.000,284.000,-667.000,1078.000,NA,0.000,0
2026-01-30 22:23:42,3156924,1215.000,-7386.000,9076.000,250.000,1241.000,-496.000,NA,0.000,0
2026-01-30 22:23:42,3156964,7856.000,-3911.000,7965.000,-3601.000,-101.000,140.000,NA,0.000,0
2026-01-30 22:23:42,3157004,9186.000,655.000,6015.000,-1841.000,203.000,-1145.000,NA,0.000,0
2026-01-30 22:23:42,3157044,2280.000,-403.000,9620.000,268.000,-592.000,-1950.000,NA,0.000,0
2026-01-30 22:23:42,3157084,7339.000,-1860.000,3089.000,-2705.000,-823.000,-1568.000,NA,0.000,0
2026-01-30 22:23:42,3157124,-3353.000,-5621.000,11199.000,88.000,751.000,-930.000,NA,0.000,0
2026-01-30 22:23:42,3157164,18878.000,-3226.000,4407.000,-3783.000,698.000,-1527.000,NA,0.000,0
2026-01-30 22:23:42,3157204,5622.000,8368.000,9852.000,7418.000,1373.000,-2633.000,NA,0.000,0
2026-01-30 22:23:42,3157244,12630.000,3589.000,-270.000,1303.000,410.000,89.000,NA,0.000,0
2026-01-30 22:23:43,3157284,5968.000,2369.000,6173.000,5149.000,415.000,-776.000,NA,0.000,0
2026-01-30 22:23:43,3157324,6086.000,-5715.000,8454.000,-2740.000,-876.000,-189.000,NA,0.000,0
2026-01-30 22:23:43,3157364,5627.000,-2176.000,7262.000,-119.000,-1703.000,-780.000,NA,0.000,0
2026-01-30 22:23:43,3157405,3039.000,4113.000,3657.000,2516.000,-1679.000,66.000,NA,0.000,0
2026-01-30 22:23:43,3157444,4113.000,-9148.000,8183.000,-2345.000,-562.000,-500.000,NA,0.000,0
2026-01-30 22:23:43,3157484,6386.000,-1195.000,6632.000,582.000,221.000,-862.000,NA,0.000,0
2026-01-30 22:23:43,3157524,3034.000,3546.000,7114.000,3950.000,658.000,620.000,NA,0.000,0
2026-01-30 22:23:43,3157564,8863.000,-5474.000,8425.000,-1163.000,-630.000,156.000,NA,0.000,0
2026-01-30 22:23:43,3157607,7398.000,9450.000,4887.000,1188.000,791.000,-375.000,NA,0.000,0
2026-01-30 22:23:43,3157644,6738.000,-4649.000,4458.000,-5849.000,-589.000,-268.000,NA,0.000,0
2026-01-30 22:23:43,3157684,4048.000,4914.000,6437.000,-2775.000,75.000,-679.000,NA,0.000,0
2026-01-30 22:23:43,3157724,4461.000,-5394.000,12115.000,-5340.000,-468.000,-932.000,NA,0.000,0
2026-01-30 22:23:43,3157764,-1241.000,4619.000,-1627.000,-5314.000,1140.000,2352.000,NA,0.000,0
2026-01-30 22:23:43,3157804,14745.000,-6851.000,-282.000,-3883.000,-1543.000,748.000,NA,0.000,0
2026-01-30 22:23:43,3157844,-9398.000,-8123.000,2448.000,2329.000,268.000,205.000,NA,0.000,0
2026-01-30 22:23:43,3157884,18077.000,-11764.000,6662.000,-487.000,1034.000,2760.000,NA,0.000,0
2026-01-30 22:23:43,3157924,9913.000,7494.000,4451.000,8158.000,-1809.000,1812.000,NA,0.000,0
2026-01-30 22:23:43,3157964,-3619.000,-8750.000,4596.000,-1075.000,-893.000,-2736.000,NA,0.000,0
2026-01-30 22:23:43,3158004,21351.000,-9812.000,6810.000,-3503.000,464.000,904.000,NA,0.000,0
2026-01-30 22:23:43,3158044,2821.000,2072.000,5690.000,2827.000,341.000,-839.000,NA,0.000,0
2026-01-30 22:23:43,3158084,4949.000,-7671.000,12298.000,-424.000,1947.000,-1097.000,NA,0.000,0
2026-01-30 22:23:43,3158124,2180.000,-1218.000,7353.000,2877.000,1083.000,1266.000,NA,0.000,0
2026-01-30 22:23:43,3158164,10208.000,-4444.000,4171.000,347.000,1337.000,1663.000,NA,0.000,0
2026-01-30 22:23:43,3158204,1691.000,892.000,2622.000,3858.000,-22.000,2406.000,NA,0.000,0
2026-01-30 22:23:43,3158244,9079.000,-9942.000,3649.000,-1714.000,-140.000,694.000,NA,0.000,0
2026-01-30 22:23:44,3158284,6021.000,1029.000,4506.000,1335.000,-946.000,5.000,NA,0.000,0
2026-01-30 22:23:44,3158324,1994.000,-4981.000,9181.000,917.000,-654.000,-3150.000,NA,0.000,0
2026-01-30 22:23:44,3158364,7849.000,-3373.000,4655.000,-67.000,429.000,744.000,NA,0.000,0
2026-01-30 22:23:44,3158404,3985.000,-2116.000,4542.000,1438.000,1036.000,1913.000,NA,0.000,0
2026-01-30 22:23:44,3158444,-3985.000,-1796.000,4776.000,847.000,171.000,1054.000,NA,0.000,0
2026-01-30 22:23:44,3158484,16497.000,-9656.000,7080.000,-3401.000,2217.000,2302.000,NA,0.000,0
2026-01-30 22:23:44,3158524,2822.000,5597.000,11244.000,3015.000,-977.000,587.000,NA,0.000,0
2026-01-30 22:23:44,3158564,6800.000,-234.000,5805.000,-1218.000,-912.000,-203.000,NA,0.000,0
2026-01-30 22:23:44,3158604,6472.000,-2095.000,5030.000,-1836.000,1729.000,284.000,NA,0.000,0
2026-01-30 22:23:44,3158644,5725.000,-166.000,6732.000,-620.000,1905.000,-494.000,NA,0.000,0
2026-01-30 22:23:44,3158684,10025.000,1135.000,7186.000,1522.000,833.000,945.000,NA,0.000,0
2026-01-30 22:23:44,3158724,8818.000,-1649.000,6795.000,1180.000,617.000,402.000,NA,0.000,0
2026-01-30 22:23:44,3158764,6554.000,-2188.000,3857.000,-1132.000,-2293.000,-458.000,NA,0.000,0
2026-01-30 22:23:44,3158804,6567.000,-3225.000,3563.000,-662.000,-1206.000,-767.000,NA,0.000,0
2026-01-30 22:23:44,3158844,192.000,-7127.000,12153.000,-681.000,-991.000,-1624.000,NA,0.000,0
2026-01-30 22:23:44,3158884,16183.000,790.000,2677.000,1737.000,2.000,928.000,NA,0.000,0
2026-01-30 22:23:44,3158924,4599.000,-933.000,6136.000,3652.000,434.000,1095.000,NA,0.000,0
2026-01-30 22:23:44,3158964,8562.000,-2104.000,7551.000,-283.000,64.000,1116.000,NA,0.000,0
2026-01-30 22:23:44,3159004,4444.000,-1749.000,7425.000,10.000,257.000,-186.000,NA,0.000,0
2026-01-30 22:23:44,3159044,6985.000,-335.000,7381.000,293.000,-1100.000,577.000,NA,0.000,0
2026-01-30 22:23:44,3159084,1280.000,2310.000,6375.000,1076.000,-1778.000,-138.000,NA,0.000,0
2026-01-30 22:23:44,3159124,3244.000,-2268.000,4889.000,-2043.000,1184.000,-1200.000,NA,0.000,0
2026-01-30 22:23:44,3159164,3219.000,-1966.000,8671.000,-705.000,-641.000,73.000,NA,0.000,0
2026-01-30 22:23:44,3159204,5890.000,-1154.000,7128.000,-593.000,-301.000,903.000,NA,0.000,0
2026-01-30 22:23:44,3159244,8968.000,-5541.000,3498.000,-637.000,2095.000,815.000,NA,0.000,0
2026-01-30 22:23:45,3159284,-1470.000,-2528.000,5679.000,1002.000,-51.000,-67.000,NA,0.000,0
2026-01-30 22:23:45,3159324,14688.000,-5046.000,4475.000,-2852.000,-608.000,1092.000,NA,0.000,0
2026-01-30 22:23:45,3159364,3883.000,-1299.000,8382.000,30.000,204.000,-2148.000,NA,0.000,0
2026-01-30 22:23:45,3159404,5727.000,762.000,6190.000,1060.000,-2711.000,547.000,NA,0.000,0
2026-01-30 22:23:45,3159444,11377.000,-1474.000,4633.000,-272.000,69.000,408.000,NA,0.000,0
2026-01-30 22:23:45,3159484,4758.000,-2188.000,6681.000,782.000,521.000,-255.000,NA,0.000,0
2026-01-30 22:23:45,3159524,449.000,-779.000,3264.000,-2080.000,-148.000,-504.000,NA,0.000,0
2026-01-30 22:23:45,3159564,3253.000,-5617.000,7257.000,-3734.000,-685.000,1033.000,NA,0.000,0
2026-01-30 22:23:45,3159607,4002.000,-432.000,6882.000,-2742.000,1466.000,375.000,NA,0.000,0
2026-01-30 22:23:45,3159644,3146.000,-83.000,6710.000,-2369.000,1417.000,477.000,NA,0.000,0
2026-01-30 22:23:45,3159684,9454.000,-3341.000,5143.000,-4604.000,1320.000,-77.000,NA,0.000,0
2026-01-30 22:23:45,3159724,7183.000,-2467.000,5023.000,-3533.000,809.000,-831.000,NA,0.000,0
2026-01-30 22:23:45,3159764,10228.000,-2560.000,2061.000,-3089.000,-283.000,-1628.000,NA,0.000,0
2026-01-30 22:23:45,3159804,6776.000,-7499.000,-3870.000,-1609.000,2439.000,-1734.000,NA,0.000,0
2026-01-30 22:23:45,3159844,7277.000,-3920.000,3614.000,-274.000,-1152.000,-2048.000,NA,0.000,0
2026-01-30 22:23:45,3159884,4771.000,-2721.000,1413.000,481.000,-306.000,-1932.000,NA,0.000,0
2026-01-30 22:23:45,3159924,7535.000,-4705.000,2065.000,2636.000,-593.000,-807.000,NA,0.000,0
2026-01-30 22:23:45,3159964,362.000,-4529.000,5718.000,4229.000,-300.000,-1196.000,NA,0.000,0
2026-01-30 22:23:45,3160004,5633.000,-3362.000,8065.000,4743.000,-1763.000,219.000,NA,0.000,0
2026-01-30 22:23:45,3160044,8883.000,-6048.000,2089.000,4681.000,-130.000,-160.000,NA,0.000,0
2026-01-30 22:23:45,3160084,6840.000,-565.000,8106.000,4904.000,-536.000,-1193.000,NA,0.000,0
2026-01-30 22:23:45,3160124,2277.000,-792.000,6020.000,3297.000,-1909.000,130.000,NA,0.000,0
2026-01-30 22:23:45,3160164,7692.000,-3282.000,9676.000,2922.000,-2339.000,472.000,NA,0.000,0
2026-01-30 22:23:45,3160204,9252.000,-3143.000,6177.000,2384.000,-210.000,98.000,NA,0.000,0
2026-01-30 22:23:45,3160244,1414.000,-2923.000,8350.000,2238.000,638.000,-685.000,NA,0.000,0
2026-01-30 22:23:46,3160284,12680.000,-8170.000,4630.000,-1970.000,56.000,1602.000,NA,0.000,0
2026-01-30 22:23:46,3160324,7263.000,-703.000,6166.000,5959.000,-258.000,-1061.000,NA,0.000,0
2026-01-30 22:23:46,3160364,5946.000,-1629.000,8106.000,2266.000,-1360.000,-1045.000,NA,0.000,0
2026-01-30 22:23:46,3160404,4331.000,2100.000,2932.000,3673.000,-829.000,242.000,NA,0.000,0
2026-01-30 22:23:46,3160444,8693.000,-4058.000,5884.000,837.000,86.000,645.000,NA,0.000,0
2026-01-30 22:23:46,3160484,6680.000,1274.000,6017.000,4382.000,-47.000,-787.000,NA,0.000,0
2026-01-30 22:23:46,3160524,3292.000,727.000,3604.000,3246.000,490.000,535.000,NA,0.000,0
2026-01-30 22:23:46,3160564,9877.000,-1958.000,5308.000,1435.000,-122.000,526.000,NA,0.000,0
2026-01-30 22:23:46,3160604,2879.000,176.000,6421.000,3837.000,218.000,-223.000,NA,0.000,0
2026-01-30 22:23:46,3160644,4390.000,639.000,5878.000,1558.000,-802.000,552.000,NA,0.000,0
2026-01-30 22:23:46,3160684,11308.000,-1285.000,4794.000,892.000,-277.000,1050.000,NA,0.000,0
2026-01-30 22:23:46,3160724,7685.000,-1665.000,8995.000,2824.000,1752.000,-1201.000,NA,0.000,0
2026-01-30 22:23:46,3160764,1452.000,2231.000,5562.000,4020.000,2073.000,-725.000,NA,0.000,0
2026-01-30 22:23:46,3160804,9857.000,-2236.000,4354.000,-383.000,1418.000,1218.000,NA,0.000,0
2026-01-30 22:23:46,3160844,3811.000,383.000,2830.000,3291.000,2183.000,-493.000,NA,0.000,0
2026-01-30 22:23:46,3160884,8975.000,1264.000,9409.000,1705.000,257.000,-472.000,NA,0.000,0
2026-01-30 22:23:46,3160924,525.000,4075.000,7663.000,3055.000,699.000,-192.000,NA,0.000,0
2026-01-30 22:23:46,3160964,9920.000,-1541.000,5762.000,-1937.000,-690.000,635.000,NA,0.000,0
2026-01-30 22:23:46,3161004,5662.000,1365.000,3377.000,2254.000,1177.000,-171.000,NA,0.000,0
2026-01-30 22:23:46,3161044,9223.000,2823.000,8361.000,2595.000,-1279.000,785.000,NA,0.000,0
2026-01-30 22:23:46,3161084,6546.000,405.000,4925.000,2571.000,-1480.000,-570.000,NA,0.000,0
2026-01-30 22:23:46,3161124,5311.000,-3185.000,2251.000,1408.000,-944.000,3243.000,NA,0.000,0
2026-01-30 22:23:46,3161164,5221.000,867.000,5396.000,1483.000,-1761.000,2132.000,NA,0.000,0
2026-01-30 22:23:46,3161204,9632.000,1468.000,6321.000,1730.000,-1341.000,2932.000,NA,0.000,0
2026-01-30 22:23:46,3161244,7485.000,-806.000,6617.000,2789.000,197.000,3053.000,NA,0.000,0
2026-01-30 22:23:47,3161284,7493.000,92.000,558.000,1703.000,-196.000,4064.000,NA,0.000,0
2026-01-30 22:23:47,3161324,6981.000,-4091.000,8514.000,1339.000,615.000,3762.000,NA,0.000,0
2026-01-30 22:23:47,3161367,10610.000,3223.000,3892.000,323.000,598.000,3746.000,NA,0.000,0
2026-01-30 22:23:47,3161406,3925.000,-1189.000,8232.000,805.000,418.000,3500.000,NA,0.000,0
2026-01-30 22:23:47,3161444,5395.000,2796.000,8105.000,-200.000,-79.000,2826.000,NA,0.000,0
2026-01-30 22:23:47,3161484,5166.000,3761.000,3043.000,14.000,477.000,3178.000,NA,0.000,0
2026-01-30 22:23:47,3161524,6340.000,-851.000,8393.000,-2648.000,947.000,1499.000,NA,0.000,0
2026-01-30 22:23:47,3161564,1950.000,841.000,4275.000,-543.000,1031.000,2562.000,NA,0.000,0
2026-01-30 22:23:47,3161608,11954.000,-2964.000,7326.000,-2641.000,1291.000,2088.000,NA,0.000,0
2026-01-30 22:23:47,3161644,9508.000,-971.000,-2708.000,-1918.000,2188.000,986.000,NA,0.000,0
2026-01-30 22:23:47,3161688,7799.000,481.000,5517.000,-1049.000,-776.000,1111.000,NA,0.000,0
2026-01-30 22:23:47,3161724,8286.000,-2032.000,10384.000,-3505.000,-936.000,538.000,NA,0.000,0
2026-01-30 22:23:47,3161764,365.000,-3456.000,11149.000,-2468.000,-1071.000,1078.000,NA,0.000,0
2026-01-30 22:23:47,3161804,7059.000,2720.000,3323.000,-3913.000,-160.000,1022.000,NA,0.000,0
2026-01-30 22:23:47,3161844,9183.000,1247.000,1017.000,-3677.000,1553.000,924.000,NA,0.000,0
2026-01-30 22:23:47,3161884,7955.000,-996.000,1994.000,-3812.000,2636.000,99.000,NA,0.000,0
2026-01-30 22:23:47,3161924,8157.000,-3492.000,6655.000,-2883.000,1473.000,78.000,NA,0.000,0
2026-01-30 22:23:47,3161964,11339.000,186.000,276.000,-2546.000,103.000,-1404.000,NA,0.000,0
2026-01-30 22:23:47,3162004,7760.000,-2589.000,2557.000,-680.000,-280.000,-865.000,NA,0.000,0
2026-01-30 22:23:47,3162044,7398.000,-3389.000,4714.000,-832.000,-658.000,-898.000,NA,0.000,0
2026-01-30 22:23:47,3162084,6250.000,-521.000,6614.000,615.000,-133.000,-1828.000,NA,0.000,0
2026-01-30 22:23:47,3162124,4439.000,-1602.000,7269.000,1391.000,-103.000,-381.000,NA,0.000,0
2026-01-30 22:23:47,3162164,6468.000,-2739.000,3775.000,-427.000,-163.000,205.000,NA,0.000,0
2026-01-30 22:23:47,3162204,3771.000,-2970.000,5660.000,1330.000,1939.000,-459.000,NA,0.000,0
2026-01-30 22:23:47,3162244,5663.000,-1852.000,5515.000,1989.000,1797.000,-749.000,NA,0.000,0
2026-01-30 22:23:48,3162284,6221.000,-2577.000,7761.000,291.000,1497.000,-912.000,NA,0.000,0
2026-01-30 22:23:48,3162324,7163.000,-1747.000,6646.000,991.000,2164.000,-851.000,NA,0.000,0
2026-01-30 22:23:48,3162364,2227.000,-1913.000,5578.000,2299.000,2326.000,-1903.000,NA,0.000,0
2026-01-30 22:23:48,3162404,6539.000,-670.000,4103.000,162.000,1979.000,-370.000,NA,0.000,0
2026-01-30 22:23:48,3162444,234.000,-2373.000,9053.000,1630.000,2617.000,-695.000,NA,0.000,0
2026-01-30 22:23:48,3162484,6564.000,-445.000,6256.000,-318.000,411.000,582.000,NA,0.000,0
2026-01-30 22:23:48,3162524,7215.000,-719.000,9257.000,-1516.000,1091.000,-1025.000,NA,0.000,0
2026-01-30 22:23:48,3162564,2667.000,244.000,5466.000,375.000,1059.000,-329.000,NA,0.000,0
2026-01-30 22:23:48,3162604,3255.000,963.000,7629.000,-1276.000,-99.000,-324.000,NA,0.000,0
2026-01-30 22:23:48,3162644,3409.000,-2120.000,6584.000,-2731.000,390.000,-1160.000,NA,0.000,0
2026-01-30 22:23:48,3162684,5327.000,-130.000,8092.000,-2298.000,-119.000,-242.000,NA,0.000,0
2026-01-30 22:23:48,3162724,5505.000,939.000,5089.000,-1800.000,336.000,-690.000,NA,0.000,0
2026-01-30 22:23:48,3162764,8031.000,-2890.000,6387.000,-4177.000,2159.000,-1955.000,NA,0.000,0
2026-01-30 22:23:48,3162804,-910.000,-813.000,7025.000,639.000,2010.000,-2267.000,NA,0.000,0
2026-01-30 22:23:48,3162844,8863.000,-2155.000,5760.000,-1509.000,-680.000,-447.000,NA,0.000,0
2026-01-30 22:23:48,3162884,3009.000,-728.000,8953.000,-964.000,1251.000,-2109.000,NA,0.000,0
2026-01-30 22:23:48,3162924,9008.000,-1357.000,5088.000,42.000,-490.000,-250.000,NA,0.000,0
2026-01-30 22:23:48,3162964,3681.000,-2763.000,5794.000,-152.000,361.000,-715.000,NA,0.000,0
2026-01-30 22:23:48,3163004,4768.000,-2447.000,9615.000,-396.000,-470.000,-1434.000,NA,0.000,0
2026-01-30 22:23:48,3163044,3168.000,-2271.000,5545.000,-303.000,-563.000,-930.000,NA,0.000,0
2026-01-30 22:23:48,3163084,3439.000,-729.000,6284.000,-1099.000,-108.000,-1872.000,NA,0.000,0
2026-01-30 22:23:48,3163124,4005.000,-925.000,7047.000,-579.000,-33.000,-1099.000,NA,0.000,0
2026-01-30 22:23:48,3163164,5949.000,-619.000,7122.000,-46.000,-428.000,-337.000,NA,0.000,0
2026-01-30 22:23:48,3163204,4127.000,-1862.000,4289.000,-401.000,-276.000,6.000,NA,0.000,0
2026-01-30 22:23:48,3163244,4811.000,-1704.000,1819.000,-698.000,-90.000,-33.000,NA,0.000,0
2026-01-30 22:23:49,3163284,7533.000,-2105.000,2937.000,-926.000,869.000,-954.000,NA,0.000,0
2026-01-30 22:23:49,3163324,6089.000,-1773.000,6117.000,500.000,-1210.000,-1775.000,NA,0.000,0
2026-01-30 22:23:49,3163367,4292.000,-984.000,5097.000,996.000,-3047.000,-1412.000,NA,0.000,0
2026-01-30 22:23:49,3163406,1430.000,-2740.000,6032.000,703.000,-2352.000,-259.000,NA,0.000,0
2026-01-30 22:23:49,3163444,5790.000,-1984.000,4331.000,518.000,-1812.000,860.000,NA,0.000,0
2026-01-30 22:23:49,3163484,4331.000,-1153.000,7124.000,1566.000,-691.000,765.000,NA,0.000,0
2026-01-30 22:23:49,3163524,8054.000,-775.000,8424.000,-1020.000,687.000,621.000,NA,0.000,0
2026-01-30 22:23:49,3163564,-1464.000,-1157.000,6118.000,1318.000,412.000,251.000,NA,0.000,0
2026-01-30 22:23:49,3163604,13199.000,-3129.000,7612.000,-5430.000,454.000,844.000,NA,0.000,0
2026-01-30 22:23:49,3163644,3856.000,14.000,8924.000,-1810.000,-390.000,-756.000,NA,0.000,0
2026-01-30 22:23:49,3163684,6252.000,-2209.000,4837.000,-4279.000,-269.000,-1287.000,NA,0.000,0
2026-01-30 22:23:49,3163724,3958.000,-2833.000,8163.000,-1988.000,1289.000,-390.000,NA,0.000,0
2026-01-30 22:23:49,3163764,6338.000,-3165.000,3846.000,-502.000,1621.000,-613.000,NA,0.000,0
2026-01-30 22:23:49,3163804,6342.000,-2373.000,3048.000,1191.000,813.000,-220.000,NA,0.000,0
2026-01-30 22:23:49,3163844,4849.000,-2333.000,1987.000,823.000,-345.000,-67.000,NA,0.000,0
2026-01-30 22:23:49,3163884,9062.000,-3511.000,4312.000,-503.000,-567.000,-742.000,NA,0.000,0
2026-01-30 22:23:49,3163924,8695.000,-916.000,4614.000,686.000,-808.000,-1949.000,NA,0.000,0
2026-01-30 22:23:49,3163964,8833.000,611.000,5091.000,669.000,-1595.000,-1669.000,NA,0.000,0
2026-01-30 22:23:49,3164004,2098.000,-1609.000,2151.000,1235.000,-1532.000,-805.000,NA,0.000,0
2026-01-30 22:23:49,3164044,2759.000,-3349.000,7806.000,2409.000,-63.000,-267.000,NA,0.000,0
2026-01-30 22:23:49,3164084,8341.000,-3090.000,4056.000,1508.000,1050.000,43.000,NA,0.000,0
2026-01-30 22:23:49,3164124,1620.000,-3200.000,5247.000,3583.000,636.000,-748.000,NA,0.000,0
2026-01-30 22:23:49,3164164,9045.000,-1733.000,5806.000,1990.000,-1394.000,696.000,NA,0.000,0
2026-01-30 22:23:49,3164204,8368.000,-1443.000,7067.000,2334.000,-1455.000,-862.000,NA,0.000,0
2026-01-30 22:23:49,3164244,3117.000,-872.000,8304.000,2184.000,-1478.000,-1438.000,NA,0.000,0
2026-01-30 22:23:50,3164284,3628.000,-1374.000,4444.000,581.000,-588.000,-90.000,NA,0.000,0
2026-01-30 22:23:50,3164324,2754.000,-1950.000,5433.000,561.000,816.000,734.000,NA,0.000,0
2026-01-30 22:23:50,3164364,11896.000,-1127.000,9644.000,787.000,1285.000,2027.000,NA,0.000,0
2026-01-30 22:23:50,3164404,6591.000,371.000,7440.000,1841.000,1185.000,665.000,NA,0.000,0
2026-01-30 22:23:50,3164444,7519.000,540.000,5242.000,-103.000,-199.000,1016.000,NA,0.000,0
2026-01-30 22:23:50,3164484,6157.000,125.000,4928.000,-2522.000,-111.000,530.000,NA,0.000,0
2026-01-30 22:23:50,3164524,4606.000,125.000,5255.000,-2786.000,217.000,-356.000,NA,0.000,0
2026-01-30 22:23:50,3164564,3047.000,124.000,545.000,-1417.000,237.000,267.000,NA,0.000,0
2026-01-30 22:23:50,3164604,4569.000,-2224.000,5492.000,-141.000,567.000,466.000,NA,0.000,0
2026-01-30 22:23:50,3164644,11665.000,-3219.000,6364.000,-445.000,-130.000,1379.000,NA,0.000,0
2026-01-30 22:23:50,3164684,5073.000,-3474.000,4850.000,-201.000,947.000,-268.000,NA,0.000,0
2026-01-30 22:23:50,3164724,9680.000,1760.000,5026.000,273.000,-1234.000,171.000,NA,0.000,0
2026-01-30 22:23:50,3164764,10031.000,-348.000,4557.000,-921.000,-389.000,-104.000,NA,0.000,0
2026-01-30 22:23:50,3164804,2402.000,-1676.000,8476.000,755.000,-944.000,-724.000,NA,0.000,0
2026-01-30 22:23:50,3164844,5016.000,366.000,3562.000,-508.000,-1854.000,984.000,NA,0.000,0
2026-01-30 22:23:50,3164884,6017.000,-2457.000,5595.000,-571.000,-334.000,729.000,NA,0.000,0
2026-01-30 22:23:50,3164924,3741.000,-1785.000,5372.000,1015.000,1208.000,-82.000,NA,0.000,0
2026-01-30 22:23:50,3164964,5771.000,-1730.000,4868.000,938.000,535.000,646.000,NA,0.000,0
2026-01-30 22:23:50,3165004,10377.000,-4581.000,6645.000,716.000,-170.000,1007.000,NA,0.000,0
2026-01-30 22:23:50,3165044,8334.000,-2512.000,5879.000,1825.000,-324.000,-1115.000,NA,0.000,0
2026-01-30 22:23:50,3165084,804.000,37.000,9114.000,2185.000,-1351.000,-1763.000,NA,0.000,0
2026-01-30 22:23:50,3165124,9079.000,-3646.000,6874.000,-64.000,-463.000,1371.000,NA,0.000,0
2026-01-30 22:23:50,3165164,-2537.000,-5555.000,7156.000,154.000,1149.000,344.000,NA,0.000,0
2026-01-30 22:23:50,3165204,5420.000,-1562.000,5437.000,676.000,816.000,2668.000,NA,0.000,0
2026-01-30 22:23:50,3165244,4602.000,-962.000,6525.000,-895.000,357.000,1802.000,NA,0.000,0
2026-01-30 22:23:51,3165284,9583.000,13.000,6874.000,-2113.000,303.000,371.000,NA,0.000,0
2026-01-30 22:23:51,3165324,-379.000,356.000,7008.000,-2098.000,300.000,-738.000,NA,0.000,0
2026-01-30 22:23:51,3165364,3669.000,87.000,4201.000,-4024.000,-848.000,497.000,NA,0.000,0
2026-01-30 22:23:51,3165405,7239.000,-2673.000,7580.000,-3570.000,541.000,145.000,NA,0.000,0
2026-01-30 22:23:51,3165444,7359.000,-2037.000,9668.000,-1812.000,428.000,-72.000,NA,0.000,0
2026-01-30 22:23:51,3165484,10929.000,-1360.000,5173.000,-2614.000,880.000,-113.000,NA,0.000,0
2026-01-30 22:23:51,3165524,7179.000,-2425.000,5844.000,-2031.000,1051.000,-461.000,NA,0.000,0
2026-01-30 22:23:51,3165564,6544.000,-1601.000,5354.000,-2091.000,-709.000,-592.000,NA,0.000,0
2026-01-30 22:23:51,3165609,8610.000,-2457.000,6861.000,-2748.000,452.000,-2357.000,NA,0.000,0
2026-01-30 22:23:51,3165644,1110.000,-1658.000,5354.000,-1149.000,1113.000,-1773.000,NA,0.000,0
2026-01-30 22:23:51,3165684,5884.000,-2039.000,5808.000,-1446.000,768.000,-719.000,NA,0.000,0
2026-01-30 22:23:51,3165724,4026.000,-1600.000,5121.000,-903.000,1954.000,-455.000,NA,0.000,0
2026-01-30 22:23:51,3165764,2620.000,-3894.000,7752.000,-104.000,2303.000,-138.000,NA,0.000,0
2026-01-30 22:23:51,3165804,3674.000,-1555.000,6437.000,-98.000,2473.000,124.000,NA,0.000,0
2026-01-30 22:23:51,3165844,3483.000,-2852.000,6304.000,260.000,1537.000,706.000,NA,0.000,0
2026-01-30 22:23:51,3165884,4577.000,-2511.000,8071.000,-962.000,1702.000,-69.000,NA,0.000,0
2026-01-30 22:23:51,3165924,2741.000,-1164.000,6543.000,-1245.000,785.000,-469.000,NA,0.000,0
2026-01-30 22:23:51,3165964,7973.000,-4115.000,4693.000,-3921.000,792.000,-747.000,NA,0.000,0
2026-01-30 22:23:51,3166004,6187.000,1300.000,7847.000,64.000,887.000,-1826.000,NA,0.000,0
2026-01-30 22:23:51,3166044,6107.000,-3956.000,7138.000,-3286.000,647.000,-1331.000,NA,0.000,0
2026-01-30 22:23:51,3166084,3940.000,-661.000,7335.000,-292.000,336.000,-800.000,NA,0.000,0
2026-01-30 22:23:51,3166124,5995.000,-1577.000,5088.000,-1331.000,363.000,-430.000,NA,0.000,0
2026-01-30 22:23:51,3166164,3976.000,-4488.000,5096.000,-3361.000,1166.000,-1554.000,NA,0.000,0
2026-01-30 22:23:51,3166204,536.000,-1335.000,8600.000,-3195.000,-42.000,-2018.000,NA,0.000,0
2026-01-30 22:23:51,3166244,5071.000,-2212.000,5083.000,-5276.000,-527.000,-1465.000,NA,0.000,0
2026-01-30 22:23:52,3166284,10323.000,-5179.000,3871.000,-5473.000,573.000,-1600.000,NA,0.000,0
2026-01-30 22:23:52,3166324,2362.000,-1211.000,6195.000,-1221.000,1934.000,-1873.000,NA,0.000,0
2026-01-30 22:23:52,3166364,4123.000,-1524.000,5595.000,-2998.000,1742.000,-897.000,NA,0.000,0
2026-01-30 22:23:52,3166404,4262.000,-1137.000,5278.000,-2182.000,459.000,-693.000,NA,0.000,0
2026-01-30 22:23:52,3166444,11607.000,-4126.000,3467.000,-3142.000,1573.000,-399.000,NA,0.000,0
2026-01-30 22:23:52,3166484,-2384.000,-3500.000,4787.000,1063.000,1814.000,-2246.000,NA,0.000,0
2026-01-30 22:23:52,3166524,9794.000,-3273.000,8780.000,-4073.000,-848.000,-955.000,NA,0.000,0
2026-01-30 22:23:52,3166564,9255.000,-5116.000,3164.000,-2669.000,-1824.000,-441.000,NA,0.000,0
2026-01-30 22:23:52,3166604,11488.000,-5654.000,4837.000,-1855.000,2965.000,-2806.000,NA,0.000,0
2026-01-30 22:23:52,3166644,-112.000,-785.000,7255.000,1219.000,4532.000,-4694.000,NA,0.000,0
2026-01-30 22:23:52,3166684,7370.000,-5058.000,5653.000,615.000,1507.000,-1095.000,NA,0.000,0
2026-01-30 22:23:52,3166724,-5664.000,-7708.000,3622.000,3242.000,2174.000,-173.000,NA,0.000,0
2026-01-30 22:23:52,3166764,2082.000,-1715.000,7859.000,3410.000,2.000,-1291.000,NA,0.000,0
2026-01-30 22:23:52,3166804,7442.000,-1073.000,9065.000,-2118.000,-2015.000,-1586.000,NA,0.000,0
2026-01-30 22:23:52,3166844,2181.000,1047.000,6198.000,-1065.000,-623.000,-1258.000,NA,0.000,0
2026-01-30 22:23:52,3166884,9753.000,-3515.000,7063.000,-3322.000,875.000,-1160.000,NA,0.000,0
2026-01-30 22:23:52,3166924,7506.000,-476.000,6584.000,-573.000,2672.000,-1816.000,NA,0.000,0
2026-01-30 22:23:52,3166964,4895.000,-622.000,7493.000,-163.000,1248.000,-997.000,NA,0.000,0
2026-01-30 22:23:52,3167004,9537.000,-1281.000,5006.000,-2541.000,732.000,-1017.000,NA,0.000,0
2026-01-30 22:23:52,3167044,6133.000,-567.000,5538.000,0.000,-236.000,-649.000,NA,0.000,0
2026-01-30 22:23:52,3167084,6040.000,736.000,6606.000,-774.000,-1035.000,-1131.000,NA,0.000,0
2026-01-30 22:23:52,3167124,5827.000,-3252.000,5221.000,-2811.000,-578.000,-1055.000,NA,0.000,0
2026-01-30 22:23:52,3167164,4234.000,-828.000,4714.000,507.000,230.000,-633.000,NA,0.000,0
2026-01-30 22:23:52,3167204,5606.000,-4938.000,7846.000,-789.000,686.000,-186.000,NA,0.000,0
2026-01-30 22:23:52,3167244,3696.000,11.000,6180.000,629.000,9.000,-97.000,NA,0.000,0
2026-01-30 22:23:53,3167284,5107.000,-5295.000,8466.000,-3114.000,1139.000,-928.000,NA,0.000,0
2026-01-30 22:23:53,3167324,1976.000,-1949.000,8928.000,-2283.000,292.000,-2309.000,NA,0.000,0
2026-01-30 22:23:53,3167364,15112.000,-3792.000,4215.000,-5398.000,-717.000,-1525.000,NA,0.000,0
2026-01-30 22:23:53,3167405,6508.000,-2757.000,6344.000,-1703.000,2154.000,-2933.000,NA,0.000,0
2026-01-30 22:23:53,3167444,7983.000,-1390.000,1842.000,-1965.000,1452.000,-3419.000,NA,0.000,0
2026-01-30 22:23:53,3167484,5486.000,-2946.000,4423.000,254.000,1409.000,-1930.000,NA,0.000,0
2026-01-30 22:23:53,3167524,16195.000,-8814.000,3220.000,-969.000,-504.000,504.000,NA,0.000,0
2026-01-30 22:23:53,3167564,6405.000,-1279.000,7115.000,1778.000,1153.000,-2218.000,NA,0.000,0
2026-01-30 22:23:53,3167607,8174.000,-474.000,6493.000,-644.000,-1257.000,-263.000,NA,0.000,0
2026-01-30 22:23:53,3167644,6013.000,-6146.000,5415.000,-2303.000,-19.000,156.000,NA,0.000,0
2026-01-30 22:23:53,3167684,2546.000,-6950.000,5129.000,324.000,252.000,-616.000,NA,0.000,0
2026-01-30 22:23:53,3167724,595.000,-1419.000,1888.000,-692.000,876.000,-975.000,NA,0.000,0
2026-01-30 22:23:53,3167764,11502.000,-4532.000,5049.000,-1660.000,609.000,-43.000,NA,0.000,0
2026-01-30 22:23:53,3167804,6064.000,-5163.000,7333.000,1581.000,1741.000,-1680.000,NA,0.000,0
2026-01-30 22:23:53,3167844,4468.000,-741.000,5117.000,572.000,531.000,-554.000,NA,0.000,0
2026-01-30 22:23:53,3167884,5105.000,-5395.000,6199.000,-1105.000,212.000,-7.000,NA,0.000,0
2026-01-30 22:23:53,3167924,5469.000,-2854.000,8865.000,313.000,87.000,-6.000,NA,0.000,0
2026-01-30 22:23:53,3167964,4748.000,-3447.000,7442.000,-1510.000,896.000,-250.000,NA,0.000,0
2026-01-30 22:23:53,3168004,2557.000,-4921.000,10751.000,-2268.000,271.000,-302.000,NA,0.000,0
2026-01-30 22:23:53,3168044,7385.000,-2040.000,9523.000,-3569.000,602.000,-859.000,NA,0.000,0
2026-01-30 22:23:53,3168084,2423.000,-2902.000,7851.000,-5236.000,1577.000,-1762.000,NA,0.000,0
2026-01-30 22:23:53,3168124,2949.000,414.000,5472.000,-4774.000,1613.000,-1764.000,NA,0.000,0
2026-01-30 22:23:53,3168164,8521.000,-4913.000,4507.000,-4220.000,1565.000,-765.000,NA,0.000,0
2026-01-30 22:23:53,3168204,6477.000,-3018.000,3947.000,-1573.000,1761.000,-1415.000,NA,0.000,0
2026-01-30 22:23:53,3168244,8746.000,687.000,2150.000,-1427.000,355.000,-1570.000,NA,0.000,0
2026-01-30 22:23:54,3168284,5417.000,-6401.000,5105.000,35.000,220.000,-1650.000,NA,0.000,0
2026-01-30 22:23:54,3168324,5497.000,784.000,4156.000,700.000,978.000,-1871.000,NA,0.000,0
2026-01-30 22:23:54,3168364,8447.000,-7124.000,2697.000,532.000,1233.000,-1297.000,NA,0.000,0
2026-01-30 22:23:54,3168404,5512.000,-2590.000,8552.000,2240.000,645.000,-1615.000,NA,0.000,0
2026-01-30 22:23:54,3168444,7836.000,-494.000,5848.000,191.000,-823.000,-2272.000,NA,0.000,0
2026-01-30 22:23:54,3168484,5030.000,-2111.000,5753.000,-251.000,-505.000,-2953.000,NA,0.000,0
2026-01-30 22:23:54,3168524,8090.000,-1312.000,5528.000,54.000,-489.000,-1857.000,NA,0.000,0
2026-01-30 22:23:54,3168564,2885.000,-3058.000,6679.000,288.000,730.000,-1191.000,NA,0.000,0
2026-01-30 22:23:54,3168604,1262.000,-3093.000,7166.000,36.000,1193.000,937.000,NA,0.000,0
2026-01-30 22:23:54,3168644,2889.000,-876.000,8848.000,-108.000,2012.000,540.000,NA,0.000,0
2026-01-30 22:23:54,3168684,5388.000,-2500.000,7335.000,-1275.000,1210.000,709.000,NA,0.000,0
2026-01-30 22:23:54,3168724,11646.000,-1374.000,4594.000,-4301.000,471.000,-1310.000,NA,0.000,0
2026-01-30 22:23:54,3168764,6643.000,-1528.000,4031.000,-3683.000,-687.000,-2244.000,NA,0.000,0
2026-01-30 22:23:54,3168804,7001.000,-2061.000,4160.000,-3407.000,-519.000,-1766.000,NA,0.000,0
2026-01-30 22:23:54,3168844,4332.000,-2440.000,6428.000,-1405.000,-699.000,-725.000,NA,0.000,0
2026-01-30 22:23:54,3168884,2934.000,-3346.000,9193.000,-2076.000,120.000,40.000,NA,0.000,0
2026-01-30 22:23:54,3168924,5314.000,-1819.000,10824.000,-2451.000,1727.000,766.000,NA,0.000,0
2026-01-30 22:23:54,3168964,5780.000,-86.000,2374.000,-3855.000,1930.000,809.000,NA,0.000,0
2026-01-30 22:23:54,3169004,5825.000,-2354.000,-134.000,-3586.000,935.000,-449.000,NA,0.000,0
2026-01-30 22:23:54,3169044,8174.000,-5535.000,-3152.000,-2935.000,-1433.000,-1362.000,NA,0.000,0
2026-01-30 22:23:54,3169084,6714.000,-2708.000,2401.000,-694.000,-1197.000,-2435.000,NA,0.000,0
2026-01-30 22:23:54,3169124,6606.000,-2238.000,4465.000,1525.000,-530.000,-2569.000,NA,0.000,0
2026-01-30 22:23:54,3169164,7397.000,-3328.000,7522.000,2915.000,402.000,-1688.000,NA,0.000,0
2026-01-30 22:23:54,3169204,3493.000,-4611.000,7806.000,2992.000,1555.000,-859.000,NA,0.000,0
2026-01-30 22:23:54,3169244,4654.000,-1595.000,5968.000,3505.000,449.000,359.000,NA,0.000,0
2026-01-30 22:23:55,3169284,3836.000,-4225.000,6333.000,1126.000,660.000,-814.000,NA,0.000,0
2026-01-30 22:23:55,3169324,5630.000,-2068.000,7029.000,-36.000,624.000,-1312.000,NA,0.000,0
2026-01-30 22:23:55,3169367,7138.000,-2759.000,6869.000,-1328.000,-35.000,-1090.000,NA,0.000,0
2026-01-30 22:23:55,3169407,4794.000,-2333.000,6686.000,-1224.000,756.000,-1086.000,NA,0.000,0
2026-01-30 22:23:55,3169448,5200.000,-4633.000,6473.000,-1814.000,395.000,-914.000,NA,0.000,0
2026-01-30 22:23:55,3169484,6930.000,-2749.000,7257.000,-2269.000,-98.000,-1020.000,NA,0.000,0
2026-01-30 22:23:55,3169524,6248.000,-2261.000,3110.000,-3624.000,1075.000,-1413.000,NA,0.000,0
2026-01-30 22:23:55,3169564,7081.000,-3088.000,6950.000,-3763.000,997.000,-1456.000,NA,0.000,0
2026-01-30 22:23:55,3169607,5865.000,-745.000,4008.000,-3823.000,702.000,-859.000,NA,0.000,0
2026-01-30 22:23:55,3169644,6627.000,-2174.000,3316.000,-4225.000,1257.000,-1077.000,NA,0.000,0
2026-01-30 22:23:55,3169684,8434.000,-3303.000,2781.000,-3344.000,2146.000,-1672.000,NA,0.000,0
2026-01-30 22:23:55,3169724,5208.000,-5505.000,6193.000,-1759.000,2730.000,-1986.000,NA,0.000,0
2026-01-30 22:23:55,3169764,6845.000,-1291.000,6544.000,-2730.000,1098.000,-2490.000,NA,0.000,0
2026-01-30 22:23:55,3169804,7238.000,-4301.000,4497.000,-1849.000,897.000,-2676.000,NA,0.000,0
2026-01-30 22:23:55,3169844,6893.000,-2203.000,2513.000,-1617.000,531.000,-2177.000,NA,0.000,0
2026-01-30 22:23:55,3169884,4755.000,-684.000,6457.000,-1290.000,-23.000,-2842.000,NA,0.000,0
2026-01-30 22:23:55,3169924,5906.000,-3197.000,5218.000,-689.000,887.000,-1552.000,NA,0.000,0
2026-01-30 22:23:55,3169964,6023.000,-2905.000,6296.000,857.000,415.000,-835.000,NA,0.000,0
2026-01-30 22:23:55,3170004,3852.000,-729.000,5094.000,450.000,564.000,-451.000,NA,0.000,0
2026-01-30 22:23:55,3170044,4118.000,-3992.000,5127.000,-128.000,1727.000,197.000,NA,0.000,0
2026-01-30 22:23:55,3170084,6178.000,-2852.000,6178.000,-573.000,1095.000,-49.000,NA,0.000,0
2026-01-30 22:23:55,3170124,3162.000,-2007.000,5291.000,-1170.000,-182.000,347.000,NA,0.000,0
2026-01-30 22:23:55,3170164,6488.000,-2858.000,6288.000,-551.000,-401.000,981.000,NA,0.000,0
2026-01-30 22:23:55,3170204,4184.000,-1889.000,7754.000,-3456.000,786.000,-39.000,NA,0.000,0
2026-01-30 22:23:55,3170244,2349.000,-836.000,5187.000,-2687.000,391.000,875.000,NA,0.000,0
2026-01-30 22:23:56,3170284,8652.000,-5548.000,7043.000,-4877.000,525.000,468.000,NA,0.000,0
2026-01-30 22:23:56,3170324,7888.000,-2160.000,1266.000,-4421.000,1983.000,-1576.000,NA,0.000,0
2026-01-30 22:23:56,3170364,8014.000,-3295.000,-277.000,-2673.000,2147.000,-1693.000,NA,0.000,0
2026-01-30 22:23:56,3170404,4457.000,-4278.000,3100.000,385.000,1959.000,-1666.000,NA,0.000,0
2026-01-30 22:23:56,3170444,6439.000,-3792.000,4813.000,231.000,1238.000,-2038.000,NA,0.000,0
2026-01-30 22:23:56,3170484,6761.000,-2565.000,5798.000,756.000,480.000,-1999.000,NA,0.000,0
2026-01-30 22:23:56,3170524,4339.000,-2236.000,5758.000,1643.000,1230.000,-1795.000,NA,0.000,0
2026-01-30 22:23:56,3170564,4720.000,-2971.000,4096.000,6.000,1154.000,-1470.000,NA,0.000,0
2026-01-30 22:23:56,3170604,7009.000,-2660.000,6545.000,-923.000,1207.000,-2616.000,NA,0.000,0
2026-01-30 22:23:56,3170644,2960.000,-5903.000,3924.000,263.000,444.000,-2172.000,NA,0.000,0
2026-01-30 22:23:56,3170684,3744.000,-910.000,7872.000,742.000,-1497.000,-894.000,NA,0.000,0
2026-01-30 22:23:56,3170724,5338.000,-2565.000,5718.000,-2897.000,-852.000,-1549.000,NA,0.000,0
2026-01-30 22:23:56,3170764,7698.000,-746.000,10810.000,-627.000,492.000,-1435.000,NA,0.000,0
2026-01-30 22:23:56,3170804,2526.000,-510.000,7652.000,-715.000,1270.000,-913.000,NA,0.000,0
2026-01-30 22:23:56,3170844,2623.000,-2015.000,6254.000,-1524.000,417.000,402.000,NA,0.000,0
2026-01-30 22:23:56,3170884,6924.000,-5204.000,5926.000,-3709.000,449.000,-587.000,NA,0.000,0
2026-01-30 22:23:56,3170924,6369.000,-1542.000,3623.000,-2685.000,-1590.000,-773.000,NA,0.000,0
2026-01-30 22:23:56,3170964,8032.000,-3853.000,2594.000,-839.000,-2013.000,-115.000,NA,0.000,0
2026-01-30 22:23:56,3171004,9096.000,1208.000,153.000,-728.000,-1243.000,-301.000,NA,0.000,0
2026-01-30 22:23:56,3171044,2119.000,-4717.000,2383.000,549.000,-251.000,-224.000,NA,0.000,0
2026-01-30 22:23:56,3171084,6389.000,-7309.000,4566.000,966.000,-1489.000,1458.000,NA,0.000,0
2026-01-30 22:23:56,3171124,9833.000,-4532.000,4268.000,362.000,-1487.000,660.000,NA,0.000,0
2026-01-30 22:23:56,3171164,6964.000,-934.000,3143.000,-483.000,-498.000,-897.000,NA,0.000,0
2026-01-30 22:23:56,3171204,2689.000,-1375.000,6594.000,532.000,713.000,324.000,NA,0.000,0
2026-01-30 22:23:56,3171244,6985.000,-3631.000,3211.000,558.000,271.000,1396.000,NA,0.000,0
2026-01-30 22:23:57,3171284,10302.000,-4938.000,3837.000,-1655.000,1942.000,60.000,NA,0.000,0
2026-01-30 22:23:57,3171324,4388.000,-2058.000,6863.000,-3530.000,2252.000,-946.000,NA,0.000,0
2026-01-30 22:23:57,3171369,6255.000,-3146.000,5351.000,-2911.000,2509.000,197.000,NA,0.000,0
2026-01-30 22:23:57,3171404,5973.000,-3734.000,5339.000,-964.000,2936.000,332.000,NA,0.000,0
2026-01-30 22:23:57,3171444,7321.000,-4781.000,4874.000,-2846.000,2987.000,-1072.000,NA,0.000,0
2026-01-30 22:23:57,3171484,4659.000,-2516.000,2257.000,-2639.000,1828.000,-1162.000,NA,0.000,0
2026-01-30 22:23:57,3171524,2841.000,-4008.000,4938.000,-467.000,-114.000,185.000,NA,0.000,0
2026-01-30 22:23:57,3171564,8301.000,-3694.000,4469.000,-1438.000,634.000,-1185.000,NA,0.000,0
2026-01-30 22:23:57,3171607,3834.000,-3512.000,6578.000,-1053.000,2205.000,-2156.000,NA,0.000,0
2026-01-30 22:23:57,3171644,5707.000,-3555.000,4293.000,-1959.000,1166.000,-1776.000,NA,0.000,0
2026-01-30 22:23:57,3171684,4895.000,-4298.000,5788.000,-1198.000,437.000,-824.000,NA,0.000,0
2026-01-30 22:23:57,3171724,5302.000,-1819.000,4942.000,-292.000,682.000,-582.000,NA,0.000,0
2026-01-30 22:23:57,3171764,6899.000,-3177.000,4353.000,-317.000,412.000,-1053.000,NA,0.000,0
2026-01-30 22:23:57,3171804,8708.000,-3418.000,2817.000,-598.000,1245.000,-1695.000,NA,0.000,0
2026-01-30 22:23:57,3171844,6441.000,-4322.000,3089.000,516.000,2008.000,-1873.000,NA,0.000,0
2026-01-30 22:23:57,3171884,5725.000,-3509.000,4575.000,274.000,640.000,-1472.000,NA,0.000,0
2026-01-30 22:23:57,3171924,5988.000,-3974.000,1483.000,1476.000,-273.000,-631.000,NA,0.000,0
2026-01-30 22:23:57,3171964,5475.000,-2630.000,6088.000,2042.000,406.000,-801.000,NA,0.000,0
2026-01-30 22:23:57,3172004,5755.000,-1852.000,5065.000,4752.000,1309.000,-1294.000,NA,0.000,0
2026-01-30 22:23:57,3172044,8515.000,-4399.000,2249.000,5358.000,1492.000,-1412.000,NA,0.000,0
2026-01-30 22:23:57,3172084,5737.000,-2759.000,5166.000,6332.000,2546.000,-1498.000,NA,0.000,0
2026-01-30 22:23:57,3172124,1690.000,-1842.000,9929.000,6388.000,1549.000,-2057.000,NA,0.000,0
2026-01-30 22:23:57,3172164,5990.000,-1212.000,9323.000,5469.000,142.000,376.000,NA,0.000,0
2026-01-30 22:23:57,3172204,2669.000,902.000,8758.000,4606.000,941.000,-1380.000,NA,0.000,0
2026-01-30 22:23:57,3172244,3651.000,-3659.000,6563.000,1254.000,1272.000,-270.000,NA,0.000,0
2026-01-30 22:23:58,3172284,1030.000,-2118.000,13136.000,3805.000,3496.000,-297.000,NA,0.000,0
2026-01-30 22:23:58,3172324,3231.000,-636.000,9596.000,65.000,1832.000,158.000,NA,0.000,0
2026-01-30 22:23:58,3172364,3774.000,-1387.000,8051.000,395.000,1453.000,341.000,NA,0.000,0
2026-01-30 22:23:58,3172404,5192.000,2535.000,9082.000,-316.000,847.000,187.000,NA,0.000,0
2026-01-30 22:23:58,3172444,1622.000,2925.000,9491.000,-1492.000,1716.000,-1098.000,NA,0.000,0
2026-01-30 22:23:58,3172484,4319.000,-1097.000,7968.000,-2547.000,-597.000,-468.000,NA,0.000,0
2026-01-30 22:23:58,3172524,2520.000,147.000,5899.000,-239.000,-68.000,-487.000,NA,0.000,0
2026-01-30 22:23:58,3172564,8277.000,-835.000,5716.000,-814.000,-63.000,215.000,NA,0.000,0
2026-01-30 22:23:58,3172604,2644.000,-256.000,8734.000,1338.000,1727.000,-790.000,NA,0.000,0
2026-01-30 22:23:58,3172644,768.000,-1294.000,6890.000,33.000,673.000,-532.000,NA,0.000,0
2026-01-30 22:23:58,3172684,12014.000,-1638.000,5007.000,-1091.000,-716.000,362.000,NA,0.000,0
2026-01-30 22:23:58,3172724,2594.000,273.000,9091.000,2525.000,1730.000,-1602.000,NA,0.000,0
2026-01-30 22:23:58,3172764,1969.000,-2428.000,8216.000,930.000,127.000,-264.000,NA,0.000,0
2026-01-30 22:23:58,3172804,6229.000,559.000,8119.000,1719.000,-1794.000,906.000,NA,0.000,0
2026-01-30 22:23:58,3172844,3940.000,274.000,8211.000,897.000,-648.000,10.000,NA,0.000,0
2026-01-30 22:23:58,3172884,-1696.000,-1370.000,5171.000,529.000,145.000,-152.000,NA,0.000,0
2026-01-30 22:23:58,3172924,5199.000,1296.000,6840.000,-379.000,-1525.000,433.000,NA,0.000,0
2026-01-30 22:23:58,3172964,-592.000,-520.000,5361.000,-168.000,-296.000,-195.000,NA,0.000,0
2026-01-30 22:23:58,3173004,8729.000,-114.000,7090.000,-2586.000,-1626.000,596.000,NA,0.000,0
2026-01-30 22:23:58,3173044,986.000,1345.000,7190.000,577.000,574.000,-823.000,NA,0.000,0
2026-01-30 22:23:58,3173084,6787.000,-1324.000,8519.000,-2938.000,-741.000,71.000,NA,0.000,0
2026-01-30 22:23:58,3173124,7140.000,0.000,11196.000,-2265.000,1039.000,-1492.000,NA,0.000,0
2026-01-30 22:23:58,3173164,980.000,-1235.000,7339.000,-295.000,1113.000,-672.000,NA,0.000,0
2026-01-30 22:23:58,3173204,8397.000,1310.000,4310.000,213.000,-78.000,873.000,NA,0.000,0
2026-01-30 22:23:58,3173244,5262.000,-523.000,6445.000,-270.000,-1398.000,93.000,NA,0.000,0
2026-01-30 22:23:59,3173284,2750.000,-932.000,3953.000,111.000,-1415.000,172.000,NA,0.000,0
2026-01-30 22:23:59,3173324,6437.000,-3379.000,7318.000,-2032.000,-2136.000,36.000,NA,0.000,0
2026-01-30 22:23:59,3173367,5597.000,567.000,8342.000,-861.000,-2586.000,707.000,NA,0.000,0
2026-01-30 22:23:59,3173407,6824.000,1484.000,8859.000,-977.000,-1901.000,29.000,NA,0.000,0
2026-01-30 22:23:59,3173444,1028.000,-1416.000,4331.000,-805.000,-1358.000,34.000,NA,0.000,0
2026-01-30 22:23:59,3173484,4616.000,-945.000,8270.000,-1875.000,-2046.000,1281.000,NA,0.000,0
2026-01-30 22:23:59,3173524,6804.000,459.000,6901.000,-1474.000,-1871.000,1064.000,NA,0.000,0
2026-01-30 22:23:59,3173564,-2691.000,-894.000,4594.000,766.000,-686.000,556.000,NA,0.000,0
2026-01-30 22:23:59,3173607,4457.000,-1362.000,6372.000,3858.000,-341.000,3.000,NA,0.000,0
2026-01-30 22:23:59,3173644,9864.000,555.000,1460.000,225.000,-536.000,204.000,NA,0.000,0
2026-01-30 22:23:59,3173684,8470.000,1462.000,6077.000,791.000,-1517.000,-880.000,NA,0.000,0
2026-01-30 22:23:59,3173724,3843.000,-1226.000,8317.000,439.000,-3972.000,-750.000,NA,0.000,0
2026-01-30 22:23:59,3173764,1211.000,-1719.000,6103.000,-1407.000,-3903.000,-352.000,NA,0.000,0
2026-01-30 22:23:59,3173804,2040.000,-1618.000,3824.000,291.000,-750.000,1408.000,NA,0.000,0
2026-01-30 22:23:59,3173844,6871.000,-5807.000,7257.000,319.000,1108.000,2163.000,NA,0.000,0
2026-01-30 22:23:59,3173884,4219.000,1858.000,5913.000,1134.000,1184.000,2084.000,NA,0.000,0
2026-01-30 22:23:59,3173924,8215.000,2006.000,4651.000,-62.000,1149.000,1309.000,NA,0.000,0
2026-01-30 22:23:59,3173964,5158.000,-3585.000,7835.000,-641.000,1086.000,1223.000,NA,0.000,0
2026-01-30 22:23:59,3174004,6922.000,-2533.000,6468.000,-489.000,-2366.000,516.000,NA,0.000,0
2026-01-30 22:23:59,3174044,4309.000,-166.000,6286.000,-1068.000,-2470.000,16.000,NA,0.000,0
2026-01-30 22:23:59,3174084,3921.000,-1242.000,5600.000,-369.000,-479.000,-175.000,NA,0.000,0
2026-01-30 22:23:59,3174124,6394.000,-3013.000,8812.000,1459.000,674.000,34.000,NA,0.000,0
2026-01-30 22:23:59,3174164,7434.000,-3824.000,5684.000,1296.000,2338.000,-22.000,NA,0.000,0
2026-01-30 22:23:59,3174204,6630.000,994.000,3301.000,1560.000,-196.000,288.000,NA,0.000,0
2026-01-30 22:23:59,3174244,7696.000,-427.000,7092.000,1183.000,-610.000,633.000,NA,0.000,0
2026-01-30 22:24:00,3174284,4690.000,-1745.000,5303.000,-291.000,-2066.000,566.000,NA,0.000,0
2026-01-30 22:24:00,3174324,5615.000,-1551.000,4079.000,-1045.000,-2046.000,-61.000,NA,0.000,0
2026-01-30 22:24:00,3174364,5392.000,-3167.000,7766.000,-296.000,1265.000,-187.000,NA,0.000,0
2026-01-30 22:24:00,3174404,2183.000,-1263.000,7480.000,428.000,1396.000,85.000,NA,0.000,0
2026-01-30 22:24:00,3174444,9041.000,-2531.000,6017.000,-1389.000,1557.000,533.000,NA,0.000,0
2026-01-30 22:24:00,3174484,7125.000,-2388.000,7512.000,-1075.000,1872.000,-156.000,NA,0.000,0
2026-01-30 22:24:00,3174524,2028.000,423.000,6360.000,-1281.000,650.000,-606.000,NA,0.000,0
2026-01-30 22:24:00,3174564,2989.000,-632.000,911.000,-3009.000,89.000,689.000,NA,0.000,0
2026-01-30 22:24:00,3174604,8221.000,-5627.000,2697.000,-2428.000,1091.000,865.000,NA,0.000,0
2026-01-30 22:24:00,3174644,5393.000,-229.000,4280.000,63.000,886.000,-674.000,NA,0.000,0
2026-01-30 22:24:00,3174684,9252.000,-1292.000,3256.000,-667.000,615.000,-1164.000,NA,0.000,0
2026-01-30 22:24:00,3174724,6037.000,-1328.000,3167.000,-247.000,598.000,-1076.000,NA,0.000,0
2026-01-30 22:24:00,3174764,5468.000,-1361.000,6013.000,685.000,-911.000,-825.000,NA,0.000,0
2026-01-30 22:24:00,3174804,6620.000,-3379.000,5533.000,527.000,-1449.000,-271.000,NA,0.000,0
2026-01-30 22:24:00,3174844,4836.000,-2834.000,6302.000,1239.000,-103.000,-473.000,NA,0.000,0
2026-01-30 22:24:00,3174884,3756.000,-2295.000,8816.000,1581.000,586.000,-386.000,NA,0.000,0
2026-01-30 22:24:00,3174924,8116.000,-2626.000,7282.000,619.000,1022.000,215.000,NA,0.000,0
2026-01-30 22:24:00,3174964,3328.000,-1624.000,10947.000,1042.000,838.000,-176.000,NA,0.000,0
2026-01-30 22:24:00,3175004,4496.000,-508.000,8178.000,-1847.000,-160.000,320.000,NA,0.000,0
2026-01-30 22:24:00,3175044,5170.000,-737.000,7411.000,-3224.000,-515.000,219.000,NA,0.000,0
2026-01-30 22:24:00,3175084,7706.000,-394.000,5684.000,-3673.000,-525.000,69.000,NA,0.000,0
2026-01-30 22:24:00,3175124,5514.000,282.000,7009.000,-1574.000,467.000,-398.000,NA,0.000,0
2026-01-30 22:24:00,3175164,8717.000,-4222.000,5120.000,-2320.000,1601.000,-440.000,NA,0.000,0
2026-01-30 22:24:00,3175204,3993.000,-3557.000,4352.000,-443.000,1151.000,-1075.000,NA,0.000,0
2026-01-30 22:24:00,3175244,9816.000,-2689.000,3857.000,299.000,554.000,-1256.000,NA,0.000,0
2026-01-30 22:24:01,3175284,5043.000,-2404.000,4885.000,909.000,-327.000,-1170.000,NA,0.000,0
2026-01-30 22:24:01,3175324,2915.000,-1416.000,6978.000,1189.000,-1677.000,-965.000,NA,0.000,0
2026-01-30 22:24:01,3175364,7400.000,-2691.000,4872.000,433.000,-1454.000,-36.000,NA,0.000,0
2026-01-30 22:24:01,3175404,7257.000,-2122.000,5078.000,1139.000,-250.000,-326.000,NA,0.000,0
2026-01-30 22:24:01,3175444,9463.000,-3599.000,4275.000,1552.000,1319.000,-988.000,NA,0.000,0
2026-01-30 22:24:01,3175484,906.000,-1746.000,5606.000,3173.000,1533.000,-1512.000,NA,0.000,0
2026-01-30 22:24:01,3175524,8751.000,-4441.000,6442.000,1763.000,-974.000,1035.000,NA,0.000,0
2026-01-30 22:24:01,3175564,6225.000,-1562.000,6242.000,1701.000,-1483.000,-314.000,NA,0.000,0
2026-01-30 22:24:01,3175607,5511.000,-401.000,8036.000,1300.000,-2008.000,-355.000,NA,0.000,0
2026-01-30 22:24:01,3175646,7274.000,-1384.000,4687.000,296.000,-230.000,534.000,NA,0.000,0
2026-01-30 22:24:01,3175684,7055.000,-3047.000,7769.000,245.000,429.000,597.000,NA,0.000,0
2026-01-30 22:24:01,3175724,1779.000,-1188.000,7057.000,513.000,885.000,305.000,NA,0.000,0
2026-01-30 22:24:01,3175764,10151.000,-1610.000,5978.000,-842.000,-188.000,2623.000,NA,0.000,0
2026-01-30 22:24:01,3175804,7771.000,-1251.000,6707.000,16.000,635.000,1124.000,NA,0.000,0
2026-01-30 22:24:01,3175844,7714.000,-2398.000,8475.000,-802.000,147.000,541.000,NA,0.000,0
2026-01-30 22:24:01,3175884,6071.000,-2875.000,5237.000,-1713.000,-504.000,445.000,NA,0.000,0
2026-01-30 22:24:01,3175924,6445.000,-2278.000,5824.000,59.000,-511.000,-31.000,NA,0.000,0
2026-01-30 22:24:01,3175964,3673.000,-1120.000,5954.000,435.000,-317.000,-454.000,NA,0.000,0
2026-01-30 22:24:01,3176004,4749.000,-2414.000,6792.000,747.000,173.000,302.000,NA,0.000,0
2026-01-30 22:24:01,3176044,7768.000,-1877.000,3964.000,819.000,-353.000,1373.000,NA,0.000,0
2026-01-30 22:24:01,3176084,5942.000,-1644.000,5407.000,1155.000,696.000,464.000,NA,0.000,0
2026-01-30 22:24:01,3176124,5480.000,149.000,4623.000,926.000,461.000,148.000,NA,0.000,0
2026-01-30 22:24:01,3176164,7955.000,-924.000,6008.000,-782.000,19.000,221.000,NA,0.000,0
2026-01-30 22:24:01,3176204,5054.000,-836.000,6808.000,-599.000,-409.000,-154.000,NA,0.000,0
2026-01-30 22:24:01,3176244,4013.000,-1936.000,8367.000,-1323.000,-488.000,-316.000,NA,0.000,0
2026-01-30 22:24:02,3176284,4855.000,-1606.000,6021.000,-1981.000,639.000,581.000,NA,0.000,0
2026-01-30 22:24:02,3176324,2041.000,-930.000,5744.000,-797.000,1255.000,857.000,NA,0.000,0
2026-01-30 22:24:02,3176364,7293.000,-567.000,5333.000,-2396.000,846.000,1538.000,NA,0.000,0
2026-01-30 22:24:02,3176404,6882.000,-605.000,5233.000,-1965.000,504.000,652.000,NA,0.000,0
2026-01-30 22:24:02,3176444,6882.000,-3383.000,7783.000,-2644.000,648.000,251.000,NA,0.000,0
2026-01-30 22:24:02,3176484,6955.000,-1942.000,4610.000,-2546.000,401.000,-651.000,NA,0.000,0
2026-01-30 22:24:02,3176524,4868.000,287.000,2916.000,-1751.000,450.000,-1201.000,NA,0.000,0
2026-01-30 22:24:02,3176564,1560.000,-1399.000,7666.000,-1692.000,441.000,-799.000,NA,0.000,0
2026-01-30 22:24:02,3176604,2135.000,-208.000,3565.000,-1012.000,-896.000,-125.000,NA,0.000,0
2026-01-30 22:24:02,3176644,8539.000,-1195.000,8423.000,55.000,444.000,-998.000,NA,0.000,0
2026-01-30 22:24:02,3176684,6449.000,-320.000,2238.000,-1247.000,1056.000,-1372.000,NA,0.000,0
2026-01-30 22:24:02,3176724,7105.000,-2226.000,4602.000,-1404.000,1602.000,-496.000,NA,0.000,0
2026-01-30 22:24:02,3176764,4736.000,-3329.000,6620.000,458.000,1037.000,-277.000,NA,0.000,0
2026-01-30 22:24:02,3176804,3361.000,-1157.000,5501.000,171.000,473.000,-485.000,NA,0.000,0
2026-01-30 22:24:02,3176844,6844.000,-3520.000,3188.000,-1322.000,204.000,-131.000,NA,0.000,0
2026-01-30 22:24:02,3176884,5092.000,-2090.000,4913.000,-248.000,152.000,-791.000,NA,0.000,0
2026-01-30 22:24:02,3176924,7635.000,-3614.000,3485.000,-636.000,1982.000,-2732.000,NA,0.000,0
2026-01-30 22:24:02,3176964,968.000,-2216.000,8610.000,1253.000,222.000,-1032.000,NA,0.000,0
2026-01-30 22:24:02,3177004,4982.000,-1876.000,4899.000,-233.000,-372.000,7.000,NA,0.000,0
2026-01-30 22:24:02,3177044,5100.000,-3390.000,10205.000,93.000,-545.000,-199.000,NA,0.000,0
2026-01-30 22:24:02,3177084,5553.000,-2600.000,4669.000,-1143.000,-466.000,-357.000,NA,0.000,0
2026-01-30 22:24:02,3177124,6196.000,-3484.000,5193.000,-872.000,-991.000,-48.000,NA,0.000,0
2026-01-30 22:24:02,3177164,5722.000,-1988.000,7754.000,-842.000,-689.000,-431.000,NA,0.000,0
2026-01-30 22:24:02,3177204,3832.000,-1404.000,6963.000,-2273.000,-1144.000,-13.000,NA,0.000,0
2026-01-30 22:24:02,3177244,3196.000,-2838.000,6865.000,-2896.000,-618.000,-133.000,NA,0.000,0
2026-01-30 22:24:03,3177284,4151.000,-1608.000,4835.000,-575.000,1123.000,814.000,NA,0.000,0
2026-01-30 22:24:03,3177324,6213.000,-2202.000,2753.000,48.000,1049.000,432.000,NA,0.000,0
2026-01-30 22:24:03,3177367,8211.000,-5446.000,2700.000,-1005.000,1346.000,-618.000,NA,0.000,0
2026-01-30 22:24:03,3177406,7754.000,-2340.000,4802.000,-392.000,-1271.000,-765.000,NA,0.000,0
2026-01-30 22:24:03,3177444,5437.000,-554.000,5769.000,136.000,-1570.000,-682.000,NA,0.000,0
2026-01-30 22:24:03,3177484,8858.000,-2638.000,5568.000,604.000,-1879.000,-1330.000,NA,0.000,0
2026-01-30 22:24:03,3177524,8059.000,-1105.000,2856.000,1834.000,-661.000,-1925.000,NA,0.000,0
2026-01-30 22:24:03,3177564,2952.000,-3361.000,6849.000,2588.000,249.000,-1776.000,NA,0.000,0
2026-01-30 22:24:03,3177606,10098.000,-3656.000,4600.000,2836.000,-724.000,-460.000,NA,0.000,0
2026-01-30 22:24:03,3177644,8780.000,864.000,6362.000,4404.000,-1026.000,-1315.000,NA,0.000,0
2026-01-30 22:24:03,3177684,3457.000,-647.000,3562.000,4267.000,-51.000,-1030.000,NA,0.000,0
2026-01-30 22:24:03,3177724,5497.000,-4065.000,7442.000,4459.000,-1186.000,-652.000,NA,0.000,0
2026-01-30 22:24:03,3177764,6917.000,-1240.000,6590.000,5985.000,-520.000,-253.000,NA,0.000,0
2026-01-30 22:24:03,3177804,7912.000,441.000,4151.000,4842.000,-1922.000,-994.000,NA,0.000,0
2026-01-30 22:24:03,3177844,6438.000,894.000,5324.000,4976.000,-1450.000,-703.000,NA,0.000,0
2026-01-30 22:24:03,3177884,6599.000,-4037.000,8059.000,4270.000,-872.000,-1437.000,NA,0.000,0
2026-01-30 22:24:03,3177924,2630.000,2117.000,7380.000,4518.000,-866.000,-746.000,NA,0.000,0
2026-01-30 22:24:03,3177964,6941.000,-3376.000,3578.000,3769.000,258.000,917.000,NA,0.000,0
2026-01-30 22:24:03,3178004,8592.000,-1795.000,-2019.000,3577.000,515.000,326.000,NA,0.000,0
2026-01-30 22:24:03,3178044,9122.000,3138.000,5049.000,3501.000,369.000,-1570.000,NA,0.000,0
2026-01-30 22:24:03,3178084,7229.000,2928.000,9370.000,3740.000,1331.000,-2098.000,NA,0.000,0
2026-01-30 22:24:03,3178124,5407.000,114.000,7183.000,3060.000,3016.000,-1670.000,NA,0.000,0
2026-01-30 22:24:03,3178164,9468.000,1690.000,4687.000,1729.000,3142.000,-825.000,NA,0.000,0
2026-01-30 22:24:03,3178204,1247.000,1315.000,7285.000,2590.000,3029.000,-1003.000,NA,0.000,0
2026-01-30 22:24:03,3178244,4752.000,6167.000,6800.000,2913.000,244.000,551.000,NA,0.000,0
2026-01-30 22:24:04,3178284,5872.000,-1118.000,2793.000,1438.000,59.000,2298.000,NA,0.000,0
2026-01-30 22:24:04,3178324,9948.000,4063.000,7516.000,1275.000,-1387.000,1671.000,NA,0.000,0
2026-01-30 22:24:04,3178364,3230.000,-703.000,6081.000,2872.000,50.000,2557.000,NA,0.000,0
2026-01-30 22:24:04,3178404,9726.000,3982.000,8427.000,362.000,-1421.000,3758.000,NA,0.000,0
2026-01-30 22:24:04,3178444,5753.000,-198.000,3628.000,606.000,-148.000,2063.000,NA,0.000,0
2026-01-30 22:24:04,3178484,6311.000,303.000,11029.000,-857.000,-815.000,2632.000,NA,0.000,0
2026-01-30 22:24:04,3178524,5758.000,4421.000,402.000,157.000,1062.000,3582.000,NA,0.000,0
2026-01-30 22:24:04,3178564,9098.000,3072.000,241.000,712.000,-103.000,2829.000,NA,0.000,0
2026-01-30 22:24:04,3178604,7768.000,-1017.000,8289.000,1563.000,-444.000,2816.000,NA,0.000,0
2026-01-30 22:24:04,3178644,7987.000,387.000,4771.000,778.000,-1460.000,2240.000,NA,0.000,0
2026-01-30 22:24:04,3178684,7604.000,1027.000,4390.000,291.000,43.000,1774.000,NA,0.000,0
2026-01-30 22:24:04,3178724,5112.000,1070.000,5864.000,40.000,-356.000,1734.000,NA,0.000,0
2026-01-30 22:24:04,3178764,7679.000,-949.000,5160.000,699.000,-358.000,1882.000,NA,0.000,0
2026-01-30 22:24:04,3178804,5875.000,1287.000,6253.000,1233.000,167.000,1316.000,NA,0.000,0
2026-01-30 22:24:04,3178844,5343.000,2083.000,-1122.000,3816.000,542.000,2458.000,NA,0.000,0
2026-01-30 22:24:04,3178884,6871.000,-3690.000,4386.000,3284.000,351.000,2464.000,NA,0.000,0
2026-01-30 22:24:04,3178924,10676.000,-1711.000,-3382.000,3301.000,499.000,-142.000,NA,0.000,0
2026-01-30 22:24:04,3178964,7848.000,860.000,17916.000,6405.000,-36.000,-756.000,NA,0.000,0
2026-01-30 22:24:04,3179004,6272.000,5696.000,854.000,5005.000,-902.000,1290.000,NA,0.000,0
2026-01-30 22:24:04,3179044,5951.000,-1693.000,12059.000,2650.000,-529.000,1559.000,NA,0.000,0
2026-01-30 22:24:04,3179084,3976.000,7443.000,5393.000,1904.000,624.000,445.000,NA,0.000,0
2026-01-30 22:24:04,3179124,5337.000,-3617.000,1483.000,1576.000,2446.000,1466.000,NA,0.000,0
2026-01-30 22:24:04,3179164,7134.000,-1545.000,1394.000,1649.000,1694.000,752.000,NA,0.000,0
2026-01-30 22:24:04,3179204,9535.000,2027.000,3001.000,2586.000,1694.000,-504.000,NA,0.000,0
2026-01-30 22:24:04,3179244,9046.000,5299.000,4710.000,3536.000,1350.000,-1184.000,NA,0.000,0
2026-01-30 22:24:05,3179284,8071.000,2540.000,6626.000,3319.000,1563.000,-1215.000,NA,0.000,0
2026-01-30 22:24:05,3179324,5072.000,1235.000,6079.000,3260.000,2546.000,-523.000,NA,0.000,0
2026-01-30 22:24:05,3179367,3768.000,1708.000,3343.000,4733.000,2300.000,130.000,NA,0.000,0
2026-01-30 22:24:05,3179406,8290.000,98.000,7278.000,2541.000,1171.000,940.000,NA,0.000,0
2026-01-30 22:24:05,3179444,6747.000,146.000,3060.000,3760.000,1400.000,1413.000,NA,0.000,0
2026-01-30 22:24:05,3179484,4810.000,3038.000,5346.000,4033.000,341.000,2207.000,NA,0.000,0
2026-01-30 22:24:05,3179524,9480.000,-498.000,-457.000,2585.000,767.000,2812.000,NA,0.000,0
2026-01-30 22:24:05,3179564,5525.000,2021.000,5164.000,1864.000,14.000,1082.000,NA,0.000,0
2026-01-30 22:24:05,3179607,4215.000,2337.000,9253.000,1607.000,392.000,1778.000,NA,0.000,0
2026-01-30 22:24:05,3179644,6739.000,210.000,5443.000,405.000,-43.000,2111.000,NA,0.000,0
2026-01-30 22:24:05,3179684,6878.000,3202.000,3038.000,-298.000,310.000,2331.000,NA,0.000,0
2026-01-30 22:24:05,3179724,5128.000,3721.000,4942.000,-128.000,864.000,1790.000,NA,0.000,0
2026-01-30 22:24:05,3179764,4969.000,2077.000,4830.000,2054.000,894.000,1918.000,NA,0.000,0
2026-01-30 22:24:05,3179804,7369.000,3096.000,4243.000,2346.000,298.000,1832.000,NA,0.000,0
2026-01-30 22:24:05,3179844,5812.000,2109.000,5032.000,1666.000,-280.000,1726.000,NA,0.000,0
2026-01-30 22:24:05,3179884,7551.000,2417.000,5366.000,1023.000,-243.000,2385.000,NA,0.000,0
2026-01-30 22:24:05,3179924,6092.000,2629.000,4059.000,681.000,297.000,2173.000,NA,0.000,0
2026-01-30 22:24:05,3179964,4103.000,-1432.000,9519.000,-622.000,-16.000,2801.000,NA,0.000,0
2026-01-30 22:24:05,3180004,7042.000,1183.000,2661.000,-343.000,63.000,3201.000,NA,0.000,0
2026-01-30 22:24:05,3180044,6028.000,-813.000,5212.000,-250.000,-79.000,3412.000,NA,0.000,0
2026-01-30 22:24:05,3180084,6399.000,1026.000,3609.000,-483.000,-530.000,3651.000,NA,0.000,0
2026-01-30 22:24:05,3180124,6707.000,-552.000,5362.000,-444.000,321.000,2905.000,NA,0.000,0
2026-01-30 22:24:05,3180164,7647.000,-2364.000,5591.000,-1153.000,1067.000,2187.000,NA,0.000,0
2026-01-30 22:24:05,3180204,6422.000,1546.000,3987.000,-598.000,-12.000,1759.000,NA,0.000,0
2026-01-30 22:24:05,3180244,8356.000,528.000,2414.000,-126.000,-542.000,1802.000,NA,0.000,0
2026-01-30 22:24:06,3180284,7815.000,642.000,2094.000,739.000,-241.000,1003.000,NA,0.000,0
2026-01-30 22:24:06,3180324,7608.000,320.000,4215.000,1318.000,-774.000,658.000,NA,0.000,0
2026-01-30 22:24:06,3180364,6614.000,-218.000,2813.000,1973.000,-311.000,261.000,NA,0.000,0
2026-01-30 22:24:06,3180404,8949.000,800.000,3342.000,2199.000,287.000,115.000,NA,0.000,0
2026-01-30 22:24:06,3180444,8431.000,-940.000,7344.000,1549.000,777.000,-547.000,NA,0.000,0
2026-01-30 22:24:06,3180484,6303.000,2047.000,8375.000,1391.000,854.000,-525.000,NA,0.000,0
2026-01-30 22:24:06,3180524,3739.000,-2142.000,7641.000,-499.000,1610.000,94.000,NA,0.000,0
2026-01-30 22:24:06,3180564,5284.000,109.000,6398.000,-1011.000,2303.000,402.000,NA,0.000,0
2026-01-30 22:24:06,3180604,6158.000,1208.000,6420.000,-1361.000,2282.000,-5.000,NA,0.000,0
2026-01-30 22:24:06,3180644,7340.000,16.000,8610.000,-2499.000,2243.000,-363.000,NA,0.000,0
2026-01-30 22:24:06,3180684,6266.000,1611.000,5379.000,-1626.000,1845.000,-681.000,NA,0.000,0
2026-01-30 22:24:06,3180724,5180.000,1647.000,4490.000,-1943.000,249.000,-380.000,NA,0.000,0
2026-01-30 22:24:06,3180764,8195.000,3509.000,4555.000,-1963.000,-787.000,-324.000,NA,0.000,0
2026-01-30 22:24:06,3180804,6281.000,-660.000,5200.000,-1405.000,-716.000,361.000,NA,0.000,0
2026-01-30 22:24:06,3180844,8497.000,482.000,5167.000,-1094.000,-249.000,545.000,NA,0.000,0
2026-01-30 22:24:06,3180884,5259.000,246.000,6624.000,139.000,175.000,363.000,NA,0.000,0
2026-01-30 22:24:06,3180924,5548.000,1663.000,7159.000,247.000,-188.000,1137.000,NA,0.000,0
2026-01-30 22:24:06,3180964,5858.000,-1771.000,6217.000,-839.000,-218.000,1970.000,NA,0.000,0
2026-01-30 22:24:06,3181004,4644.000,-3228.000,8872.000,-1953.000,-424.000,2110.000,NA,0.000,0
2026-01-30 22:24:06,3181044,6484.000,-667.000,5585.000,-2093.000,-482.000,1650.000,NA,0.000,0
2026-01-30 22:24:06,3181084,6702.000,-1206.000,4265.000,-1556.000,231.000,1380.000,NA,0.000,0
2026-01-30 22:24:06,3181124,7022.000,-2422.000,4728.000,-1265.000,726.000,1568.000,NA,0.000,0
2026-01-30 22:24:06,3181164,7440.000,-551.000,3297.000,-1535.000,-13.000,895.000,NA,0.000,0
2026-01-30 22:24:06,3181204,7536.000,-2875.000,1937.000,-814.000,-726.000,538.000,NA,0.000,0
2026-01-30 22:24:06,3181244,6674.000,-2732.000,4260.000,899.000,-1162.000,491.000,NA,0.000,0
2026-01-30 22:24:07,3181284,6208.000,-775.000,3849.000,1413.000,-653.000,-130.000,NA,0.000,0
2026-01-30 22:24:07,3181324,6895.000,-2566.000,6562.000,1756.000,-360.000,-3.000,NA,0.000,0
2026-01-30 22:24:07,3181367,6532.000,-1791.000,6364.000,1509.000,-95.000,-100.000,NA,0.000,0
2026-01-30 22:24:07,3181404,5481.000,-1328.000,6560.000,1092.000,-73.000,-346.000,NA,0.000,0
2026-01-30 22:24:07,3181444,6703.000,-2030.000,7252.000,-390.000,1081.000,-660.000,NA,0.000,0
2026-01-30 22:24:07,3181484,5305.000,-146.000,7568.000,-716.000,793.000,-820.000,NA,0.000,0
2026-01-30 22:24:07,3181524,5917.000,-521.000,5204.000,-2019.000,741.000,-902.000,NA,0.000,0
2026-01-30 22:24:07,3181564,4355.000,-3593.000,8014.000,-2277.000,1421.000,-1171.000,NA,0.000,0
2026-01-30 22:24:07,3181607,5746.000,-3270.000,2270.000,-2079.000,1580.000,-684.000,NA,0.000,0
2026-01-30 22:24:07,3181644,7510.000,-1917.000,3679.000,-1646.000,747.000,-951.000,NA,0.000,0
2026-01-30 22:24:07,3181684,7989.000,-140.000,4020.000,-1877.000,-116.000,-1504.000,NA,0.000,0
2026-01-30 22:24:07,3181724,7100.000,2343.000,3479.000,-1356.000,-529.000,-1876.000,NA,0.000,0
2026-01-30 22:24:07,3181764,5664.000,-1141.000,4394.000,-429.000,-399.000,-1146.000,NA,0.000,0
2026-01-30 22:24:07,3181804,5462.000,-3070.000,4418.000,383.000,-294.000,-237.000,NA,0.000,0
2026-01-30 22:24:07,3181844,6610.000,-1403.000,4089.000,1020.000,-673.000,-188.000,NA,0.000,0
2026-01-30 22:24:07,3181884,6871.000,-554.000,5239.000,918.000,-522.000,-356.000,NA,0.000,0
2026-01-30 22:24:07,3181924,9089.000,945.000,6844.000,561.000,-239.000,-694.000,NA,0.000,0
2026-01-30 22:24:07,3181964,6739.000,-788.000,7274.000,537.000,270.000,-1190.000,NA,0.000,0
2026-01-30 22:24:07,3182004,3975.000,-328.000,5494.000,472.000,-101.000,0.000,NA,0.000,0
2026-01-30 22:24:07,3182044,6314.000,-2272.000,5632.000,-527.000,217.000,634.000,NA,0.000,0
2026-01-30 22:24:07,3182084,5287.000,-1785.000,6390.000,81.000,1121.000,493.000,NA,0.000,0
2026-01-30 22:24:07,3182124,6968.000,626.000,3308.000,498.000,3177.000,237.000,NA,0.000,0
2026-01-30 22:24:07,3182164,3711.000,-731.000,4581.000,2579.000,3670.000,567.000,NA,0.000,0
2026-01-30 22:24:07,3182204,3480.000,-2161.000,6700.000,1975.000,959.000,1753.000,NA,0.000,0
2026-01-30 22:24:07,3182244,5667.000,-2051.000,5342.000,563.000,-1104.000,876.000,NA,0.000,0
2026-01-30 22:24:08,3182284,4034.000,-2407.000,5087.000,706.000,-1854.000,13.000,NA,0.000,0
2026-01-30 22:24:08,3182324,3862.000,-418.000,5725.000,-253.000,-2245.000,-135.000,NA,0.000,0
2026-01-30 22:24:08,3182364,7858.000,-2029.000,8158.000,-1191.000,-1189.000,-787.000,NA,0.000,0
2026-01-30 22:24:08,3182404,4724.000,-2561.000,1879.000,-308.000,-778.000,-1139.000,NA,0.000,0
2026-01-30 22:24:08,3182444,6737.000,-1005.000,7933.000,882.000,-2373.000,832.000,NA,0.000,0
2026-01-30 22:24:08,3182484,3782.000,-578.000,4258.000,638.000,-2711.000,175.000,NA,0.000,0
2026-01-30 22:24:08,3182524,8310.000,-1274.000,-403.000,348.000,-2277.000,574.000,NA,0.000,0
2026-01-30 22:24:08,3182564,9256.000,-448.000,6672.000,2197.000,-254.000,-2741.000,NA,0.000,0
2026-01-30 22:24:08,3182604,11497.000,-4640.000,4798.000,2728.000,205.000,387.000,NA,0.000,0
2026-01-30 22:24:08,3182644,6057.000,-5160.000,10758.000,4425.000,-254.000,-1773.000,NA,0.000,0
2026-01-30 22:24:08,3182684,3865.000,994.000,10716.000,2712.000,-353.000,-190.000,NA,0.000,0
2026-01-30 22:24:08,3182724,5810.000,-1867.000,5895.000,1648.000,151.000,779.000,NA,0.000,0
2026-01-30 22:24:08,3182764,5414.000,-2450.000,7770.000,1156.000,126.000,2075.000,NA,0.000,0
2026-01-30 22:24:08,3182804,7144.000,1616.000,-1386.000,1008.000,311.000,2010.000,NA,0.000,0
2026-01-30 22:24:08,3182844,8028.000,-958.000,5116.000,-1291.000,707.000,1293.000,NA,0.000,0
2026-01-30 22:24:08,3182884,6609.000,837.000,7638.000,-949.000,506.000,-420.000,NA,0.000,0
2026-01-30 22:24:08,3182924,4965.000,-2992.000,7478.000,-854.000,-32.000,285.000,NA,0.000,0
2026-01-30 22:24:08,3182964,6533.000,-1945.000,5237.000,-1834.000,539.000,200.000,NA,0.000,0
2026-01-30 22:24:08,3183004,5616.000,34.000,5784.000,-1074.000,1045.000,210.000,NA,0.000,0
2026-01-30 22:24:08,3183044,5919.000,183.000,3223.000,-1944.000,512.000,-92.000,NA,0.000,0
2026-01-30 22:24:08,3183084,867.000,-7329.000,22633.000,-350.000,2481.000,1580.000,NA,0.000,0
2026-01-30 22:24:08,3183124,6997.000,-9308.000,-2146.000,-4860.000,-803.000,1371.000,NA,0.000,0
2026-01-30 22:24:08,3183164,4894.000,-8236.000,4454.000,5481.000,8857.000,3757.000,NA,0.000,0
2026-01-30 22:24:08,3183204,5275.000,182.000,4423.000,-422.000,668.000,2600.000,NA,0.000,0
2026-01-30 22:24:08,3183244,14697.000,-588.000,8696.000,-809.000,1607.000,1657.000,NA,0.000,0
2026-01-30 22:24:09,3183284,5986.000,3950.000,11128.000,2712.000,-154.000,-512.000,NA,0.000,0
2026-01-30 22:24:09,3183324,6045.000,-1114.000,6746.000,-2889.000,-7219.000,261.000,NA,0.000,0
2026-01-30 22:24:09,3183364,3468.000,-1197.000,3020.000,-5077.000,-5149.000,-2706.000,NA,0.000,0
2026-01-30 22:24:09,3183405,6475.000,-407.000,3302.000,-2792.000,-403.000,-1533.000,NA,0.000,0
2026-01-30 22:24:09,3183444,8930.000,-2309.000,7608.000,-60.000,1324.000,-1087.000,NA,0.000,0
2026-01-30 22:24:09,3183484,3242.000,-667.000,5414.000,843.000,740.000,305.000,NA,0.000,0
2026-01-30 22:24:09,3183524,7500.000,-2569.000,-80.000,3119.000,2384.000,1944.000,NA,0.000,0
2026-01-30 22:24:09,3183564,7723.000,-5902.000,3309.000,3345.000,1695.000,2064.000,NA,0.000,0
2026-01-30 22:24:09,3183607,9105.000,2431.000,2835.000,3546.000,-16.000,-1529.000,NA,0.000,0
2026-01-30 22:24:09,3183644,8092.000,975.000,3462.000,3933.000,-186.000,-1008.000,NA,0.000,0
2026-01-30 22:24:09,3183684,6779.000,-733.000,5574.000,3527.000,-178.000,-928.000,NA,0.000,0
2026-01-30 22:24:09,3183724,3147.000,-250.000,9616.000,3906.000,-520.000,-65.000,NA,0.000,0
2026-01-30 22:24:09,3183764,2240.000,-2486.000,13852.000,1977.000,-43.000,58.000,NA,0.000,0
2026-01-30 22:24:09,3183804,6988.000,-2419.000,11257.000,1327.000,326.000,1790.000,NA,0.000,0
2026-01-30 22:24:09,3183844,5768.000,-775.000,4898.000,-252.000,1511.000,686.000,NA,0.000,0
2026-01-30 22:24:09,3183884,7307.000,973.000,4877.000,-576.000,943.000,1401.000,NA,0.000,0
2026-01-30 22:24:09,3183924,7005.000,-1081.000,7086.000,-1487.000,842.000,676.000,NA,0.000,0
2026-01-30 22:24:09,3183964,5429.000,-867.000,8058.000,-1889.000,801.000,-332.000,NA,0.000,0
2026-01-30 22:24:09,3184004,2144.000,-202.000,7925.000,-1211.000,1381.000,734.000,NA,0.000,0
2026-01-30 22:24:09,3184044,2088.000,639.000,9837.000,-3543.000,602.000,976.000,NA,0.000,0
2026-01-30 22:24:09,3184084,3159.000,1648.000,6796.000,-4406.000,784.000,768.000,NA,0.000,0
2026-01-30 22:24:09,3184124,3534.000,1614.000,7361.000,-4941.000,1431.000,205.000,NA,0.000,0
2026-01-30 22:24:09,3184164,4698.000,147.000,5472.000,-4972.000,1897.000,542.000,NA,0.000,0
2026-01-30 22:24:09,3184204,6305.000,-756.000,6167.000,-3804.000,1289.000,-69.000,NA,0.000,0
2026-01-30 22:24:09,3184244,8346.000,-1929.000,2317.000,-4726.000,698.000,-1345.000,NA,0.000,0
2026-01-30 22:24:10,3184284,6990.000,-4089.000,2659.000,-58.000,458.000,-1569.000,NA,0.000,0
2026-01-30 22:24:10,3184324,6258.000,-4181.000,3180.000,1642.000,-12.000,-1474.000,NA,0.000,0
2026-01-30 22:24:10,3184364,4582.000,-1726.000,5544.000,3225.000,-353.000,-1463.000,NA,0.000,0
2026-01-30 22:24:10,3184404,4462.000,-2535.000,7561.000,1533.000,-775.000,-931.000,NA,0.000,0
2026-01-30 22:24:10,3184444,5038.000,-407.000,8500.000,1579.000,-178.000,-750.000,NA,0.000,0
2026-01-30 22:24:10,3184484,4253.000,-976.000,7848.000,373.000,717.000,-834.000,NA,0.000,0
2026-01-30 22:24:10,3184524,2185.000,-456.000,8289.000,410.000,1025.000,-805.000,NA,0.000,0
2026-01-30 22:24:10,3184564,5140.000,-775.000,9488.000,-1524.000,881.000,-663.000,NA,0.000,0
2026-01-30 22:24:10,3184604,4277.000,-368.000,7842.000,-1658.000,1027.000,-894.000,NA,0.000,0
2026-01-30 22:24:10,3184644,4355.000,-651.000,5661.000,-1535.000,1220.000,-1324.000,NA,0.000,0
2026-01-30 22:24:10,3184684,4909.000,-1844.000,5458.000,-1561.000,595.000,-972.000,NA,0.000,0
2026-01-30 22:24:10,3184724,4060.000,-1960.000,2959.000,-260.000,786.000,-948.000,NA,0.000,0
2026-01-30 22:24:10,3184764,7754.000,-1841.000,6259.000,-689.000,443.000,-1560.000,NA,0.000,0
2026-01-30 22:24:10,3184804,3195.000,-3146.000,6266.000,184.000,895.000,-1406.000,NA,0.000,0
2026-01-30 22:24:10,3184844,3598.000,-1660.000,6376.000,-14.000,48.000,-1368.000,NA,0.000,0
2026-01-30 22:24:10,3184884,4891.000,-684.000,7547.000,-254.000,-199.000,-939.000,NA,0.000,0
2026-01-30 22:24:10,3184924,2087.000,265.000,7724.000,41.000,508.000,-1293.000,NA,0.000,0
2026-01-30 22:24:10,3184964,6725.000,-1424.000,7825.000,-1330.000,-153.000,-539.000,NA,0.000,0
