datetime_local,uptime_ms,acc_x,acc_y,acc_z,gyro_x,gyro_y,gyro_z,speed_mps,turn_rate_deg_s,gps_valid
2026-01-31 13:05:30,5606134,66.000,1036.000,11211.000,65.000,951.000,1067.000,0.000,0.000,0
2026-01-31 13:05:30,5606174,1603.000,-617.000,10997.000,945.000,1.000,2228.000,0.000,0.000,0
2026-01-31 13:05:30,5606217,799.000,601.000,11738.000,1116.000,-287.000,751.000,0.000,0.000,0
2026-01-31 13:05:30,5606254,-65.000,-900.000,10690.000,405.000,-534.000,-39.000,0.000,0.000,0
2026-01-31 13:05:30,5606305,-291.000,-1790.000,8003.000,1408.000,-710.000,-986.000,0.000,0.000,0
2026-01-31 13:05:30,5606334,-69.000,-1121.000,6230.000,441.000,-271.000,-979.000,0.000,0.000,0
2026-01-31 13:05:30,5606375,13.000,-577.000,6174.000,-869.000,65.000,6.000,0.000,0.000,0
2026-01-31 13:05:31,5606414,117.000,-642.000,6767.000,-817.000,88.000,242.000,0.000,0.000,0
2026-01-31 13:05:31,5606454,85.000,271.000,7415.000,-545.000,26.000,110.000,0.000,0.000,0
2026-01-31 13:05:31,5606494,126.000,-287.000,7618.000,-1596.000,-362.000,-128.000,0.000,0.000,0
2026-01-31 13:05:31,5606534,420.000,-548.000,8094.000,-526.000,-847.000,344.000,0.000,0.000,0
2026-01-31 13:05:31,5606574,149.000,-547.000,7649.000,-2347.000,-867.000,-753.000,0.000,0.000,0
2026-01-31 13:05:31,5606614,-455.000,-1784.000,7133.000,-4668.000,-1093.000,-1695.000,0.000,0.000,0
2026-01-31 13:05:31,5606654,353.000,-2129.000,6860.000,-3061.000,-1046.000,-2768.000,0.000,0.000,0
2026-01-31 13:05:31,5606694,340.000,-1789.000,6662.000,-2365.000,-281.000,-2940.000,0.000,0.000,0
2026-01-31 13:05:31,5606734,1137.000,-2927.000,7610.000,-2055.000,-332.000,-2830.000,0.000,0.000,0
2026-01-31 13:05:31,5606774,4018.000,-2732.000,8685.000,-836.000,-317.000,-2283.000,0.000,0.000,0
2026-01-31 13:05:31,5606814,4151.000,-4460.000,9470.000,-1535.000,-211.000,-637.000,0.000,0.000,0
2026-01-31 13:05:31,5606854,4438.000,-522.000,12825.000,823.000,55.000,-232.000,0.000,0.000,0
2026-01-31 13:05:31,5606894,4007.000,-2461.000,10791.000,1019.000,999.000,-533.000,0.000,0.000,0
2026-01-31 13:05:31,5606934,2402.000,-2585.000,8960.000,1894.000,788.000,-1475.000,0.000,0.000,0
2026-01-31 13:05:31,5606974,1482.000,-3078.000,8443.000,327.000,592.000,-1308.000,0.000,0.000,0
2026-01-31 13:05:31,5607014,1793.000,-2457.000,7156.000,-449.000,378.000,-810.000,0.000,0.000,0
2026-01-31 13:05:31,5607054,1670.000,-1574.000,6131.000,-1055.000,271.000,-600.000,0.000,0.000,0
2026-01-31 13:05:31,5607094,1946.000,-1100.000,6297.000,590.000,162.000,-269.000,0.000,0.000,0
2026-01-31 13:05:31,5607134,2634.000,-833.000,6201.000,589.000,196.000,83.000,0.000,0.000,0
2026-01-31 13:05:31,5607174,1817.000,-1361.000,6718.000,-571.000,90.000,-170.000,0.000,0.000,0
2026-01-31 13:05:31,5607214,1718.000,-2065.000,7597.000,-367.000,-125.000,-310.000,0.000,0.000,0
2026-01-31 13:05:31,5607254,1707.000,-2839.000,7793.000,-88.000,255.000,-291.000,0.000,0.000,0
2026-01-31 13:05:31,5607294,1485.000,-2763.000,7229.000,-562.000,580.000,-339.000,0.000,0.000,0
2026-01-31 13:05:31,5607334,1637.000,-2578.000,6880.000,-401.000,449.000,-249.000,0.000,0.000,0
2026-01-31 13:05:31,5607374,2514.000,-1412.000,7488.000,361.000,362.000,89.000,0.000,0.000,0
2026-01-31 13:05:32,5607414,2274.000,-1954.000,7424.000,-598.000,568.000,603.000,0.000,0.000,0
2026-01-31 13:05:32,5607454,1582.000,-2111.000,7225.000,-430.000,417.000,600.000,0.000,0.000,0
2026-01-31 13:05:32,5607494,1269.000,-1474.000,9357.000,-808.000,-288.000,941.000,0.000,0.000,0
2026-01-31 13:05:32,5607534,1521.000,-2546.000,9566.000,-75.000,-908.000,968.000,0.000,0.000,0
2026-01-31 13:05:32,5607574,1596.000,-1615.000,12013.000,1256.000,-1101.000,686.000,0.000,0.000,0
2026-01-31 13:05:32,5607614,985.000,-1835.000,11971.000,562.000,-1367.000,114.000,0.000,0.000,0
2026-01-31 13:05:32,5607654,1429.000,-3235.000,11418.000,876.000,-1305.000,-87.000,0.000,0.000,0
2026-01-31 13:05:32,5607694,1455.000,-3255.000,9385.000,920.000,-313.000,38.000,0.000,0.000,0
2026-01-31 13:05:32,5607734,834.000,-3171.000,6401.000,106.000,-47.000,212.000,0.000,0.000,0
2026-01-31 13:05:32,5607774,257.000,-1654.000,5622.000,-95.000,-62.000,380.000,0.000,0.000,0
2026-01-31 13:05:32,5607814,279.000,-1572.000,5617.000,-570.000,-286.000,224.000,0.000,0.000,0
2026-01-31 13:05:32,5607856,973.000,-1345.000,5631.000,-516.000,-658.000,583.000,0.000,0.000,0
2026-01-31 13:05:32,5607895,1002.000,-2016.000,5509.000,493.000,-635.000,1091.000,0.000,0.000,0
2026-01-31 13:05:32,5607934,1898.000,-3086.000,4759.000,2776.000,-721.000,1514.000,0.000,0.000,0
2026-01-31 13:05:32,5607974,2552.000,-3684.000,3410.000,6843.000,-559.000,2528.000,0.000,0.000,0
2026-01-31 13:05:32,5608014,2635.000,-1736.000,4809.000,10872.000,-596.000,3611.000,0.000,0.000,0
2026-01-31 13:05:32,5608054,3197.000,1512.000,7178.000,11678.000,-569.000,4833.000,0.000,0.000,0
2026-01-31 13:05:32,5608094,4429.000,2303.000,8315.000,10541.000,-385.000,5927.000,0.000,0.000,0
2026-01-31 13:05:32,5608135,5780.000,6616.000,10071.000,16376.000,194.000,6920.000,0.000,0.000,0
2026-01-31 13:05:32,5608174,6503.000,11737.000,10555.000,18366.000,2042.000,5872.000,0.000,0.000,0
2026-01-31 13:05:32,5608214,1502.000,9688.000,10089.000,13318.000,2844.000,3388.000,0.000,0.000,0
2026-01-31 13:05:32,5608254,1772.000,4879.000,6548.000,5983.000,740.000,223.000,0.000,0.000,0
2026-01-31 13:05:32,5608294,-141.000,4406.000,6199.000,1972.000,729.000,-2517.000,0.000,0.000,0
2026-01-31 13:05:32,5608334,745.000,3727.000,5487.000,-275.000,-213.000,-1820.000,0.000,0.000,0
2026-01-31 13:05:32,5608374,1643.000,3123.000,5148.000,-1826.000,-904.000,-1843.000,0.000,0.000,0
2026-01-31 13:05:33,5608414,2134.000,4043.000,5179.000,-1368.000,-1368.000,-1604.000,0.000,0.000,0
2026-01-31 13:05:33,5608454,2844.000,4309.000,5055.000,-634.000,-678.000,460.000,0.000,0.000,0
2026-01-31 13:05:33,5608494,1639.000,5261.000,5147.000,-20.000,216.000,203.000,0.000,0.000,0
2026-01-31 13:05:33,5608534,1179.000,4832.000,5200.000,-2354.000,442.000,-1230.000,0.000,0.000,0
2026-01-31 13:05:33,5608574,1095.000,3254.000,4858.000,-3456.000,628.000,-2232.000,0.000,0.000,0
2026-01-31 13:05:33,5608614,1651.000,4389.000,6056.000,-3913.000,889.000,-3689.000,0.000,0.000,0
2026-01-31 13:05:33,5608654,1416.000,5027.000,7043.000,-5625.000,1569.000,-1510.000,0.000,0.000,0
2026-01-31 13:05:33,5608694,4548.000,2939.000,5599.000,-5295.000,971.000,855.000,0.000,0.000,0
2026-01-31 13:05:33,5608734,1428.000,6423.000,9212.000,1152.000,2553.000,490.000,0.000,0.000,0
2026-01-31 13:05:33,5608774,1541.000,10022.000,11372.000,2255.000,-1057.000,4108.000,0.000,0.000,0
2026-01-31 13:05:33,5608814,3064.000,6467.000,9296.000,-237.000,-2148.000,4041.000,0.000,0.000,0
2026-01-31 13:05:33,5608854,515.000,3782.000,8988.000,1612.000,624.000,1592.000,0.000,0.000,0
2026-01-31 13:05:33,5608894,-1060.000,886.000,6680.000,-1538.000,585.000,742.000,0.000,0.000,0
2026-01-31 13:05:33,5608934,294.000,2541.000,5875.000,-1617.000,-1303.000,45.000,0.000,0.000,0
2026-01-31 13:05:33,5608974,365.000,2288.000,4884.000,-3633.000,150.000,-52.000,0.000,0.000,0
2026-01-31 13:05:33,5609014,-78.000,2568.000,4884.000,-2972.000,348.000,-257.000,0.000,0.000,0
2026-01-31 13:05:33,5609054,-1931.000,4498.000,6206.000,-3688.000,-1367.000,-855.000,0.000,0.000,0
2026-01-31 13:05:33,5609094,6100.000,3742.000,6769.000,-8009.000,-2884.000,-1304.000,0.000,0.000,0
2026-01-31 13:05:33,5609134,1409.000,1844.000,8634.000,-4296.000,-485.000,-744.000,0.000,0.000,0
2026-01-31 13:05:33,5609174,3313.000,4443.000,10420.000,957.000,-672.000,296.000,0.000,0.000,0
2026-01-31 13:05:33,5609214,5816.000,7463.000,13733.000,2295.000,1195.000,2967.000,0.000,0.000,0
2026-01-31 13:05:33,5609254,1925.000,2388.000,11172.000,6950.000,3396.000,2220.000,0.000,0.000,0
2026-01-31 13:05:33,5609294,780.000,1627.000,9227.000,2455.000,826.000,-1727.000,0.000,0.000,0
2026-01-31 13:05:33,5609334,991.000,1473.000,6694.000,-4402.000,45.000,-2845.000,0.000,0.000,0
2026-01-31 13:05:33,5609374,940.000,110.000,3878.000,-4182.000,172.000,-1650.000,0.000,0.000,0
2026-01-31 13:05:34,5609414,1791.000,717.000,3813.000,8.000,-31.000,-398.000,0.000,0.000,0
2026-01-31 13:05:34,5609454,1511.000,1217.000,4627.000,615.000,892.000,-873.000,0.000,0.000,0
2026-01-31 13:05:34,5609494,1095.000,1112.000,5220.000,-29.000,-22.000,-1162.000,0.000,0.000,0
2026-01-31 13:05:34,5609534,973.000,2254.000,7418.000,-130.000,105.000,-2092.000,0.000,0.000,0
2026-01-31 13:05:34,5609574,600.000,2718.000,6960.000,-1363.000,213.000,-2272.000,0.000,0.000,0
2026-01-31 13:05:34,5609614,1269.000,2398.000,7611.000,-2991.000,-991.000,-2207.000,0.000,0.000,0
2026-01-31 13:05:34,5609654,1867.000,2221.000,8936.000,-1489.000,-982.000,-1833.000,0.000,0.000,0
2026-01-31 13:05:34,5609694,2458.000,5853.000,12933.000,3192.000,-2045.000,-235.000,0.000,0.000,0
2026-01-31 13:05:34,5609734,2710.000,5529.000,14403.000,4678.000,-891.000,1841.000,0.000,0.000,0
2026-01-31 13:05:34,5609774,947.000,3082.000,10383.000,3969.000,190.000,871.000,0.000,0.000,0
2026-01-31 13:05:34,5609814,141.000,490.000,6112.000,-2004.000,-88.000,1642.000,0.000,0.000,0
2026-01-31 13:05:34,5609856,424.000,734.000,4847.000,314.000,-452.000,1840.000,0.000,0.000,0
2026-01-31 13:05:34,5609896,411.000,2257.000,4248.000,2503.000,-404.000,1746.000,0.000,0.000,0
2026-01-31 13:05:34,5609934,693.000,2621.000,4197.000,480.000,-519.000,1338.000,0.000,0.000,0
2026-01-31 13:05:34,5609974,1040.000,1979.000,5256.000,-1288.000,-766.000,1981.000,0.000,0.000,0
2026-01-31 13:05:34,5610014,1427.000,3150.000,5157.000,-25.000,-912.000,1658.000,0.000,0.000,0
2026-01-31 13:05:34,5610054,2338.000,4556.000,5791.000,542.000,314.000,1570.000,0.000,0.000,0
2026-01-31 13:05:34,5610094,2139.000,3390.000,8140.000,2458.000,1113.000,2198.000,0.000,0.000,0
2026-01-31 13:05:34,5610134,3522.000,5191.000,13384.000,6240.000,-656.000,2930.000,0.000,0.000,0
2026-01-31 13:05:34,5610174,5751.000,6654.000,12520.000,5259.000,1239.000,-617.000,0.000,0.000,0
2026-01-31 13:05:34,5610214,1867.000,3419.000,8748.000,-341.000,3520.000,-161.000,0.000,0.000,0
2026-01-31 13:05:34,5610254,581.000,1614.000,5671.000,-2184.000,2263.000,-1405.000,0.000,0.000,0
2026-01-31 13:05:34,5610294,1210.000,919.000,4718.000,-2124.000,753.000,-1208.000,0.000,0.000,0
2026-01-31 13:05:34,5610334,2021.000,1411.000,4586.000,-1378.000,-391.000,129.000,0.000,0.000,0
2026-01-31 13:05:34,5610374,2124.000,1532.000,4135.000,-312.000,-283.000,550.000,0.000,0.000,0
2026-01-31 13:05:35,5610414,1934.000,1477.000,4306.000,554.000,74.000,-706.000,0.000,0.000,0
2026-01-31 13:05:35,5610454,890.000,2627.000,5059.000,1407.000,45.000,-966.000,0.000,0.000,0
2026-01-31 13:05:35,5610494,526.000,2701.000,5042.000,1462.000,349.000,-1417.000,0.000,0.000,0
2026-01-31 13:05:35,5610534,1530.000,4867.000,7230.000,1896.000,630.000,-1155.000,0.000,0.000,0
2026-01-31 13:05:35,5610574,1864.000,5869.000,8360.000,3503.000,-15.000,374.000,0.000,0.000,0
2026-01-31 13:05:35,5610614,2216.000,11308.000,11794.000,5674.000,-1905.000,2028.000,0.000,0.000,0
2026-01-31 13:05:35,5610654,1522.000,8836.000,11749.000,3877.000,-1647.000,695.000,0.000,0.000,0
2026-01-31 13:05:35,5610694,1822.000,7927.000,11208.000,427.000,-297.000,-1884.000,0.000,0.000,0
2026-01-31 13:05:35,5610734,33.000,2534.000,6698.000,-6334.000,-536.000,-1349.000,0.000,0.000,0
2026-01-31 13:05:35,5610774,471.000,79.000,3779.000,-5891.000,-1357.000,-2314.000,0.000,0.000,0
2026-01-31 13:05:35,5610814,53.000,67.000,3175.000,-3744.000,-2108.000,-2572.000,0.000,0.000,0
2026-01-31 13:05:35,5610854,1034.000,1250.000,3140.000,-1414.000,-2912.000,-876.000,0.000,0.000,0
2026-01-31 13:05:35,5610894,2040.000,2963.000,3763.000,-642.000,-1989.000,1146.000,0.000,0.000,0
2026-01-31 13:05:35,5610934,2755.000,3184.000,5223.000,-1408.000,-243.000,3189.000,0.000,0.000,0
2026-01-31 13:05:35,5610974,5428.000,5402.000,6905.000,-2122.000,1427.000,6161.000,0.000,0.000,0
2026-01-31 13:05:35,5611014,5860.000,3567.000,7713.000,916.000,2402.000,5901.000,0.000,0.000,0
2026-01-31 13:05:35,5611054,4621.000,3845.000,7616.000,7287.000,2678.000,5872.000,0.000,0.000,0
2026-01-31 13:05:35,5611094,2880.000,6338.000,8713.000,9094.000,2137.000,5125.000,0.000,0.000,0
2026-01-31 13:05:35,5611134,857.000,4094.000,9450.000,4294.000,2400.000,4117.000,0.000,0.000,0
2026-01-31 13:05:35,5611174,-722.000,4338.000,8535.000,2094.000,2835.000,2164.000,0.000,0.000,0
2026-01-31 13:05:35,5611214,-967.000,4157.000,8473.000,-6191.000,2786.000,1669.000,0.000,0.000,0
2026-01-31 13:05:35,5611254,-62.000,509.000,6082.000,-9557.000,1905.000,1842.000,0.000,0.000,0
2026-01-31 13:05:35,5611294,159.000,-1089.000,5684.000,-5715.000,1334.000,1476.000,0.000,0.000,0
2026-01-31 13:05:35,5611334,1334.000,716.000,7954.000,-2432.000,965.000,-188.000,0.000,0.000,0
2026-01-31 13:05:35,5611374,644.000,1331.000,8809.000,-738.000,1082.000,-84.000,0.000,0.000,0
2026-01-31 13:05:36,5611414,3400.000,6862.000,16362.000,-2832.000,-1302.000,229.000,0.000,0.000,0
2026-01-31 13:05:36,5611454,5336.000,4742.000,14080.000,-3666.000,-1017.000,-120.000,0.000,0.000,0
2026-01-31 13:05:36,5611494,5168.000,5504.000,13166.000,-1079.000,-82.000,-1824.000,0.000,0.000,0
2026-01-31 13:05:36,5611534,3977.000,4679.000,11075.000,-641.000,55.000,-2545.000,0.000,0.000,0
2026-01-31 13:05:36,5611574,2601.000,3348.000,7481.000,401.000,653.000,-2008.000,0.000,0.000,0
2026-01-31 13:05:36,5611614,1673.000,2068.000,4823.000,1401.000,659.000,-2378.000,0.000,0.000,0
2026-01-31 13:05:36,5611654,997.000,998.000,2913.000,2920.000,530.000,-2141.000,0.000,0.000,0
2026-01-31 13:05:36,5611694,307.000,943.000,2511.000,4578.000,126.000,-1761.000,0.000,0.000,0
2026-01-31 13:05:36,5611734,904.000,2696.000,4100.000,3548.000,-594.000,-979.000,0.000,0.000,0
2026-01-31 13:05:36,5611774,1681.000,3091.000,5354.000,2072.000,-1561.000,700.000,0.000,0.000,0
2026-01-31 13:05:36,5611814,3414.000,6495.000,8585.000,2316.000,-1498.000,2130.000,0.000,0.000,0
2026-01-31 13:05:36,5611856,3853.000,5222.000,8438.000,54.000,-243.000,2855.000,0.000,0.000,0
2026-01-31 13:05:36,5611895,3183.000,3504.000,8207.000,4189.000,619.000,3395.000,0.000,0.000,0
2026-01-31 13:05:36,5611934,2591.000,4465.000,9480.000,7866.000,339.000,4013.000,0.000,0.000,0
2026-01-31 13:05:36,5611974,3316.000,5198.000,12226.000,4283.000,-671.000,3239.000,0.000,0.000,0
2026-01-31 13:05:36,5612014,3527.000,5410.000,8820.000,-1505.000,-1113.000,1816.000,0.000,0.000,0
2026-01-31 13:05:36,5612054,3758.000,3862.000,5824.000,-4590.000,-1619.000,-297.000,0.000,0.000,0
2026-01-31 13:05:36,5612094,4228.000,3300.000,4196.000,-2731.000,-925.000,-595.000,0.000,0.000,0
2026-01-31 13:05:36,5612136,3794.000,3950.000,3858.000,2642.000,863.000,473.000,0.000,0.000,0
2026-01-31 13:05:36,5612174,2940.000,3138.000,3298.000,3066.000,820.000,544.000,0.000,0.000,0
2026-01-31 13:05:36,5612214,2519.000,2654.000,3513.000,4025.000,441.000,495.000,0.000,0.000,0
2026-01-31 13:05:36,5612254,2235.000,1875.000,3674.000,5601.000,82.000,765.000,0.000,0.000,0
2026-01-31 13:05:36,5612294,2515.000,3839.000,4129.000,9122.000,-423.000,476.000,0.000,0.000,0
2026-01-31 13:05:36,5612334,1893.000,5611.000,5071.000,6628.000,-587.000,-697.000,0.000,0.000,0
2026-01-31 13:05:36,5612374,1485.000,4483.000,6067.000,1480.000,-1028.000,-1657.000,0.000,0.000,0
2026-01-31 13:05:37,5612414,1369.000,3639.000,6104.000,-454.000,-758.000,-2221.000,0.000,0.000,0
2026-01-31 13:05:37,5612454,1068.000,3341.000,5339.000,-1378.000,-287.000,-2973.000,0.000,0.000,0
2026-01-31 13:05:37,5612494,1132.000,4240.000,2920.000,-393.000,-1067.000,-3556.000,0.000,0.000,0
2026-01-31 13:05:37,5612534,2043.000,6557.000,2935.000,1036.000,-2248.000,-3976.000,0.000,0.000,0
2026-01-31 13:05:37,5612574,3963.000,10973.000,4934.000,-496.000,-4080.000,-3370.000,0.000,0.000,0
2026-01-31 13:05:37,5612614,8226.000,16168.000,8065.000,-3516.000,-5435.000,-426.000,0.000,0.000,0
2026-01-31 13:05:37,5612654,7301.000,13068.000,7433.000,-7182.000,-2162.000,-219.000,0.000,0.000,0
2026-01-31 13:05:37,5612694,4196.000,5133.000,5806.000,-1740.000,278.000,-680.000,0.000,0.000,0
2026-01-31 13:05:37,5612734,2576.000,4907.000,5759.000,2017.000,1105.000,951.000,0.000,0.000,0
2026-01-31 13:05:37,5612774,848.000,3434.000,5162.000,-88.000,2314.000,2207.000,0.000,0.000,0
2026-01-31 13:05:37,5612814,327.000,2116.000,3218.000,1426.000,1956.000,2028.000,0.000,0.000,0
2026-01-31 13:05:37,5612854,-518.000,2816.000,2149.000,2072.000,1500.000,2186.000,0.000,0.000,0
2026-01-31 13:05:37,5612894,-460.000,2374.000,2144.000,1130.000,875.000,2057.000,0.000,0.000,0
2026-01-31 13:05:37,5612934,2243.000,6971.000,4402.000,-2346.000,-798.000,2594.000,0.000,0.000,0
2026-01-31 13:05:37,5612974,2146.000,4943.000,4163.000,-8801.000,385.000,2498.000,0.000,0.000,0
2026-01-31 13:05:37,5613014,2264.000,2740.000,4324.000,-8240.000,-5.000,3177.000,0.000,0.000,0
2026-01-31 13:05:37,5613054,4839.000,5984.000,7763.000,-6170.000,-1312.000,4062.000,0.000,0.000,0
2026-01-31 13:05:37,5613094,7037.000,4498.000,9055.000,-5099.000,-2812.000,5384.000,0.000,0.000,0
2026-01-31 13:05:37,5613134,8506.000,1714.000,8423.000,-1415.000,-3761.000,4867.000,0.000,0.000,0
2026-01-31 13:05:37,5613174,8034.000,264.000,7737.000,5057.000,-4095.000,1272.000,0.000,0.000,0
2026-01-31 13:05:37,5613214,6169.000,2919.000,6326.000,9381.000,-2933.000,403.000,0.000,0.000,0
2026-01-31 13:05:37,5613254,4199.000,4650.000,4481.000,7719.000,-1906.000,1047.000,0.000,0.000,0
2026-01-31 13:05:37,5613294,2307.000,2043.000,2895.000,-1483.000,-1025.000,138.000,0.000,0.000,0
2026-01-31 13:05:37,5613334,2375.000,943.000,2635.000,-1605.000,-1711.000,61.000,0.000,0.000,0
2026-01-31 13:05:37,5613374,3804.000,1668.000,2706.000,-178.000,-2337.000,67.000,0.000,0.000,0
2026-01-31 13:05:38,5613414,3930.000,3496.000,3264.000,-57.000,-1642.000,-13.000,0.000,0.000,0
2026-01-31 13:05:38,5613454,5739.000,3808.000,3861.000,-1833.000,-1079.000,386.000,0.000,0.000,0
2026-01-31 13:05:38,5613494,7038.000,3207.000,2998.000,1444.000,-700.000,-455.000,0.000,0.000,0
2026-01-31 13:05:38,5613534,12851.000,7964.000,4188.000,7114.000,-2753.000,448.000,0.000,0.000,0
2026-01-31 13:05:38,5613574,14613.000,11104.000,7769.000,6643.000,-1444.000,2792.000,0.000,0.000,0
2026-01-31 13:05:38,5613614,11786.000,8882.000,6647.000,3350.000,565.000,1518.000,0.000,0.000,0
2026-01-31 13:05:38,5613654,6355.000,4131.000,7332.000,3277.000,1896.000,1719.000,0.000,0.000,0
2026-01-31 13:05:38,5613694,3817.000,3084.000,4722.000,1610.000,843.000,-780.000,0.000,0.000,0
2026-01-31 13:05:38,5613734,2537.000,2219.000,1420.000,328.000,-16.000,-1854.000,0.000,0.000,0
2026-01-31 13:05:38,5613774,1820.000,2488.000,314.000,452.000,-724.000,-363.000,0.000,0.000,0
2026-01-31 13:05:38,5613814,2393.000,1951.000,453.000,-1233.000,-537.000,1632.000,0.000,0.000,0
2026-01-31 13:05:38,5613856,3819.000,3765.000,1504.000,-898.000,454.000,2795.000,0.000,0.000,0
2026-01-31 13:05:38,5613894,4973.000,3945.000,1877.000,-290.000,1902.000,2839.000,0.000,0.000,0
2026-01-31 13:05:38,5613935,5873.000,4374.000,2798.000,455.000,2766.000,1012.000,0.000,0.000,0
2026-01-31 13:05:38,5613974,6568.000,5483.000,3921.000,2016.000,3218.000,497.000,0.000,0.000,0
2026-01-31 13:05:38,5614014,7735.000,5551.000,4960.000,1527.000,2463.000,35.000,0.000,0.000,0
2026-01-31 13:05:38,5614054,10801.000,6933.000,7511.000,1319.000,1312.000,922.000,0.000,0.000,0
2026-01-31 13:05:38,5614094,10459.000,3305.000,8447.000,-2919.000,-26.000,206.000,0.000,0.000,0
2026-01-31 13:05:38,5614134,7662.000,1181.000,6442.000,-2625.000,1517.000,-1996.000,0.000,0.000,0
2026-01-31 13:05:38,5614174,4882.000,1268.000,3141.000,-365.000,1882.000,-1364.000,0.000,0.000,0
2026-01-31 13:05:38,5614214,3090.000,1135.000,1681.000,816.000,1326.000,-350.000,0.000,0.000,0
2026-01-31 13:05:38,5614254,2636.000,1108.000,1436.000,1648.000,-359.000,-420.000,0.000,0.000,0
2026-01-31 13:05:38,5614294,2430.000,1476.000,1703.000,2493.000,-1584.000,-149.000,0.000,0.000,0
2026-01-31 13:05:38,5614334,3823.000,3149.000,2616.000,1572.000,-2559.000,180.000,0.000,0.000,0
2026-01-31 13:05:38,5614374,4584.000,3231.000,3729.000,-812.000,-1498.000,396.000,0.000,0.000,0
2026-01-31 13:05:39,5614414,5233.000,2651.000,4109.000,-1687.000,-700.000,-293.000,0.000,0.000,0
2026-01-31 13:05:39,5614454,4383.000,2978.000,4302.000,944.000,212.000,-1693.000,0.000,0.000,0
2026-01-31 13:05:39,5614494,6225.000,4119.000,5010.000,-602.000,111.000,-1253.000,0.000,0.000,0
2026-01-31 13:05:39,5614534,8499.000,5884.000,4247.000,-148.000,256.000,-799.000,0.000,0.000,0
2026-01-31 13:05:39,5614574,10790.000,6435.000,5107.000,62.000,-836.000,-181.000,0.000,0.000,0
2026-01-31 13:05:39,5614614,12718.000,9179.000,6172.000,1529.000,-1128.000,774.000,0.000,0.000,0
2026-01-31 13:05:39,5614654,9931.000,7934.000,6347.000,2152.000,-250.000,-15.000,0.000,0.000,0
2026-01-31 13:05:39,5614694,6891.000,5371.000,5927.000,1168.000,274.000,-52.000,0.000,0.000,0
2026-01-31 13:05:39,5614734,3978.000,4586.000,4128.000,211.000,753.000,-416.000,0.000,0.000,0
2026-01-31 13:05:39,5614774,2751.000,3835.000,2435.000,-2826.000,201.000,-1237.000,0.000,0.000,0
2026-01-31 13:05:39,5614814,1967.000,2605.000,1146.000,-3816.000,55.000,-783.000,0.000,0.000,0
2026-01-31 13:05:39,5614854,1852.000,2086.000,1160.000,-3734.000,203.000,113.000,0.000,0.000,0
2026-01-31 13:05:39,5614894,2631.000,1353.000,1359.000,-3560.000,474.000,384.000,0.000,0.000,0
2026-01-31 13:05:39,5614934,3757.000,1870.000,2373.000,-2258.000,1121.000,1113.000,0.000,0.000,0
2026-01-31 13:05:39,5614974,5982.000,3816.000,3708.000,-2820.000,812.000,1708.000,0.000,0.000,0
2026-01-31 13:05:39,5615014,7937.000,3646.000,5573.000,-3681.000,574.000,824.000,0.000,0.000,0
2026-01-31 13:05:39,5615054,10654.000,3382.000,6383.000,-2562.000,-786.000,7.000,0.000,0.000,0
2026-01-31 13:05:39,5615094,13563.000,6207.000,9023.000,732.000,-1269.000,2120.000,0.000,0.000,0
2026-01-31 13:05:39,5615134,11311.000,4291.000,8326.000,2076.000,696.000,1225.000,0.000,0.000,0
2026-01-31 13:05:39,5615174,7263.000,1620.000,6459.000,2498.000,1254.000,-661.000,0.000,0.000,0
2026-01-31 13:05:39,5615214,3385.000,1547.000,4841.000,4484.000,1940.000,-1175.000,0.000,0.000,0
2026-01-31 13:05:39,5615254,1996.000,2022.000,3624.000,3086.000,1767.000,-725.000,0.000,0.000,0
2026-01-31 13:05:39,5615294,1705.000,1393.000,2591.000,1135.000,811.000,-1107.000,0.000,0.000,0
2026-01-31 13:05:39,5615334,1807.000,1274.000,2413.000,277.000,-180.000,-1595.000,0.000,0.000,0
2026-01-31 13:05:39,5615374,3335.000,2606.000,3035.000,-485.000,-1085.000,-1677.000,0.000,0.000,0
2026-01-31 13:05:40,5615414,4647.000,3780.000,3523.000,-2277.000,-421.000,-1241.000,0.000,0.000,0
2026-01-31 13:05:40,5615454,4521.000,3117.000,3413.000,-3342.000,228.000,-1073.000,0.000,0.000,0
2026-01-31 13:05:40,5615494,5347.000,2834.000,4459.000,-2492.000,293.000,-813.000,0.000,0.000,0
2026-01-31 13:05:40,5615534,6404.000,3530.000,5567.000,504.000,699.000,-114.000,0.000,0.000,0
2026-01-31 13:05:40,5615574,7822.000,5325.000,6545.000,1637.000,162.000,-35.000,0.000,0.000,0
2026-01-31 13:05:40,5615614,11331.000,8526.000,8076.000,-303.000,-1397.000,1946.000,0.000,0.000,0
2026-01-31 13:05:40,5615654,9924.000,7036.000,7487.000,-1843.000,-613.000,1903.000,0.000,0.000,0
2026-01-31 13:05:40,5615694,7805.000,4644.000,6551.000,-1387.000,-1083.000,2007.000,0.000,0.000,0
2026-01-31 13:05:40,5615734,4355.000,2960.000,5352.000,1386.000,-602.000,683.000,0.000,0.000,0
2026-01-31 13:05:40,5615774,2351.000,1937.000,3614.000,3477.000,-1010.000,-643.000,0.000,0.000,0
2026-01-31 13:05:40,5615814,1832.000,2654.000,3256.000,3730.000,-1617.000,-1063.000,0.000,0.000,0
2026-01-31 13:05:40,5615856,1859.000,3510.000,3274.000,1616.000,-1265.000,-852.000,0.000,0.000,0
2026-01-31 13:05:40,5615895,2803.000,3820.000,3011.000,-1257.000,-569.000,46.000,0.000,0.000,0
2026-01-31 13:05:40,5615934,3270.000,3440.000,2682.000,-3054.000,180.000,681.000,0.000,0.000,0
2026-01-31 13:05:40,5615974,5541.000,4418.000,4313.000,-3671.000,201.000,657.000,0.000,0.000,0
2026-01-31 13:05:40,5616014,5711.000,3408.000,5105.000,-2393.000,1697.000,352.000,0.000,0.000,0
2026-01-31 13:05:40,5616054,6805.000,4033.000,5703.000,-390.000,1562.000,-425.000,0.000,0.000,0
2026-01-31 13:05:40,5616094,7637.000,4911.000,6349.000,643.000,836.000,-589.000,0.000,0.000,0
2026-01-31 13:05:40,5616136,9898.000,6605.000,7296.000,1092.000,-169.000,644.000,0.000,0.000,0
2026-01-31 13:05:40,5616174,9568.000,5383.000,7790.000,-288.000,758.000,823.000,0.000,0.000,0
2026-01-31 13:05:40,5616214,6455.000,1411.000,5290.000,-183.000,1104.000,-1725.000,0.000,0.000,0
2026-01-31 13:05:40,5616254,4161.000,824.000,4725.000,3242.000,639.000,-2335.000,0.000,0.000,0
2026-01-31 13:05:40,5616294,2928.000,1695.000,4400.000,4235.000,770.000,-1882.000,0.000,0.000,0
2026-01-31 13:05:40,5616334,1953.000,1616.000,3687.000,2568.000,655.000,-1520.000,0.000,0.000,0
2026-01-31 13:05:40,5616374,2030.000,1753.000,3214.000,1747.000,348.000,-1680.000,0.000,0.000,0
2026-01-31 13:05:41,5616414,3608.000,4037.000,3743.000,-801.000,-1310.000,-2206.000,0.000,0.000,0
2026-01-31 13:05:41,5616454,4240.000,4601.000,3893.000,-3830.000,-212.000,-1982.000,0.000,0.000,0
2026-01-31 13:05:41,5616494,4181.000,3328.000,3355.000,-3627.000,649.000,-1553.000,0.000,0.000,0
2026-01-31 13:05:41,5616534,5985.000,5539.000,4791.000,239.000,18.000,-1734.000,0.000,0.000,0
2026-01-31 13:05:41,5616574,8122.000,7635.000,6149.000,1870.000,-101.000,-884.000,0.000,0.000,0
2026-01-31 13:05:41,5616614,10153.000,10942.000,7089.000,1906.000,-28.000,1281.000,0.000,0.000,0
2026-01-31 13:05:41,5616654,9737.000,9959.000,7793.000,-1330.000,855.000,2503.000,0.000,0.000,0
2026-01-31 13:05:41,5616694,7424.000,6473.000,6908.000,-2652.000,622.000,1099.000,0.000,0.000,0
2026-01-31 13:05:41,5616734,3415.000,2317.000,4910.000,-2620.000,1151.000,-15.000,0.000,0.000,0
2026-01-31 13:05:41,5616774,389.000,2627.000,3651.000,-4426.000,788.000,-445.000,0.000,0.000,0
2026-01-31 13:05:41,5616814,928.000,1448.000,3566.000,-8856.000,-521.000,318.000,0.000,0.000,0
2026-01-31 13:05:41,5616854,1983.000,1407.000,3123.000,-9784.000,-247.000,1298.000,0.000,0.000,0
2026-01-31 13:05:41,5616894,2638.000,1366.000,3052.000,-7611.000,335.000,2148.000,0.000,0.000,0
2026-01-31 13:05:41,5616934,4217.000,2197.000,4273.000,-4393.000,249.000,2487.000,0.000,0.000,0
2026-01-31 13:05:41,5616974,4499.000,1827.000,5910.000,-1886.000,640.000,2374.000,0.000,0.000,0
2026-01-31 13:05:41,5617014,4702.000,2168.000,7649.000,2116.000,612.000,1429.000,0.000,0.000,0
2026-01-31 13:05:41,5617054,5067.000,4075.000,9783.000,2874.000,756.000,1053.000,0.000,0.000,0
2026-01-31 13:05:41,5617094,7886.000,2581.000,11064.000,1314.000,-158.000,806.000,0.000,0.000,0
2026-01-31 13:05:41,5617134,9269.000,2007.000,10260.000,3691.000,432.000,830.000,0.000,0.000,0
2026-01-31 13:05:41,5617174,6277.000,286.000,9011.000,721.000,2811.000,-1964.000,0.000,0.000,0
2026-01-31 13:05:41,5617214,3384.000,-190.000,7650.000,115.000,3936.000,-2166.000,0.000,0.000,0
2026-01-31 13:05:41,5617254,1591.000,598.000,6558.000,2236.000,4408.000,-1402.000,0.000,0.000,0
2026-01-31 13:05:41,5617294,1226.000,1538.000,6127.000,1538.000,4065.000,-1160.000,0.000,0.000,0
2026-01-31 13:05:41,5617334,1263.000,1763.000,5329.000,47.000,3496.000,-1941.000,0.000,0.000,0
2026-01-31 13:05:41,5617374,1741.000,2071.000,4885.000,581.000,2550.000,-2564.000,0.000,0.000,0
2026-01-31 13:05:42,5617414,2187.000,2063.000,5176.000,-128.000,1109.000,-2728.000,0.000,0.000,0
2026-01-31 13:05:42,5617454,2620.000,1326.000,6015.000,-1336.000,-347.000,-2485.000,0.000,0.000,0
2026-01-31 13:05:42,5617494,1519.000,551.000,4471.000,-106.000,-1062.000,-3064.000,0.000,0.000,0
2026-01-31 13:05:42,5617534,1742.000,2188.000,4778.000,356.000,-1112.000,-2659.000,0.000,0.000,0
2026-01-31 13:05:42,5617574,3215.000,3933.000,4881.000,-3784.000,-2511.000,-2269.000,0.000,0.000,0
2026-01-31 13:05:42,5617614,5176.000,4951.000,7637.000,-3757.000,-4689.000,-4380.000,0.000,0.000,0
2026-01-31 13:05:42,5617654,6339.000,3005.000,10966.000,-5577.000,-4428.000,-4208.000,0.000,0.000,0
2026-01-31 13:05:42,5617694,6236.000,4091.000,12571.000,-3241.000,-2739.000,-668.000,0.000,0.000,0
2026-01-31 13:05:42,5617734,5476.000,3767.000,11688.000,-1192.000,-1492.000,-390.000,0.000,0.000,0
2026-01-31 13:05:42,5617774,3395.000,3350.000,9210.000,-159.000,-1350.000,-1350.000,0.000,0.000,0
2026-01-31 13:05:42,5617814,1358.000,1973.000,7293.000,-555.000,-1395.000,-3290.000,0.000,0.000,0
2026-01-31 13:05:42,5617856,1766.000,140.000,5865.000,-465.000,-1823.000,-4046.000,0.000,0.000,0
2026-01-31 13:05:42,5617896,2341.000,1593.000,5311.000,864.000,-1183.000,-3527.000,0.000,0.000,0
2026-01-31 13:05:42,5617934,1699.000,1503.000,4759.000,-901.000,-152.000,-3415.000,0.000,0.000,0
2026-01-31 13:05:42,5617974,2456.000,2550.000,5385.000,-1936.000,-365.000,-3083.000,0.000,0.000,0
2026-01-31 13:05:42,5618014,3058.000,1288.000,6103.000,-2923.000,0.000,-3255.000,0.000,0.000,0
2026-01-31 13:05:42,5618054,3624.000,1302.000,7311.000,-1025.000,-458.000,-3138.000,0.000,0.000,0
2026-01-31 13:05:42,5618094,4856.000,1782.000,8910.000,-1392.000,-908.000,-3878.000,0.000,0.000,0
2026-01-31 13:05:42,5618136,4660.000,5272.000,9828.000,-1477.000,416.000,-4227.000,0.000,0.000,0
2026-01-31 13:05:42,5618174,7795.000,3670.000,10719.000,-2076.000,576.000,-1449.000,0.000,0.000,0
2026-01-31 13:05:42,5618214,3756.000,2320.000,10986.000,3159.000,3087.000,1178.000,0.000,0.000,0
2026-01-31 13:05:42,5618254,4206.000,1090.000,8461.000,1770.000,197.000,-2252.000,0.000,0.000,0
2026-01-31 13:05:42,5618294,1975.000,2403.000,5032.000,1415.000,1112.000,-1979.000,0.000,0.000,0
2026-01-31 13:05:42,5618334,1701.000,1491.000,4729.000,-2088.000,1331.000,-1041.000,0.000,0.000,0
2026-01-31 13:05:42,5618374,1764.000,-386.000,4700.000,-1785.000,2795.000,-1428.000,0.000,0.000,0
2026-01-31 13:05:43,5618414,1207.000,2044.000,4551.000,-365.000,3085.000,-5337.000,0.000,0.000,0
2026-01-31 13:05:43,5618454,1292.000,1534.000,4455.000,-2784.000,675.000,-3624.000,0.000,0.000,0
2026-01-31 13:05:43,5618494,908.000,2130.000,6025.000,-1064.000,1314.000,-2459.000,0.000,0.000,0
2026-01-31 13:05:43,5618534,1166.000,3434.000,6866.000,-1317.000,42.000,-2529.000,0.000,0.000,0
2026-01-31 13:05:43,5618574,1321.000,2351.000,8073.000,-2068.000,267.000,-1258.000,0.000,0.000,0
2026-01-31 13:05:43,5618614,1355.000,3649.000,10172.000,1018.000,132.000,-1196.000,0.000,0.000,0
2026-01-31 13:05:43,5618654,-16256.000,-6015.000,13349.000,4054.000,1964.000,13801.000,0.000,0.000,0
2026-01-31 13:05:43,5618694,7091.000,3514.000,11005.000,8832.000,-1636.000,2164.000,0.000,0.000,0
2026-01-31 13:05:43,5618734,550.000,3433.000,9660.000,2582.000,-1109.000,2291.000,0.000,0.000,0
2026-01-31 13:05:43,5618774,-567.000,2617.000,7274.000,1858.000,-517.000,1350.000,0.000,0.000,0
2026-01-31 13:05:43,5618814,10.000,1820.000,5641.000,326.000,90.000,1060.000,0.000,0.000,0
2026-01-31 13:05:43,5618854,526.000,1835.000,4873.000,246.000,1243.000,1602.000,0.000,0.000,0
2026-01-31 13:05:43,5618894,1040.000,2061.000,4878.000,272.000,2128.000,2255.000,0.000,0.000,0
2026-01-31 13:05:43,5618934,1204.000,1879.000,4493.000,335.000,2887.000,3070.000,0.000,0.000,0
2026-01-31 13:05:43,5618974,2026.000,3054.000,5193.000,844.000,3548.000,4152.000,0.000,0.000,0
2026-01-31 13:05:43,5619014,2135.000,2437.000,5758.000,897.000,4226.000,4584.000,0.000,0.000,0
2026-01-31 13:05:43,5619054,1120.000,1668.000,6998.000,2595.000,4059.000,4619.000,0.000,0.000,0
2026-01-31 13:05:43,5619094,1126.000,5458.000,8377.000,5507.000,3189.000,5664.000,0.000,0.000,0
2026-01-31 13:05:43,5619134,1206.000,7007.000,8797.000,5124.000,2753.000,6368.000,0.000,0.000,0
2026-01-31 13:05:43,5619174,1696.000,8526.000,9999.000,1719.000,2428.000,6182.000,0.000,0.000,0
2026-01-31 13:05:43,5619214,638.000,4574.000,9191.000,12.000,2349.000,4958.000,0.000,0.000,0
2026-01-31 13:05:43,5619254,104.000,2323.000,7807.000,2634.000,1781.000,3611.000,0.000,0.000,0
2026-01-31 13:05:43,5619294,-181.000,3026.000,6852.000,5127.000,1374.000,2684.000,0.000,0.000,0
2026-01-31 13:05:43,5619334,-146.000,3467.000,6106.000,4068.000,864.000,1714.000,0.000,0.000,0
2026-01-31 13:05:43,5619374,492.000,3199.000,6317.000,993.000,114.000,937.000,0.000,0.000,0
2026-01-31 13:05:44,5619414,794.000,1962.000,6065.000,-1004.000,20.000,420.000,0.000,0.000,0
2026-01-31 13:05:44,5619454,217.000,3528.000,6222.000,-85.000,140.000,808.000,0.000,0.000,0
2026-01-31 13:05:44,5619494,335.000,4807.000,7396.000,-1252.000,172.000,781.000,0.000,0.000,0
2026-01-31 13:05:44,5619534,-490.000,4542.000,7452.000,-1307.000,580.000,455.000,0.000,0.000,0
2026-01-31 13:05:44,5619574,9.000,8609.000,9596.000,-1136.000,25.000,232.000,0.000,0.000,0
2026-01-31 13:05:44,5619614,1595.000,12300.000,12024.000,-4587.000,-733.000,-267.000,0.000,0.000,0
2026-01-31 13:05:44,5619654,2322.000,8475.000,10599.000,-6872.000,-824.000,-2175.000,0.000,0.000,0
2026-01-31 13:05:44,5619694,1625.000,6614.000,9396.000,-3271.000,-838.000,-3616.000,0.000,0.000,0
2026-01-31 13:05:44,5619734,1414.000,5652.000,7749.000,56.000,-1010.000,-4081.000,0.000,0.000,0
2026-01-31 13:05:44,5619774,1091.000,4256.000,5558.000,1625.000,-707.000,-4468.000,0.000,0.000,0
2026-01-31 13:05:44,5619814,543.000,2807.000,4115.000,1649.000,-840.000,-4733.000,0.000,0.000,0
2026-01-31 13:05:44,5619856,739.000,3176.000,4269.000,1447.000,-885.000,-4676.000,0.000,0.000,0
2026-01-31 13:05:44,5619895,300.000,3006.000,4373.000,-1274.000,-132.000,-3566.000,0.000,0.000,0
2026-01-31 13:05:44,5619947,1046.000,4381.000,6362.000,-3498.000,-440.000,-2092.000,0.000,0.000,0
2026-01-31 13:05:44,5619974,1552.000,4577.000,7056.000,-4173.000,-541.000,-1581.000,0.000,0.000,0
2026-01-31 13:05:44,5620014,2556.000,3959.000,8051.000,-4290.000,-472.000,-548.000,0.000,0.000,0
2026-01-31 13:05:44,5620054,2720.000,2857.000,8579.000,-1593.000,-278.000,335.000,0.000,0.000,0
2026-01-31 13:05:44,5620094,2602.000,2768.000,9387.000,1895.000,-592.000,1403.000,0.000,0.000,0
2026-01-31 13:05:44,5620137,2529.000,4832.000,9082.000,4005.000,-897.000,2634.000,0.000,0.000,0
2026-01-31 13:05:44,5620175,2416.000,5598.000,8575.000,1004.000,-1012.000,2400.000,0.000,0.000,0
2026-01-31 13:05:44,5620214,2768.000,3397.000,7080.000,-1539.000,-1086.000,1611.000,0.000,0.000,0
2026-01-31 13:05:44,5620254,2771.000,2681.000,6183.000,2342.000,-255.000,2291.000,0.000,0.000,0
2026-01-31 13:05:44,5620294,1512.000,2901.000,5357.000,4146.000,189.000,2694.000,0.000,0.000,0
2026-01-31 13:05:44,5620334,683.000,2383.000,4634.000,4537.000,315.000,2659.000,0.000,0.000,0
2026-01-31 13:05:44,5620374,28.000,2670.000,4243.000,5444.000,272.000,2700.000,0.000,0.000,0
2026-01-31 13:05:45,5620414,-112.000,4086.000,5046.000,4757.000,-83.000,2656.000,0.000,0.000,0
2026-01-31 13:05:45,5620454,59.000,5195.000,5968.000,2284.000,-522.000,2256.000,0.000,0.000,0
2026-01-31 13:05:45,5620494,756.000,5534.000,6778.000,-245.000,-1127.000,1489.000,0.000,0.000,0
2026-01-31 13:05:45,5620534,1232.000,5594.000,7781.000,-1031.000,-1304.000,173.000,0.000,0.000,0
2026-01-31 13:05:45,5620574,1633.000,4917.000,8083.000,-405.000,-1116.000,-1134.000,0.000,0.000,0
2026-01-31 13:05:45,5620614,2041.000,6393.000,8218.000,1127.000,-648.000,-1778.000,0.000,0.000,0
2026-01-31 13:05:45,5620654,2240.000,7703.000,8436.000,88.000,-377.000,-1641.000,0.000,0.000,0
2026-01-31 13:05:45,5620694,3070.000,8254.000,8803.000,-1386.000,-761.000,-1820.000,0.000,0.000,0
2026-01-31 13:05:45,5620734,3105.000,6397.000,7349.000,-1818.000,-629.000,-2624.000,0.000,0.000,0
2026-01-31 13:05:45,5620774,3143.000,5286.000,6158.000,-636.000,-613.000,-2726.000,0.000,0.000,0
2026-01-31 13:05:45,5620814,3699.000,6035.000,6026.000,61.000,-438.000,-1443.000,0.000,0.000,0
2026-01-31 13:05:45,5620854,2945.000,5705.000,4967.000,-917.000,121.000,-483.000,0.000,0.000,0
2026-01-31 13:05:45,5620894,2075.000,3870.000,4277.000,-1847.000,-121.000,-557.000,0.000,0.000,0
2026-01-31 13:05:45,5620934,1578.000,2674.000,4184.000,-619.000,-482.000,-899.000,0.000,0.000,0
2026-01-31 13:05:45,5620974,1123.000,3319.000,4240.000,1044.000,-527.000,-871.000,0.000,0.000,0
2026-01-31 13:05:45,5621014,926.000,4745.000,5070.000,-672.000,-148.000,-343.000,0.000,0.000,0
2026-01-31 13:05:45,5621054,863.000,4713.000,5634.000,-1967.000,90.000,53.000,0.000,0.000,0
2026-01-31 13:05:45,5621094,1137.000,5047.000,6688.000,-1966.000,77.000,377.000,0.000,0.000,0
2026-01-31 13:05:45,5621134,1777.000,5658.000,7401.000,-1716.000,248.000,563.000,0.000,0.000,0
2026-01-31 13:05:45,5621174,1932.000,4954.000,7172.000,-1306.000,455.000,659.000,0.000,0.000,0
2026-01-31 13:05:45,5621214,1980.000,4961.000,7707.000,-150.000,112.000,852.000,0.000,0.000,0
2026-01-31 13:05:45,5621254,2426.000,6296.000,8092.000,842.000,-474.000,1603.000,0.000,0.000,0
2026-01-31 13:05:45,5621294,3189.000,7454.000,8528.000,-779.000,-886.000,1426.000,0.000,0.000,0
2026-01-31 13:05:45,5621334,3564.000,4563.000,7363.000,-2339.000,-685.000,174.000,0.000,0.000,0
2026-01-31 13:05:45,5621374,3665.000,2368.000,5906.000,696.000,134.000,-219.000,0.000,0.000,0
2026-01-31 13:05:46,5621414,2882.000,3524.000,5119.000,4090.000,1024.000,658.000,0.000,0.000,0
2026-01-31 13:05:46,5621454,2277.000,3898.000,5023.000,2419.000,888.000,1176.000,0.000,0.000,0
2026-01-31 13:05:46,5621494,1758.000,3126.000,4807.000,530.000,502.000,1299.000,0.000,0.000,0
2026-01-31 13:05:46,5621534,1296.000,2773.000,4704.000,744.000,5.000,1284.000,0.000,0.000,0
2026-01-31 13:05:46,5621574,1160.000,3574.000,5195.000,1488.000,-476.000,1220.000,0.000,0.000,0
2026-01-31 13:05:46,5621614,1499.000,4486.000,5848.000,1119.000,-758.000,1106.000,0.000,0.000,0
2026-01-31 13:05:46,5621654,1733.000,5007.000,6586.000,238.000,-655.000,842.000,0.000,0.000,0
2026-01-31 13:05:46,5621694,1557.000,4514.000,6793.000,228.000,-544.000,241.000,0.000,0.000,0
2026-01-31 13:05:46,5621734,1324.000,4969.000,7113.000,1156.000,-479.000,-620.000,0.000,0.000,0
2026-01-31 13:05:46,5621774,1855.000,6282.000,7662.000,686.000,-380.000,-1373.000,0.000,0.000,0
2026-01-31 13:05:46,5621814,2286.000,6021.000,7637.000,-1008.000,294.000,-1362.000,0.000,0.000,0
2026-01-31 13:05:46,5621856,2245.000,6747.000,8291.000,-223.000,214.000,-1250.000,0.000,0.000,0
2026-01-31 13:05:46,5621894,2830.000,8256.000,8085.000,-318.000,20.000,-1555.000,0.000,0.000,0
2026-01-31 13:05:46,5621934,2504.000,5832.000,6138.000,-1469.000,-151.000,-2438.000,0.000,0.000,0
2026-01-31 13:05:46,5621974,3224.000,6636.000,6057.000,-745.000,-559.000,-2001.000,0.000,0.000,0
2026-01-31 13:05:46,5622014,3471.000,7640.000,5823.000,-1496.000,-129.000,-1094.000,0.000,0.000,0
2026-01-31 13:05:46,5622054,2685.000,5105.000,4766.000,-3276.000,-87.000,-1448.000,0.000,0.000,0
2026-01-31 13:05:46,5622094,2025.000,2637.000,4283.000,-1476.000,-499.000,-2227.000,0.000,0.000,0
2026-01-31 13:05:46,5622135,1603.000,2264.000,4044.000,1948.000,-570.000,-2369.000,0.000,0.000,0
2026-01-31 13:05:46,5622174,998.000,4515.000,4273.000,2474.000,2.000,-1395.000,0.000,0.000,0
2026-01-31 13:05:46,5622214,730.000,4950.000,4805.000,-840.000,118.000,-686.000,0.000,0.000,0
2026-01-31 13:05:46,5622254,847.000,4704.000,5737.000,-2336.000,-226.000,-154.000,0.000,0.000,0
2026-01-31 13:05:46,5622294,1468.000,5324.000,6610.000,-1881.000,-567.000,198.000,0.000,0.000,0
2026-01-31 13:05:46,5622334,2066.000,6156.000,7282.000,-1557.000,-598.000,458.000,0.000,0.000,0
2026-01-31 13:05:46,5622374,2304.000,5168.000,7603.000,-1342.000,-542.000,623.000,0.000,0.000,0
2026-01-31 13:05:47,5622414,2225.000,5521.000,7922.000,769.000,-805.000,1094.000,0.000,0.000,0
2026-01-31 13:05:47,5622454,2938.000,8082.000,8730.000,595.000,-1356.000,1543.000,0.000,0.000,0
2026-01-31 13:05:47,5622494,3209.000,5742.000,7730.000,-2749.000,-1296.000,255.000,0.000,0.000,0
2026-01-31 13:05:47,5622534,3456.000,2548.000,6234.000,-1741.000,-561.000,-565.000,0.000,0.000,0
2026-01-31 13:05:47,5622574,3952.000,4849.000,6374.000,2000.000,1192.000,668.000,0.000,0.000,0
2026-01-31 13:05:47,5622614,2680.000,3685.000,5903.000,1008.000,1520.000,935.000,0.000,0.000,0
2026-01-31 13:05:47,5622654,1921.000,2645.000,5204.000,1350.000,1123.000,783.000,0.000,0.000,0
2026-01-31 13:05:47,5622694,1067.000,2451.000,4324.000,2723.000,911.000,702.000,0.000,0.000,0
2026-01-31 13:05:47,5622734,584.000,3136.000,4399.000,2898.000,528.000,686.000,0.000,0.000,0
2026-01-31 13:05:47,5622774,671.000,4289.000,4980.000,1587.000,178.000,619.000,0.000,0.000,0
2026-01-31 13:05:47,5622814,1069.000,4314.000,5594.000,-198.000,-110.000,476.000,0.000,0.000,0
2026-01-31 13:05:47,5622854,1665.000,4727.000,6445.000,66.000,-262.000,164.000,0.000,0.000,0
2026-01-31 13:05:47,5622894,1870.000,5401.000,7250.000,513.000,-245.000,-673.000,0.000,0.000,0
2026-01-31 13:05:47,5622934,1643.000,5467.000,7382.000,1127.000,-138.000,-1525.000,0.000,0.000,0
2026-01-31 13:05:47,5622974,1553.000,6446.000,7652.000,1611.000,263.000,-1396.000,0.000,0.000,0
2026-01-31 13:05:47,5623014,1937.000,7689.000,7969.000,710.000,187.000,-873.000,0.000,0.000,0
2026-01-31 13:05:47,5623054,2715.000,9405.000,8198.000,-1019.000,-8.000,-688.000,0.000,0.000,0
2026-01-31 13:05:47,5623094,2390.000,6441.000,6582.000,-2480.000,-298.000,-1723.000,0.000,0.000,0
2026-01-31 13:05:47,5623134,2587.000,5651.000,5616.000,-176.000,-589.000,-1831.000,0.000,0.000,0
2026-01-31 13:05:47,5623174,3011.000,6802.000,5236.000,740.000,-334.000,-810.000,0.000,0.000,0
2026-01-31 13:05:47,5623214,2447.000,5725.000,4532.000,-1055.000,136.000,-116.000,0.000,0.000,0
2026-01-31 13:05:47,5623254,1697.000,3361.000,4207.000,-1234.000,-98.000,-221.000,0.000,0.000,0
2026-01-31 13:05:47,5623294,1015.000,2910.000,3914.000,1100.000,-474.000,-425.000,0.000,0.000,0
2026-01-31 13:05:47,5623334,694.000,4165.000,4262.000,1809.000,-567.000,-334.000,0.000,0.000,0
2026-01-31 13:05:47,5623374,575.000,4913.000,4778.000,-1036.000,8.000,589.000,0.000,0.000,0
2026-01-31 13:05:48,5623414,578.000,5107.000,5747.000,-1696.000,-117.000,851.000,0.000,0.000,0
2026-01-31 13:05:48,5623454,1002.000,6397.000,6807.000,-1183.000,-313.000,868.000,0.000,0.000,0
2026-01-31 13:05:48,5623494,1361.000,6398.000,6975.000,-1294.000,-196.000,625.000,0.000,0.000,0
2026-01-31 13:05:48,5623534,1427.000,5579.000,6992.000,-649.000,-192.000,514.000,0.000,0.000,0
2026-01-31 13:05:48,5623574,1910.000,6247.000,7754.000,47.000,-505.000,720.000,0.000,0.000,0
2026-01-31 13:05:48,5623614,2175.000,6873.000,7900.000,-486.000,-706.000,1262.000,0.000,0.000,0
2026-01-31 13:05:48,5623654,3018.000,6778.000,8190.000,-1741.000,-902.000,1202.000,0.000,0.000,0
2026-01-31 13:05:48,5623694,3546.000,4873.000,6926.000,-2425.000,-510.000,199.000,0.000,0.000,0
2026-01-31 13:05:48,5623734,4297.000,3651.000,5666.000,658.000,663.000,138.000,0.000,0.000,0
2026-01-31 13:05:48,5623774,3892.000,3880.000,5334.000,1637.000,1524.000,882.000,0.000,0.000,0
2026-01-31 13:05:48,5623814,2708.000,2984.000,4672.000,1830.000,1750.000,1271.000,0.000,0.000,0
2026-01-31 13:05:48,5623856,1716.000,2587.000,4162.000,2646.000,1594.000,1516.000,0.000,0.000,0
2026-01-31 13:05:48,5623896,917.000,3041.000,4118.000,2879.000,1297.000,1588.000,0.000,0.000,0
2026-01-31 13:05:48,5623934,612.000,3893.000,4784.000,1959.000,794.000,1662.000,0.000,0.000,0
2026-01-31 13:05:48,5623974,743.000,4722.000,5591.000,668.000,239.000,1510.000,0.000,0.000,0
2026-01-31 13:05:48,5624014,1256.000,5483.000,6612.000,-232.000,-262.000,999.000,0.000,0.000,0
2026-01-31 13:05:48,5624054,1475.000,5515.000,7118.000,-708.000,-374.000,-245.000,0.000,0.000,0
2026-01-31 13:05:48,5624094,1808.000,5459.000,7517.000,256.000,-314.000,-1414.000,0.000,0.000,0
2026-01-31 13:05:48,5624137,1885.000,6920.000,7797.000,1441.000,430.000,-1289.000,0.000,0.000,0
2026-01-31 13:05:48,5624174,1701.000,7393.000,7954.000,338.000,274.000,-1268.000,0.000,0.000,0
2026-01-31 13:05:48,5624214,2018.000,7955.000,7980.000,-302.000,-424.000,-1575.000,0.000,0.000,0
2026-01-31 13:05:48,5624254,1848.000,6671.000,6699.000,-1431.000,-850.000,-2484.000,0.000,0.000,0
2026-01-31 13:05:48,5624294,2131.000,6419.000,5984.000,-856.000,-1151.000,-2314.000,0.000,0.000,0
2026-01-31 13:05:48,5624334,2761.000,7237.000,5751.000,-1242.000,-951.000,-1091.000,0.000,0.000,0
2026-01-31 13:05:48,5624374,2537.000,5801.000,4938.000,-2661.000,-563.000,-667.000,0.000,0.000,0
2026-01-31 13:05:49,5624414,1997.000,3301.000,4210.000,-1764.000,-580.000,-1020.000,0.000,0.000,0
2026-01-31 13:05:49,5624454,1202.000,3020.000,3860.000,1241.000,-663.000,-1272.000,0.000,0.000,0
2026-01-31 13:05:49,5624494,817.000,4588.000,4252.000,857.000,-683.000,-795.000,0.000,0.000,0
2026-01-31 13:05:49,5624534,621.000,5069.000,4849.000,-1625.000,-438.000,-241.000,0.000,0.000,0
2026-01-31 13:05:49,5624574,698.000,5298.000,5483.000,-2538.000,-406.000,167.000,0.000,0.000,0
2026-01-31 13:05:49,5624614,1365.000,6225.000,6750.000,-2356.000,-539.000,260.000,0.000,0.000,0
2026-01-31 13:05:49,5624654,2004.000,6430.000,7502.000,-2023.000,-319.000,229.000,0.000,0.000,0
2026-01-31 13:05:49,5624694,1622.000,4996.000,7096.000,-662.000,25.000,41.000,0.000,0.000,0
2026-01-31 13:05:49,5624734,1700.000,6042.000,7696.000,1480.000,-247.000,442.000,0.000,0.000,0
2026-01-31 13:05:49,5624774,2322.000,8749.000,8972.000,181.000,-564.000,867.000,0.000,0.000,0
2026-01-31 13:05:49,5624814,3545.000,6263.000,8399.000,-3962.000,-483.000,-483.000,0.000,0.000,0
2026-01-31 13:05:49,5624854,4307.000,2472.000,6410.000,-2582.000,355.000,-1562.000,0.000,0.000,0
2026-01-31 13:05:49,5624894,3337.000,3353.000,5301.000,3574.000,1362.000,-453.000,0.000,0.000,0
2026-01-31 13:05:49,5624934,1956.000,3891.000,4790.000,3639.000,1387.000,170.000,0.000,0.000,0
2026-01-31 13:05:49,5624974,1261.000,3471.000,4350.000,1507.000,1056.000,468.000,0.000,0.000,0
2026-01-31 13:05:49,5625014,158.000,3039.000,4075.000,697.000,1012.000,713.000,0.000,0.000,0
2026-01-31 13:05:49,5625054,752.000,3971.000,4784.000,363.000,850.000,563.000,0.000,0.000,0
2026-01-31 13:05:49,5625094,1132.000,4125.000,5737.000,-318.000,1018.000,83.000,0.000,0.000,0
2026-01-31 13:05:49,5625134,1889.000,3955.000,6522.000,55.000,1156.000,-208.000,0.000,0.000,0
2026-01-31 13:05:49,5625174,1992.000,4271.000,7215.000,1087.000,1343.000,-392.000,0.000,0.000,0
2026-01-31 13:05:49,5625214,1973.000,4528.000,7727.000,1275.000,1096.000,-632.000,0.000,0.000,0
2026-01-31 13:05:49,5625254,1921.000,5403.000,8112.000,695.000,958.000,-387.000,0.000,0.000,0
2026-01-31 13:05:49,5625294,1591.000,5236.000,7875.000,-184.000,988.000,265.000,0.000,0.000,0
2026-01-31 13:05:49,5625334,1216.000,6833.000,8404.000,760.000,268.000,1088.000,0.000,0.000,0
2026-01-31 13:05:49,5625374,1523.000,8610.000,8316.000,-305.000,-37.000,1260.000,0.000,0.000,0
2026-01-31 13:05:50,5625414,1155.000,6181.000,6238.000,-2120.000,248.000,558.000,0.000,0.000,0
2026-01-31 13:05:50,5625454,1530.000,5906.000,5776.000,-686.000,272.000,739.000,0.000,0.000,0
2026-01-31 13:05:50,5625494,2095.000,6639.000,5696.000,-157.000,476.000,1404.000,0.000,0.000,0
2026-01-31 13:05:50,5625534,1828.000,5198.000,4854.000,-854.000,544.000,1353.000,0.000,0.000,0
2026-01-31 13:05:50,5625574,1259.000,3498.000,4536.000,-72.000,316.000,878.000,0.000,0.000,0
2026-01-31 13:05:50,5625614,665.000,3418.000,4516.000,1481.000,192.000,650.000,0.000,0.000,0
2026-01-31 13:05:50,5625654,173.000,4803.000,5127.000,67.000,654.000,1053.000,0.000,0.000,0
2026-01-31 13:05:50,5625694,-319.000,4630.000,5629.000,-1358.000,820.000,1309.000,0.000,0.000,0
2026-01-31 13:05:50,5625734,-344.000,4709.000,6573.000,-1091.000,339.000,1216.000,0.000,0.000,0
2026-01-31 13:05:50,5625774,-3.000,5702.000,7327.000,-271.000,-201.000,828.000,0.000,0.000,0
2026-01-31 13:05:50,5625814,737.000,6020.000,7577.000,-926.000,-495.000,463.000,0.000,0.000,0
2026-01-31 13:05:50,5625856,1049.000,5284.000,7618.000,-1360.000,-466.000,293.000,0.000,0.000,0
2026-01-31 13:05:50,5625894,1255.000,5505.000,7811.000,-580.000,-692.000,702.000,0.000,0.000,0
2026-01-31 13:05:50,5625934,2681.000,7541.000,8829.000,-938.000,-1321.000,1415.000,0.000,0.000,0
2026-01-31 13:05:50,5625974,3252.000,6442.000,8572.000,-3363.000,-1231.000,502.000,0.000,0.000,0
2026-01-31 13:05:50,5626014,2682.000,2640.000,5341.000,-2338.000,-414.000,-727.000,0.000,0.000,0
2026-01-31 13:05:50,5626054,2679.000,4562.000,5396.000,2725.000,765.000,47.000,0.000,0.000,0
2026-01-31 13:05:50,5626094,1854.000,4586.000,5303.000,1337.000,1041.000,380.000,0.000,0.000,0
2026-01-31 13:05:50,5626136,1279.000,3150.000,4992.000,-23.000,481.000,142.000,0.000,0.000,0
2026-01-31 13:05:50,5626174,970.000,2854.000,4790.000,901.000,79.000,15.000,0.000,0.000,0
2026-01-31 13:05:50,5626214,353.000,3376.000,5103.000,1367.000,-242.000,-123.000,0.000,0.000,0
2026-01-31 13:05:50,5626254,177.000,4018.000,5587.000,552.000,-847.000,-430.000,0.000,0.000,0
2026-01-31 13:05:50,5626294,799.000,4282.000,6216.000,-728.000,-1425.000,-715.000,0.000,0.000,0
2026-01-31 13:05:50,5626334,1525.000,4919.000,6892.000,-1396.000,-1482.000,-1125.000,0.000,0.000,0
2026-01-31 13:05:50,5626374,1304.000,4114.000,6763.000,-1365.000,-1144.000,-1837.000,0.000,0.000,0
2026-01-31 13:05:51,5626414,1423.000,5504.000,7364.000,381.000,-1007.000,-2334.000,0.000,0.000,0
2026-01-31 13:05:51,5626454,1534.000,6174.000,7496.000,278.000,-941.000,-2473.000,0.000,0.000,0
2026-01-31 13:05:51,5626494,2205.000,7013.000,8298.000,-236.000,-1826.000,-2464.000,0.000,0.000,0
2026-01-31 13:05:51,5626534,2719.000,7140.000,8119.000,-530.000,-2302.000,-2683.000,0.000,0.000,0
2026-01-31 13:05:51,5626574,2065.000,5628.000,6505.000,-191.000,-2392.000,-3095.000,0.000,0.000,0
2026-01-31 13:05:51,5626614,1965.000,6194.000,5915.000,963.000,-2605.000,-2633.000,0.000,0.000,0
2026-01-31 13:05:51,5626654,2426.000,7345.000,5893.000,-267.000,-2724.000,-1573.000,0.000,0.000,0
2026-01-31 13:05:51,5626694,2520.000,6493.000,5084.000,-2275.000,-2219.000,-945.000,0.000,0.000,0
2026-01-31 13:05:51,5626734,2103.000,3911.000,4272.000,-1675.000,-1844.000,-1231.000,0.000,0.000,0
2026-01-31 13:05:51,5626774,2033.000,3937.000,4183.000,1438.000,-1694.000,-1183.000,0.000,0.000,0
2026-01-31 13:05:51,5626814,2301.000,5537.000,4402.000,1208.000,-1032.000,-225.000,0.000,0.000,0
2026-01-31 13:05:51,5626854,2509.000,5292.000,4919.000,-1529.000,-480.000,340.000,0.000,0.000,0
2026-01-31 13:05:51,5626894,3174.000,5230.000,5558.000,-1987.000,78.000,1156.000,0.000,0.000,0
2026-01-31 13:05:51,5626934,4371.000,5889.000,6601.000,-1307.000,524.000,2221.000,0.000,0.000,0
2026-01-31 13:05:51,5626974,4849.000,6553.000,7383.000,-747.000,994.000,2956.000,0.000,0.000,0
2026-01-31 13:05:51,5627014,4257.000,4574.000,7202.000,-700.000,958.000,2238.000,0.000,0.000,0
2026-01-31 13:05:51,5627054,2882.000,1901.000,6209.000,1247.000,597.000,998.000,0.000,0.000,0
2026-01-31 13:05:51,5627094,2555.000,2560.000,6008.000,3682.000,414.000,1228.000,0.000,0.000,0
2026-01-31 13:05:51,5627134,2459.000,4925.000,5849.000,2442.000,973.000,2242.000,0.000,0.000,0
2026-01-31 13:05:51,5627174,1950.000,4297.000,5689.000,-1852.000,1132.000,2441.000,0.000,0.000,0
2026-01-31 13:05:51,5627214,2260.000,2824.000,5883.000,-1074.000,622.000,1724.000,0.000,0.000,0
2026-01-31 13:05:51,5627254,2058.000,3184.000,5982.000,1778.000,681.000,956.000,0.000,0.000,0
2026-01-31 13:05:51,5627294,1791.000,3852.000,6505.000,2795.000,641.000,563.000,0.000,0.000,0
2026-01-31 13:05:51,5627334,1899.000,4231.000,6962.000,1735.000,490.000,195.000,0.000,0.000,0
2026-01-31 13:05:51,5627374,1717.000,3423.000,6974.000,990.000,203.000,-293.000,0.000,0.000,0
2026-01-31 13:05:52,5627414,1660.000,4163.000,7262.000,1775.000,-233.000,-564.000,0.000,0.000,0
2026-01-31 13:05:52,5627454,1505.000,5025.000,7165.000,1651.000,-725.000,-949.000,0.000,0.000,0
2026-01-31 13:05:52,5627494,1276.000,5023.000,6987.000,936.000,-1491.000,-1688.000,0.000,0.000,0
2026-01-31 13:05:52,5627534,1633.000,6201.000,7052.000,815.000,-2433.000,-2198.000,0.000,0.000,0
2026-01-31 13:05:52,5627574,3271.000,9098.000,7216.000,-470.000,-3065.000,-2352.000,0.000,0.000,0
2026-01-31 13:05:52,5627614,3373.000,8051.000,6017.000,-3471.000,-2695.000,-2080.000,0.000,0.000,0
2026-01-31 13:05:52,5627654,2120.000,5955.000,4380.000,-1684.000,-2166.000,-2554.000,0.000,0.000,0
2026-01-31 13:05:52,5627694,1817.000,7086.000,4175.000,502.000,-2171.000,-2782.000,0.000,0.000,0
2026-01-31 13:05:52,5627734,2139.000,8005.000,3900.000,-601.000,-1721.000,-2862.000,0.000,0.000,0
2026-01-31 13:05:52,5627774,2098.000,6069.000,3412.000,-2161.000,-999.000,-3105.000,0.000,0.000,0
2026-01-31 13:05:52,5627814,1988.000,5169.000,3455.000,-613.000,-656.000,-3060.000,0.000,0.000,0
2026-01-31 13:05:52,5627856,2012.000,5619.000,3698.000,996.000,-608.000,-2659.000,0.000,0.000,0
2026-01-31 13:05:52,5627895,1616.000,5676.000,3710.000,1193.000,-786.000,-2073.000,0.000,0.000,0
2026-01-31 13:05:52,5627934,1251.000,6056.000,4276.000,727.000,-1437.000,-1303.000,0.000,0.000,0
2026-01-31 13:05:52,5627974,1590.000,6668.000,5361.000,-1064.000,-2456.000,-620.000,0.000,0.000,0
2026-01-31 13:05:52,5628014,1954.000,6607.000,5990.000,-1791.000,-2675.000,-507.000,0.000,0.000,0
2026-01-31 13:05:52,5628054,2108.000,6611.000,6276.000,-1689.000,-2504.000,-269.000,0.000,0.000,0
2026-01-31 13:05:52,5628094,1995.000,6699.000,6519.000,-1621.000,-2278.000,-37.000,0.000,0.000,0
2026-01-31 13:05:52,5628137,2374.000,7311.000,7113.000,-2583.000,-2082.000,248.000,0.000,0.000,0
2026-01-31 13:05:52,5628174,3064.000,7727.000,7540.000,-3912.000,-1598.000,528.000,0.000,0.000,0
2026-01-31 13:05:52,5628214,3418.000,7199.000,7905.000,-5006.000,-1058.000,518.000,0.000,0.000,0
2026-01-31 13:05:52,5628254,2848.000,3870.000,6568.000,-4270.000,-505.000,-498.000,0.000,0.000,0
2026-01-31 13:05:52,5628294,1119.000,1588.000,4256.000,-270.000,-107.000,-1656.000,0.000,0.000,0
2026-01-31 13:05:52,5628334,934.000,3717.000,4180.000,2442.000,-359.000,-1767.000,0.000,0.000,0
2026-01-31 13:05:52,5628374,2471.000,6441.000,4897.000,-2871.000,-347.000,-1159.000,0.000,0.000,0
2026-01-31 13:05:53,5628414,2694.000,4702.000,5299.000,-6340.000,-608.000,-1335.000,0.000,0.000,0
2026-01-31 13:05:53,5628454,2220.000,2410.000,5287.000,-3709.000,-1335.000,-2041.000,0.000,0.000,0
2026-01-31 13:05:53,5628494,1823.000,2940.000,5582.000,1160.000,-2368.000,-2726.000,0.000,0.000,0
2026-01-31 13:05:53,5628534,1742.000,4681.000,5765.000,2413.000,-2996.000,-2740.000,0.000,0.000,0
2026-01-31 13:05:53,5628574,1882.000,4940.000,5737.000,-236.000,-3241.000,-2457.000,0.000,0.000,0
2026-01-31 13:05:53,5628614,2002.000,4364.000,6002.000,-2627.000,-3231.000,-2269.000,0.000,0.000,0
2026-01-31 13:05:53,5628654,2241.000,3764.000,6167.000,-2842.000,-3192.000,-2400.000,0.000,0.000,0
2026-01-31 13:05:53,5628694,2167.000,3689.000,6410.000,-1387.000,-2948.000,-2758.000,0.000,0.000,0
2026-01-31 13:05:53,5628734,2399.000,5294.000,7001.000,-490.000,-2711.000,-3018.000,0.000,0.000,0
2026-01-31 13:05:53,5628774,2843.000,5840.000,7319.000,-1932.000,-1896.000,-3200.000,0.000,0.000,0
2026-01-31 13:05:53,5628814,2846.000,4743.000,6986.000,-2247.000,-1230.000,-3574.000,0.000,0.000,0
2026-01-31 13:05:53,5628854,2435.000,4982.000,6925.000,-222.000,-1175.000,-3951.000,0.000,0.000,0
2026-01-31 13:05:53,5628894,2412.000,6402.000,6764.000,790.000,-1993.000,-4015.000,0.000,0.000,0
2026-01-31 13:05:53,5628934,4042.000,9768.000,7393.000,-966.000,-3104.000,-3344.000,0.000,0.000,0
2026-01-31 13:05:53,5628974,3335.000,6444.000,4946.000,-3956.000,-2925.000,-3535.000,0.000,0.000,0
2026-01-31 13:05:53,5629014,3632.000,6167.000,4913.000,-2752.000,-3051.000,-3359.000,0.000,0.000,0
2026-01-31 13:05:53,5629054,4010.000,7082.000,4826.000,-1486.000,-2282.000,-3111.000,0.000,0.000,0
2026-01-31 13:05:53,5629094,3167.000,5254.000,3690.000,-1483.000,-1384.000,-3426.000,0.000,0.000,0
2026-01-31 13:05:53,5629134,1961.000,4791.000,3639.000,1552.000,-1335.000,-3185.000,0.000,0.000,0
2026-01-31 13:05:53,5629174,1935.000,5744.000,3695.000,1412.000,-1639.000,-2841.000,0.000,0.000,0
2026-01-31 13:05:53,5629214,2046.000,5453.000,4142.000,-211.000,-1896.000,-2411.000,0.000,0.000,0
2026-01-31 13:05:53,5629254,1917.000,5071.000,4813.000,-682.000,-2022.000,-1867.000,0.000,0.000,0
2026-01-31 13:05:53,5629294,1878.000,5682.000,5708.000,-728.000,-2235.000,-1510.000,0.000,0.000,0
2026-01-31 13:05:53,5629334,2169.000,6106.000,6426.000,-1626.000,-2394.000,-1263.000,0.000,0.000,0
2026-01-31 13:05:53,5629374,2697.000,6748.000,7049.000,-2612.000,-2257.000,-737.000,0.000,0.000,0
2026-01-31 13:05:54,5629414,2665.000,7117.000,7470.000,-3504.000,-2233.000,-303.000,0.000,0.000,0
2026-01-31 13:05:54,5629454,3008.000,7945.000,8288.000,-4072.000,-3012.000,-188.000,0.000,0.000,0
2026-01-31 13:05:54,5629494,3101.000,6240.000,7757.000,-4787.000,-3463.000,-1800.000,0.000,0.000,0
2026-01-31 13:05:54,5629534,1480.000,3284.000,4540.000,-898.000,-2533.000,-3897.000,0.000,0.000,0
2026-01-31 13:05:54,5629574,1951.000,6622.000,4693.000,-235.000,-1929.000,-3389.000,0.000,0.000,0
2026-01-31 13:05:54,5629614,2558.000,6781.000,4101.000,-4536.000,-1648.000,-3360.000,0.000,0.000,0
2026-01-31 13:05:54,5629654,2237.000,4162.000,4401.000,-4849.000,-1944.000,-4537.000,0.000,0.000,0
2026-01-31 13:05:54,5629694,1358.000,4395.000,4847.000,491.000,-2863.000,-5559.000,0.000,0.000,0
2026-01-31 13:05:54,5629734,1401.000,6596.000,5309.000,2141.000,-3744.000,-6248.000,0.000,0.000,0
2026-01-31 13:05:54,5629774,1670.000,5959.000,4860.000,-1889.000,-3783.000,-6506.000,0.000,0.000,0
2026-01-31 13:05:54,5629814,2213.000,5064.000,5097.000,-4303.000,-3532.000,-6260.000,0.000,0.000,0
2026-01-31 13:05:54,5629854,2733.000,5252.000,5677.000,-4263.000,-3011.000,-5843.000,0.000,0.000,0
2026-01-31 13:05:54,5629894,3347.000,5023.000,6201.000,-4634.000,-2382.000,-5984.000,0.000,0.000,0
2026-01-31 13:05:54,5629934,3127.000,4412.000,6779.000,-3127.000,-877.000,-6034.000,0.000,0.000,0
2026-01-31 13:05:54,5629974,3683.000,5050.000,7381.000,-1463.000,70.000,-5548.000,0.000,0.000,0
2026-01-31 13:05:54,5630014,4252.000,4925.000,7514.000,-1090.000,983.000,-4632.000,0.000,0.000,0
2026-01-31 13:05:54,5630054,3545.000,4443.000,7526.000,170.000,1346.000,-3600.000,0.000,0.000,0
2026-01-31 13:05:54,5630094,3352.000,5140.000,7349.000,1581.000,873.000,-2403.000,0.000,0.000,0
2026-01-31 13:05:54,5630134,2726.000,5005.000,6765.000,800.000,554.000,-1668.000,0.000,0.000,0
2026-01-31 13:05:54,5630174,2082.000,4455.000,6130.000,468.000,243.000,-674.000,0.000,0.000,0
2026-01-31 13:05:54,5630214,2434.000,5491.000,6292.000,539.000,108.000,915.000,0.000,0.000,0
2026-01-31 13:05:54,5630254,2488.000,4927.000,5907.000,-635.000,341.000,1587.000,0.000,0.000,0
2026-01-31 13:05:54,5630294,1823.000,3532.000,5537.000,-624.000,400.000,1611.000,0.000,0.000,0
2026-01-31 13:05:54,5630334,395.000,4242.000,5378.000,2028.000,796.000,2297.000,0.000,0.000,0
2026-01-31 13:05:54,5630374,-109.000,4672.000,5568.000,465.000,929.000,2740.000,0.000,0.000,0
2026-01-31 13:05:55,5630414,-171.000,4699.000,5998.000,-569.000,749.000,2919.000,0.000,0.000,0
2026-01-31 13:05:55,5630454,-345.000,5258.000,6660.000,-369.000,551.000,2832.000,0.000,0.000,0
2026-01-31 13:05:55,5630494,-45.000,5701.000,7163.000,-576.000,326.000,2327.000,0.000,0.000,0
2026-01-31 13:05:55,5630534,878.000,5604.000,7747.000,-1409.000,269.000,1855.000,0.000,0.000,0
2026-01-31 13:05:55,5630574,1107.000,5028.000,7785.000,-1391.000,502.000,1621.000,0.000,0.000,0
2026-01-31 13:05:55,5630614,1190.000,5002.000,7785.000,-1150.000,487.000,1831.000,0.000,0.000,0
2026-01-31 13:05:55,5630654,2285.000,5722.000,8152.000,-784.000,88.000,2367.000,0.000,0.000,0
2026-01-31 13:05:55,5630694,3723.000,5535.000,8406.000,-1213.000,-253.000,1565.000,0.000,0.000,0
2026-01-31 13:05:55,5630734,2962.000,3431.000,6952.000,-630.000,60.000,418.000,0.000,0.000,0
2026-01-31 13:05:55,5630774,3483.000,2972.000,6643.000,621.000,219.000,287.000,0.000,0.000,0
2026-01-31 13:05:55,5630814,3637.000,2728.000,6095.000,1002.000,810.000,944.000,0.000,0.000,0
2026-01-31 13:05:55,5630854,2382.000,2026.000,5589.000,980.000,1013.000,1538.000,0.000,0.000,0
2026-01-31 13:05:55,5630894,1019.000,1890.000,5165.000,1743.000,787.000,1703.000,0.000,0.000,0
2026-01-31 13:05:55,5630934,401.000,2592.000,5119.000,1675.000,425.000,1721.000,0.000,0.000,0
2026-01-31 13:05:55,5630974,676.000,3136.000,5443.000,406.000,190.000,1629.000,0.000,0.000,0
2026-01-31 13:05:55,5631014,933.000,2888.000,5730.000,2.000,47.000,1290.000,0.000,0.000,0
2026-01-31 13:05:55,5631054,1827.000,3850.000,6992.000,942.000,-306.000,848.000,0.000,0.000,0
2026-01-31 13:05:55,5631094,1902.000,3762.000,7322.000,942.000,-245.000,-480.000,0.000,0.000,0
2026-01-31 13:05:55,5631134,2239.000,4007.000,7560.000,995.000,51.000,-1048.000,0.000,0.000,0
2026-01-31 13:05:55,5631174,2708.000,4841.000,7912.000,960.000,561.000,-1171.000,0.000,0.000,0
2026-01-31 13:05:55,5631214,2838.000,4921.000,8236.000,531.000,581.000,-1282.000,0.000,0.000,0
2026-01-31 13:05:55,5631254,3459.000,6471.000,8839.000,1148.000,149.000,-572.000,0.000,0.000,0
2026-01-31 13:05:55,5631294,4088.000,7703.000,9004.000,-486.000,112.000,-156.000,0.000,0.000,0
2026-01-31 13:05:55,5631334,2583.000,3988.000,6857.000,-1410.000,207.000,-1051.000,0.000,0.000,0
2026-01-31 13:05:55,5631374,2496.000,4523.000,6165.000,1629.000,155.000,-678.000,0.000,0.000,0
2026-01-31 13:05:56,5631414,3307.000,6812.000,6163.000,482.000,538.000,621.000,0.000,0.000,0
2026-01-31 13:05:56,5631454,2896.000,3466.000,5055.000,-2755.000,763.000,792.000,0.000,0.000,0
2026-01-31 13:05:56,5631494,2283.000,2496.000,4656.000,961.000,655.000,307.000,0.000,0.000,0
2026-01-31 13:05:56,5631534,1825.000,3841.000,4865.000,3183.000,890.000,667.000,0.000,0.000,0
2026-01-31 13:05:56,5631574,1343.000,4517.000,5051.000,845.000,1288.000,1293.000,0.000,0.000,0
2026-01-31 13:05:56,5631614,1106.000,4272.000,5339.000,-1086.000,1276.000,1978.000,0.000,0.000,0
2026-01-31 13:05:56,5631654,1048.000,4437.000,6067.000,-1097.000,846.000,2206.000,0.000,0.000,0
2026-01-31 13:05:56,5631694,1058.000,4679.000,6760.000,-638.000,219.000,1877.000,0.000,0.000,0
2026-01-31 13:05:56,5631734,1674.000,5155.000,7627.000,-366.000,-79.000,1693.000,0.000,0.000,0
2026-01-31 13:05:56,5631774,1679.000,4908.000,7599.000,-399.000,281.000,1697.000,0.000,0.000,0
2026-01-31 13:05:56,5631814,1583.000,5125.000,8002.000,-293.000,406.000,1677.000,0.000,0.000,0
2026-01-31 13:05:56,5631854,2953.000,6115.000,8891.000,-397.000,-102.000,2217.000,0.000,0.000,0
2026-01-31 13:05:56,5631894,3767.000,5631.000,9129.000,-1400.000,-454.000,1704.000,0.000,0.000,0
2026-01-31 13:05:56,5631934,4178.000,2968.000,7857.000,-950.000,-239.000,612.000,0.000,0.000,0
2026-01-31 13:05:56,5631974,3848.000,1322.000,5825.000,1978.000,837.000,322.000,0.000,0.000,0
2026-01-31 13:05:56,5632014,3660.000,2472.000,5168.000,4280.000,1714.000,1042.000,0.000,0.000,0
2026-01-31 13:05:56,5632054,3416.000,3820.000,5349.000,2672.000,1840.000,1681.000,0.000,0.000,0
2026-01-31 13:05:56,5632094,3087.000,3132.000,5253.000,-63.000,1298.000,1924.000,0.000,0.000,0
2026-01-31 13:05:56,5632136,2572.000,2394.000,4958.000,-163.000,764.000,1898.000,0.000,0.000,0
2026-01-31 13:05:56,5632174,2280.000,2805.000,5440.000,1055.000,422.000,1810.000,0.000,0.000,0
2026-01-31 13:05:56,5632214,2312.000,3563.000,6237.000,1248.000,383.000,1589.000,0.000,0.000,0
2026-01-31 13:05:56,5632254,2696.000,3374.000,6718.000,720.000,170.000,990.000,0.000,0.000,0
2026-01-31 13:05:56,5632294,3019.000,3104.000,7107.000,1059.000,169.000,372.000,0.000,0.000,0
2026-01-31 13:05:56,5632334,2872.000,2753.000,7261.000,1600.000,678.000,-72.000,0.000,0.000,0
2026-01-31 13:05:56,5632374,3501.000,3899.000,7728.000,1454.000,1568.000,105.000,0.000,0.000,0
2026-01-31 13:05:57,5632414,4048.000,3943.000,7758.000,165.000,2664.000,328.000,0.000,0.000,0
2026-01-31 13:05:57,5632454,3834.000,3580.000,7953.000,1104.000,2906.000,583.000,0.000,0.000,0
2026-01-31 13:05:57,5632494,4004.000,5875.000,8327.000,2711.000,2613.000,1389.000,0.000,0.000,0
2026-01-31 13:05:57,5632534,4376.000,7120.000,8385.000,434.000,2426.000,1998.000,0.000,0.000,0
2026-01-31 13:05:57,5632574,3313.000,3608.000,6386.000,-874.000,2565.000,1555.000,0.000,0.000,0
2026-01-31 13:05:57,5632614,3089.000,5122.000,5164.000,3863.000,3139.000,2606.000,0.000,0.000,0
2026-01-31 13:05:57,5632654,3921.000,6797.000,5148.000,1350.000,3587.000,3728.000,0.000,0.000,0
2026-01-31 13:05:57,5632694,3644.000,5163.000,5272.000,-1444.000,3467.000,4079.000,0.000,0.000,0
2026-01-31 13:05:57,5632734,2634.000,3176.000,5118.000,394.000,2948.000,3672.000,0.000,0.000,0
2026-01-31 13:05:57,5632774,1915.000,4160.000,5110.000,3593.000,2949.000,3817.000,0.000,0.000,0
2026-01-31 13:05:57,5632814,1352.000,5409.000,5425.000,2942.000,3433.000,4161.000,0.000,0.000,0
2026-01-31 13:05:57,5632854,1090.000,5039.000,5765.000,678.000,3423.000,4335.000,0.000,0.000,0
2026-01-31 13:05:57,5632894,1275.000,4795.000,6088.000,419.000,2983.000,4240.000,0.000,0.000,0
2026-01-31 13:05:57,5632934,1363.000,4789.000,6337.000,1242.000,2421.000,3956.000,0.000,0.000,0
2026-01-31 13:05:57,5632974,1087.000,4928.000,6593.000,1724.000,2024.000,3692.000,0.000,0.000,0
2026-01-31 13:05:57,5633014,659.000,5228.000,6900.000,921.000,1383.000,3548.000,0.000,0.000,0
2026-01-31 13:05:57,5633054,534.000,5097.000,7019.000,170.000,777.000,3252.000,0.000,0.000,0
2026-01-31 13:05:57,5633094,1300.000,5180.000,7272.000,-393.000,261.000,2957.000,0.000,0.000,0
2026-01-31 13:05:57,5633134,2815.000,5503.000,7659.000,-471.000,39.000,3119.000,0.000,0.000,0
2026-01-31 13:05:57,5633174,4638.000,6546.000,8760.000,-892.000,-182.000,3242.000,0.000,0.000,0
2026-01-31 13:05:57,5633214,5396.000,4544.000,7999.000,-1873.000,209.000,2587.000,0.000,0.000,0
2026-01-31 13:05:57,5633254,5334.000,2407.000,5807.000,706.000,1429.000,2414.000,0.000,0.000,0
2026-01-31 13:05:57,5633294,5232.000,3124.000,5096.000,3730.000,2431.000,2867.000,0.000,0.000,0
2026-01-31 13:05:57,5633334,5026.000,4302.000,5128.000,3381.000,2713.000,3393.000,0.000,0.000,0
2026-01-31 13:05:57,5633374,3368.000,3562.000,4621.000,1197.000,2597.000,3645.000,0.000,0.000,0
2026-01-31 13:05:58,5633414,2329.000,3308.000,4691.000,1030.000,1812.000,3638.000,0.000,0.000,0
2026-01-31 13:05:58,5633454,1821.000,3697.000,5207.000,1849.000,1234.000,3086.000,0.000,0.000,0
2026-01-31 13:05:58,5633494,1865.000,3909.000,5587.000,1693.000,766.000,2253.000,0.000,0.000,0
2026-01-31 13:05:58,5633534,2173.000,3804.000,6078.000,1347.000,613.000,1539.000,0.000,0.000,0
2026-01-31 13:05:58,5633574,2194.000,3522.000,6431.000,1463.000,578.000,768.000,0.000,0.000,0
2026-01-31 13:05:58,5633614,2058.000,3745.000,6769.000,1735.000,489.000,-86.000,0.000,0.000,0
2026-01-31 13:05:58,5633654,2280.000,4552.000,7159.000,1120.000,527.000,-634.000,0.000,0.000,0
2026-01-31 13:05:58,5633694,2798.000,4860.000,7307.000,271.000,881.000,-1073.000,0.000,0.000,0
2026-01-31 13:05:58,5633734,2937.000,4595.000,7418.000,19.000,1144.000,-1676.000,0.000,0.000,0
2026-01-31 13:05:58,5633774,3008.000,6545.000,7159.000,979.000,931.000,-1922.000,0.000,0.000,0
2026-01-31 13:05:58,5633814,3872.000,7607.000,6805.000,-519.000,643.000,-1519.000,0.000,0.000,0
2026-01-31 13:05:58,5633856,2777.000,5250.000,5261.000,-932.000,599.000,-1497.000,0.000,0.000,0
2026-01-31 13:05:58,5633895,2121.000,4687.000,4476.000,1258.000,-67.000,-1515.000,0.000,0.000,0
2026-01-31 13:05:58,5633937,2707.000,6548.000,4751.000,2183.000,-324.000,-779.000,0.000,0.000,0
2026-01-31 13:05:58,5633974,2413.000,6514.000,4648.000,324.000,54.000,-159.000,0.000,0.000,0
2026-01-31 13:05:58,5634014,1693.000,4745.000,4549.000,-190.000,-192.000,-325.000,0.000,0.000,0
2026-01-31 13:05:58,5634054,1619.000,4833.000,4564.000,1750.000,-623.000,-447.000,0.000,0.000,0
2026-01-31 13:05:58,5634094,1673.000,5808.000,4608.000,2628.000,-628.000,-195.000,0.000,0.000,0
2026-01-31 13:05:58,5634137,1753.000,6019.000,5033.000,1431.000,-518.000,167.000,0.000,0.000,0
2026-01-31 13:05:58,5634175,2223.000,6103.000,5257.000,709.000,-291.000,760.000,0.000,0.000,0
2026-01-31 13:05:58,5634214,2619.000,6588.000,5605.000,340.000,-113.000,1209.000,0.000,0.000,0
2026-01-31 13:05:58,5634254,2657.000,6279.000,5533.000,138.000,29.000,1523.000,0.000,0.000,0
2026-01-31 13:05:58,5634294,2403.000,5816.000,5401.000,618.000,6.000,1616.000,0.000,0.000,0
2026-01-31 13:05:58,5634334,2234.000,5217.000,5643.000,853.000,-127.000,1732.000,0.000,0.000,0
2026-01-31 13:05:58,5634374,2103.000,5624.000,5946.000,1141.000,-22.000,2266.000,0.000,0.000,0
2026-01-31 13:05:59,5634414,2215.000,6059.000,6214.000,-218.000,119.000,2706.000,0.000,0.000,0
2026-01-31 13:05:59,5634454,2116.000,5462.000,6284.000,-1570.000,8.000,2541.000,0.000,0.000,0
2026-01-31 13:05:59,5634494,1590.000,4339.000,6379.000,-2254.000,-37.000,1503.000,0.000,0.000,0
2026-01-31 13:05:59,5634534,2075.000,4355.000,5738.000,-2078.000,6.000,665.000,0.000,0.000,0
2026-01-31 13:05:59,5634574,2271.000,4709.000,4727.000,-383.000,555.000,672.000,0.000,0.000,0
2026-01-31 13:05:59,5634614,2413.000,4356.000,4240.000,1119.000,638.000,753.000,0.000,0.000,0
2026-01-31 13:05:59,5634654,2941.000,4165.000,4154.000,4560.000,761.000,666.000,0.000,0.000,0
2026-01-31 13:05:59,5634694,3222.000,5943.000,3504.000,8705.000,963.000,135.000,0.000,0.000,0
2026-01-31 13:05:59,5634734,3362.000,5822.000,3135.000,9836.000,653.000,-268.000,0.000,0.000,0
2026-01-31 13:05:59,5634774,3917.000,5309.000,2753.000,10239.000,267.000,-389.000,0.000,0.000,0
2026-01-31 13:05:59,5634814,4443.000,5791.000,1235.000,13665.000,-196.000,92.000,0.000,0.000,0
2026-01-31 13:05:59,5634854,5151.000,6633.000,972.000,15659.000,-444.000,912.000,0.000,0.000,0
2026-01-31 13:05:59,5634894,5159.000,7154.000,-520.000,15083.000,-559.000,1774.000,0.000,0.000,0
2026-01-31 13:05:59,5634934,5473.000,7976.000,-1378.000,13212.000,-696.000,2291.000,0.000,0.000,0
2026-01-31 13:05:59,5634974,5651.000,6394.000,-2640.000,6228.000,-676.000,2299.000,0.000,0.000,0
2026-01-31 13:05:59,5635014,6054.000,6173.000,-2488.000,6075.000,-591.000,1893.000,0.000,0.000,0
2026-01-31 13:05:59,5635054,5163.000,5159.000,-3435.000,5536.000,-84.000,1332.000,0.000,0.000,0
2026-01-31 13:05:59,5635094,5693.000,6086.000,-3967.000,5255.000,-42.000,1445.000,0.000,0.000,0
2026-01-31 13:05:59,5635134,4904.000,5423.000,-4133.000,3804.000,47.000,1086.000,0.000,0.000,0
2026-01-31 13:05:59,5635174,4571.000,5674.000,-4524.000,3415.000,-444.000,901.000,0.000,0.000,0
2026-01-31 13:05:59,5635214,4315.000,4994.000,-4236.000,1799.000,-715.000,600.000,0.000,0.000,0
2026-01-31 13:05:59,5635254,4286.000,5439.000,-4461.000,787.000,-875.000,705.000,0.000,0.000,0
2026-01-31 13:05:59,5635294,4574.000,5309.000,-4032.000,574.000,-832.000,452.000,0.000,0.000,0
2026-01-31 13:05:59,5635334,4962.000,5132.000,-4677.000,-1290.000,-896.000,147.000,0.000,0.000,0
2026-01-31 13:05:59,5635374,5100.000,4948.000,-4359.000,-1295.000,-1118.000,-119.000,0.000,0.000,0
2026-01-31 13:06:00,5635414,5121.000,4824.000,-3801.000,-410.000,-809.000,-30.000,0.000,0.000,0
2026-01-31 13:06:00,5635454,5171.000,5137.000,-3502.000,824.000,-227.000,-64.000,0.000,0.000,0
2026-01-31 13:06:00,5635494,5198.000,5257.000,-3677.000,574.000,352.000,-89.000,0.000,0.000,0
2026-01-31 13:06:00,5635534,5047.000,5122.000,-3835.000,704.000,802.000,46.000,0.000,0.000,0
2026-01-31 13:06:00,5635574,4773.000,5504.000,-3701.000,653.000,1093.000,230.000,0.000,0.000,0
2026-01-31 13:06:00,5635614,4728.000,4871.000,-4228.000,-607.000,1290.000,250.000,0.000,0.000,0
2026-01-31 13:06:00,5635654,4277.000,4391.000,-5290.000,764.000,1138.000,636.000,0.000,0.000,0
2026-01-31 13:06:00,5635694,3708.000,4877.000,-5610.000,-256.000,283.000,455.000,0.000,0.000,0
2026-01-31 13:06:00,5635734,3672.000,4413.000,-4563.000,-1458.000,-1036.000,268.000,0.000,0.000,0
2026-01-31 13:06:00,5635774,3683.000,4840.000,-4541.000,94.000,-1118.000,538.000,0.000,0.000,0
2026-01-31 13:06:00,5635814,3545.000,5855.000,-4442.000,-356.000,-1305.000,362.000,0.000,0.000,0
2026-01-31 13:06:00,5635854,3017.000,6345.000,-4546.000,-1304.000,-1607.000,-393.000,0.000,0.000,0
2026-01-31 13:06:00,5635894,3364.000,5794.000,-3406.000,-746.000,-1596.000,-573.000,0.000,0.000,0
2026-01-31 13:06:00,5635934,4436.000,4399.000,-2286.000,-134.000,-587.000,-203.000,0.000,0.000,0
2026-01-31 13:06:00,5635974,4936.000,4876.000,-4000.000,765.000,391.000,127.000,0.000,0.000,0
2026-01-31 13:06:00,5636014,4776.000,5157.000,-3783.000,599.000,335.000,513.000,0.000,0.000,0
2026-01-31 13:06:00,5636054,5061.000,4983.000,-4634.000,238.000,363.000,473.000,0.000,0.000,0
2026-01-31 13:06:00,5636094,4267.000,5545.000,-4872.000,-62.000,-182.000,-249.000,0.000,0.000,0
2026-01-31 13:06:00,5636137,4264.000,4802.000,-4153.000,-1139.000,-567.000,-101.000,0.000,0.000,0
2026-01-31 13:06:00,5636174,3486.000,5959.000,-3726.000,-1144.000,-623.000,260.000,0.000,0.000,0
2026-01-31 13:06:00,5636214,3458.000,5261.000,-3697.000,-3462.000,-730.000,459.000,0.000,0.000,0
2026-01-31 13:06:00,5636254,3419.000,4995.000,-2825.000,-834.000,-285.000,781.000,0.000,0.000,0
2026-01-31 13:06:00,5636294,3384.000,6691.000,-2514.000,-879.000,304.000,991.000,0.000,0.000,0
2026-01-31 13:06:00,5636334,3263.000,8058.000,-4231.000,-769.000,1877.000,-182.000,0.000,0.000,0
2026-01-31 13:06:00,5636374,3691.000,4094.000,-5513.000,-246.000,1462.000,384.000,0.000,0.000,0
2026-01-31 13:06:01,5636414,5171.000,3960.000,-3147.000,-1297.000,254.000,1221.000,0.000,0.000,0
2026-01-31 13:06:01,5636454,4473.000,4771.000,-5582.000,-1228.000,1121.000,419.000,0.000,0.000,0
2026-01-31 13:06:01,5636494,6319.000,7200.000,-4034.000,4004.000,553.000,-1739.000,0.000,0.000,0
2026-01-31 13:06:01,5636534,5897.000,4431.000,-5523.000,1970.000,-1204.000,-2364.000,0.000,0.000,0
2026-01-31 13:06:01,5636574,4555.000,3605.000,-2708.000,832.000,-3042.000,-1765.000,0.000,0.000,0
2026-01-31 13:06:01,5636614,3647.000,6298.000,-1219.000,-1397.000,-3314.000,-824.000,0.000,0.000,0
2026-01-31 13:06:01,5636654,2070.000,6542.000,-4145.000,1439.000,-2023.000,-63.000,0.000,0.000,0
2026-01-31 13:06:01,5636694,1679.000,5665.000,-3227.000,-4643.000,-607.000,795.000,0.000,0.000,0
2026-01-31 13:06:01,5636734,3432.000,6887.000,-1766.000,522.000,751.000,617.000,0.000,0.000,0
2026-01-31 13:06:01,5636774,4992.000,4820.000,-1798.000,-3441.000,1789.000,1209.000,0.000,0.000,0
2026-01-31 13:06:01,5636814,4646.000,4439.000,-6160.000,-4799.000,1901.000,930.000,0.000,0.000,0
2026-01-31 13:06:01,5636854,4252.000,3836.000,-3294.000,-4475.000,508.000,700.000,0.000,0.000,0
2026-01-31 13:06:01,5636894,6107.000,3270.000,-4256.000,12727.000,3718.000,1594.000,0.000,0.000,0
2026-01-31 13:06:01,5636934,6969.000,8331.000,-6082.000,5409.000,1092.000,-1359.000,0.000,0.000,0
2026-01-31 13:06:01,5636974,4678.000,3365.000,-3130.000,2684.000,292.000,-1595.000,0.000,0.000,0
2026-01-31 13:06:01,5637014,5714.000,5657.000,-7537.000,2388.000,-1693.000,-344.000,0.000,0.000,0
2026-01-31 13:06:01,5637054,3864.000,5249.000,-7989.000,-661.000,-4048.000,-577.000,0.000,0.000,0
2026-01-31 13:06:01,5637094,3237.000,2494.000,-2370.000,-8335.000,-5422.000,-553.000,0.000,0.000,0
2026-01-31 13:06:01,5637134,1387.000,5114.000,-753.000,-19.000,-3424.000,-296.000,0.000,0.000,0
2026-01-31 13:06:01,5637174,3358.000,8061.000,1766.000,1464.000,157.000,760.000,0.000,0.000,0
2026-01-31 13:06:01,5637214,5161.000,6669.000,-3310.000,3314.000,1793.000,-517.000,0.000,0.000,0
2026-01-31 13:06:01,5637254,3072.000,8065.000,-6150.000,-1657.000,720.000,1603.000,0.000,0.000,0
2026-01-31 13:06:01,5637294,2135.000,-24.000,-5195.000,1325.000,2331.000,738.000,0.000,0.000,0
2026-01-31 13:06:01,5637334,5591.000,5944.000,-4459.000,3799.000,194.000,346.000,0.000,0.000,0
2026-01-31 13:06:01,5637374,3762.000,5071.000,-6191.000,-3993.000,811.000,-777.000,0.000,0.000,0
2026-01-31 13:06:02,5637414,4476.000,6195.000,-4544.000,-7764.000,447.000,30.000,0.000,0.000,0
2026-01-31 13:06:02,5637454,8581.000,14699.000,-3947.000,11977.000,1346.000,693.000,0.000,0.000,0
2026-01-31 13:06:02,5637494,3547.000,2299.000,-5708.000,-4033.000,1537.000,-1645.000,0.000,0.000,0
2026-01-31 13:06:02,5637534,5019.000,3884.000,-4095.000,-556.000,170.000,431.000,0.000,0.000,0
2026-01-31 13:06:02,5637574,5763.000,4941.000,-5191.000,-4263.000,-355.000,549.000,0.000,0.000,0
2026-01-31 13:06:02,5637614,4303.000,6211.000,-5945.000,-4622.000,-1712.000,-635.000,0.000,0.000,0
2026-01-31 13:06:02,5637654,2898.000,3947.000,-1789.000,-4872.000,-2241.000,-18.000,0.000,0.000,0
2026-01-31 13:06:02,5637694,4647.000,7105.000,2030.000,5321.000,548.000,31.000,0.000,0.000,0
2026-01-31 13:06:02,5637734,6162.000,7603.000,-1834.000,6934.000,727.000,-1411.000,0.000,0.000,0
2026-01-31 13:06:02,5637774,3201.000,3882.000,-2437.000,5217.000,1704.000,-85.000,0.000,0.000,0
2026-01-31 13:06:02,5637814,3724.000,3035.000,-7597.000,1997.000,1196.000,2368.000,0.000,0.000,0
2026-01-31 13:06:02,5637854,3946.000,4595.000,-4094.000,-2617.000,99.000,1729.000,0.000,0.000,0
2026-01-31 13:06:02,5637894,4090.000,2967.000,-4826.000,-344.000,1380.000,931.000,0.000,0.000,0
2026-01-31 13:06:02,5637934,3790.000,11275.000,-3583.000,-2209.000,867.000,-369.000,0.000,0.000,0
2026-01-31 13:06:02,5637974,8254.000,4039.000,-2147.000,-9341.000,398.000,-755.000,0.000,0.000,0
2026-01-31 13:06:02,5638014,4514.000,7700.000,-3254.000,-90.000,-1312.000,-648.000,0.000,0.000,0
2026-01-31 13:06:02,5638054,3124.000,12038.000,-6252.000,-21813.000,-2454.000,-61.000,0.000,0.000,0
2026-01-31 13:06:02,5638094,4298.000,-2372.000,1322.000,-8435.000,-1982.000,883.000,0.000,0.000,0
2026-01-31 13:06:02,5638136,5705.000,6599.000,1236.000,5218.000,1145.000,963.000,0.000,0.000,0
2026-01-31 13:06:02,5638174,5251.000,3420.000,-3223.000,10024.000,1746.000,-4.000,0.000,0.000,0
2026-01-31 13:06:02,5638214,1637.000,8276.000,-7382.000,22658.000,1034.000,-1601.000,0.000,0.000,0
2026-01-31 13:06:02,5638254,4998.000,3581.000,-6508.000,15843.000,-1098.000,756.000,0.000,0.000,0
2026-01-31 13:06:02,5638294,4816.000,-1366.000,-1545.000,-8700.000,-1667.000,667.000,0.000,0.000,0
2026-01-31 13:06:02,5638334,5162.000,5370.000,-3492.000,-6394.000,909.000,77.000,0.000,0.000,0
2026-01-31 13:06:02,5638374,5028.000,2849.000,-4981.000,-25057.000,223.000,648.000,0.000,0.000,0
2026-01-31 13:06:03,5638414,6361.000,9059.000,1290.000,-9215.000,-652.000,-461.000,0.000,0.000,0
2026-01-31 13:06:03,5638454,7508.000,5591.000,-1377.000,-14913.000,154.000,34.000,0.000,0.000,0
2026-01-31 13:06:03,5638494,7307.000,7422.000,767.000,-12330.000,-1076.000,135.000,0.000,0.000,0
2026-01-31 13:06:03,5638534,6671.000,9078.000,1248.000,-19483.000,533.000,-1435.000,0.000,0.000,0
2026-01-31 13:06:03,5638574,3849.000,4510.000,1794.000,-16763.000,1637.000,-410.000,0.000,0.000,0
2026-01-31 13:06:03,5638614,3064.000,8339.000,2257.000,-13137.000,867.000,389.000,0.000,0.000,0
2026-01-31 13:06:03,5638654,2173.000,1681.000,2811.000,-15223.000,-11.000,721.000,0.000,0.000,0
2026-01-31 13:06:03,5638694,3146.000,1513.000,4801.000,-6748.000,-547.000,1861.000,0.000,0.000,0
2026-01-31 13:06:03,5638734,4514.000,5686.000,8049.000,494.000,1042.000,2329.000,0.000,0.000,0
2026-01-31 13:06:03,5638774,4150.000,5382.000,7872.000,-272.000,1686.000,3064.000,0.000,0.000,0
2026-01-31 13:06:03,5638814,4606.000,6352.000,7130.000,-4021.000,612.000,2772.000,0.000,0.000,0
2026-01-31 13:06:03,5638854,8173.000,8445.000,14730.000,-5026.000,3973.000,1281.000,0.000,0.000,0
2026-01-31 13:06:03,5638894,7180.000,3703.000,-733.000,-7258.000,1120.000,2876.000,0.000,0.000,0
2026-01-31 13:06:03,5638934,6821.000,-2384.000,6838.000,1987.000,426.000,628.000,0.000,0.000,0
2026-01-31 13:06:03,5638974,8037.000,6866.000,9143.000,15028.000,5679.000,566.000,0.000,0.000,0
2026-01-31 13:06:03,5639014,5923.000,4942.000,5971.000,9743.000,8086.000,-451.000,0.000,0.000,0
2026-01-31 13:06:03,5639054,4632.000,2847.000,2959.000,6704.000,7881.000,-458.000,0.000,0.000,0
2026-01-31 13:06:03,5639094,3120.000,2831.000,2294.000,7965.000,6511.000,271.000,0.000,0.000,0
2026-01-31 13:06:03,5639134,2291.000,1863.000,2306.000,9938.000,4096.000,1673.000,0.000,0.000,0
2026-01-31 13:06:03,5639174,2768.000,12376.000,8130.000,10541.000,1968.000,4820.000,0.000,0.000,0
2026-01-31 13:06:03,5639214,499.000,8310.000,3389.000,-31076.000,255.000,9684.000,0.000,0.000,0
2026-01-31 13:06:03,5639254,5476.000,-8617.000,449.000,-28717.000,-4759.000,7348.000,0.000,0.000,0
2026-01-31 13:06:03,5639294,9149.000,-8191.000,6626.000,3124.000,-2586.000,5628.000,0.000,0.000,0
2026-01-31 13:06:03,5639334,4824.000,8124.000,7600.000,19596.000,2166.000,4814.000,0.000,0.000,0
2026-01-31 13:06:03,5639374,1708.000,6571.000,7148.000,9914.000,2739.000,3964.000,0.000,0.000,0
2026-01-31 13:06:04,5639414,1288.000,344.000,3984.000,1872.000,1679.000,5850.000,0.000,0.000,0
2026-01-31 13:06:04,5639454,2351.000,-13.000,2440.000,5579.000,-154.000,7715.000,0.000,0.000,0
2026-01-31 13:06:04,5639494,5618.000,4913.000,9455.000,8655.000,291.000,8109.000,0.000,0.000,0
2026-01-31 13:06:04,5639534,5566.000,3586.000,6792.000,5418.000,1582.000,7289.000,0.000,0.000,0
2026-01-31 13:06:04,5639574,5189.000,6080.000,5648.000,1225.000,319.000,5274.000,0.000,0.000,0
2026-01-31 13:06:04,5639614,7424.000,824.000,12852.000,1150.000,733.000,5585.000,0.000,0.000,0
2026-01-31 13:06:04,5639654,-2643.000,5786.000,1293.000,9968.000,5179.000,3473.000,0.000,0.000,0
2026-01-31 13:06:04,5639694,5401.000,-8150.000,5653.000,-1730.000,-458.000,5523.000,0.000,0.000,0
2026-01-31 13:06:04,5639734,9111.000,489.000,6990.000,11033.000,2033.000,3450.000,0.000,0.000,0
2026-01-31 13:06:04,5639774,5944.000,5526.000,7084.000,20346.000,5360.000,1507.000,0.000,0.000,0
2026-01-31 13:06:04,5639814,5468.000,5722.000,6199.000,18072.000,6143.000,584.000,0.000,0.000,0
2026-01-31 13:06:04,5639856,4622.000,5389.000,4353.000,11981.000,6762.000,-92.000,0.000,0.000,0
2026-01-31 13:06:04,5639896,3122.000,3300.000,2689.000,7146.000,6830.000,250.000,0.000,0.000,0
2026-01-31 13:06:04,5639934,2260.000,2227.000,1592.000,7249.000,6117.000,1590.000,0.000,0.000,0
2026-01-31 13:06:04,5639974,3073.000,-819.000,-794.000,19671.000,5545.000,5261.000,0.000,0.000,0
2026-01-31 13:06:04,5640014,4164.000,154.000,-5321.000,32170.000,6852.000,7164.000,0.000,0.000,0
2026-01-31 13:06:04,5640054,5887.000,12567.000,-7285.000,31810.000,8127.000,8275.000,0.000,0.000,0
2026-01-31 13:06:04,5640094,7707.000,26544.000,-8091.000,-6797.000,11091.000,5952.000,0.000,0.000,0
2026-01-31 13:06:04,5640134,2268.000,15972.000,-17795.000,32762.000,4558.000,7638.000,0.000,0.000,0
2026-01-31 13:06:04,5640174,6908.000,-23491.000,-9732.000,-32751.000,-7794.000,5043.000,0.000,0.000,0
2026-01-31 13:06:04,5640214,8282.000,-10075.000,3434.000,6604.000,-5641.000,1202.000,0.000,0.000,0
2026-01-31 13:06:04,5640254,8815.000,14955.000,5955.000,31766.000,566.000,1273.000,0.000,0.000,0
2026-01-31 13:06:04,5640294,3995.000,10459.000,6298.000,9649.000,1068.000,818.000,0.000,0.000,0
2026-01-31 13:06:04,5640334,3643.000,2630.000,5777.000,-5714.000,153.000,1453.000,0.000,0.000,0
2026-01-31 13:06:04,5640374,5108.000,2531.000,6543.000,-1532.000,-348.000,963.000,0.000,0.000,0
2026-01-31 13:06:05,5640414,6543.000,4014.000,6989.000,2558.000,-187.000,36.000,0.000,0.000,0
2026-01-31 13:06:05,5640454,6192.000,3322.000,5367.000,1830.000,649.000,-1372.000,0.000,0.000,0
2026-01-31 13:06:05,5640494,6330.000,3568.000,4696.000,2066.000,895.000,-2299.000,0.000,0.000,0
2026-01-31 13:06:05,5640534,6404.000,4504.000,5207.000,1443.000,1070.000,-2762.000,0.000,0.000,0
2026-01-31 13:06:05,5640574,6420.000,4736.000,6132.000,-224.000,1154.000,-2693.000,0.000,0.000,0
2026-01-31 13:06:05,5640614,6590.000,3738.000,6008.000,-1999.000,1696.000,-2744.000,0.000,0.000,0
2026-01-31 13:06:05,5640654,6913.000,2694.000,4675.000,-1498.000,2495.000,-2397.000,0.000,0.000,0
2026-01-31 13:06:05,5640694,8034.000,3914.000,4212.000,-355.000,2257.000,-1127.000,0.000,0.000,0
2026-01-31 13:06:05,5640734,7373.000,3736.000,4666.000,-2040.000,1863.000,-962.000,0.000,0.000,0
2026-01-31 13:06:05,5640774,6318.000,1872.000,3790.000,-2706.000,1715.000,-1665.000,0.000,0.000,0
2026-01-31 13:06:05,5640814,5532.000,1261.000,3161.000,-1091.000,944.000,-1631.000,0.000,0.000,0
2026-01-31 13:06:05,5640854,4914.000,2087.000,3965.000,929.000,42.000,-1133.000,0.000,0.000,0
2026-01-31 13:06:05,5640894,4338.000,2936.000,4165.000,1130.000,-586.000,-640.000,0.000,0.000,0
2026-01-31 13:06:05,5640934,4381.000,3393.000,3883.000,-802.000,-1096.000,-139.000,0.000,0.000,0
2026-01-31 13:06:05,5640974,4944.000,3652.000,4200.000,-3185.000,-1241.000,300.000,0.000,0.000,0
2026-01-31 13:06:05,5641014,5801.000,4027.000,4640.000,-4798.000,-1032.000,401.000,0.000,0.000,0
2026-01-31 13:06:05,5641054,6509.000,3323.000,4791.000,-5620.000,-705.000,-23.000,0.000,0.000,0
2026-01-31 13:06:05,5641094,6846.000,2465.000,5207.000,-4411.000,-455.000,-629.000,0.000,0.000,0
2026-01-31 13:06:05,5641134,6217.000,1334.000,5227.000,32.000,-258.000,-1597.000,0.000,0.000,0
2026-01-31 13:06:05,5641174,5653.000,1835.000,5291.000,2688.000,-298.000,-1869.000,0.000,0.000,0
2026-01-31 13:06:05,5641214,5355.000,2796.000,5449.000,3007.000,-220.000,-1925.000,0.000,0.000,0
2026-01-31 13:06:05,5641254,5440.000,3312.000,5287.000,1578.000,-51.000,-1748.000,0.000,0.000,0
2026-01-31 13:06:05,5641294,5447.000,3237.000,5232.000,-542.000,228.000,-1712.000,0.000,0.000,0
2026-01-31 13:06:05,5641334,5566.000,2396.000,5209.000,-1725.000,413.000,-1645.000,0.000,0.000,0
2026-01-31 13:06:05,5641374,5653.000,2282.000,5353.000,-1150.000,567.000,-1545.000,0.000,0.000,0
2026-01-31 13:06:06,5641414,5658.000,2548.000,5425.000,1.000,769.000,-1381.000,0.000,0.000,0
2026-01-31 13:06:06,5641454,5516.000,3039.000,5251.000,707.000,921.000,-1252.000,0.000,0.000,0
2026-01-31 13:06:06,5641494,5010.000,3286.000,5125.000,862.000,978.000,-1110.000,0.000,0.000,0
2026-01-31 13:06:06,5641534,4970.000,3563.000,5285.000,830.000,802.000,-857.000,0.000,0.000,0
2026-01-31 13:06:06,5641574,5083.000,3535.000,5031.000,952.000,813.000,-695.000,0.000,0.000,0
2026-01-31 13:06:06,5641614,4989.000,3774.000,5179.000,1311.000,722.000,-543.000,0.000,0.000,0
2026-01-31 13:06:06,5641654,4576.000,3984.000,5203.000,1784.000,624.000,-468.000,0.000,0.000,0
2026-01-31 13:06:06,5641694,4175.000,4091.000,4982.000,2196.000,407.000,-401.000,0.000,0.000,0
2026-01-31 13:06:06,5641734,4071.000,4292.000,5034.000,3254.000,60.000,-297.000,0.000,0.000,0
2026-01-31 13:06:06,5641774,3775.000,5303.000,5275.000,4613.000,-472.000,-251.000,0.000,0.000,0
2026-01-31 13:06:06,5641814,4062.000,6640.000,5434.000,3862.000,-456.000,-413.000,0.000,0.000,0
2026-01-31 13:06:06,5641854,4106.000,6250.000,5221.000,1572.000,-111.000,-869.000,0.000,0.000,0
2026-01-31 13:06:06,5641894,3894.000,5087.000,4759.000,1251.000,395.000,-1310.000,0.000,0.000,0
2026-01-31 13:06:06,5641934,3998.000,5568.000,4847.000,2127.000,481.000,-1412.000,0.000,0.000,0
2026-01-31 13:06:06,5641974,4001.000,5767.000,4873.000,2064.000,590.000,-1386.000,0.000,0.000,0
2026-01-31 13:06:06,5642014,3858.000,5664.000,4491.000,1652.000,660.000,-1295.000,0.000,0.000,0
2026-01-31 13:06:06,5642054,3529.000,6489.000,4547.000,1464.000,601.000,-1398.000,0.000,0.000,0
2026-01-31 13:06:06,5642094,3376.000,6267.000,4491.000,317.000,499.000,-1733.000,0.000,0.000,0
2026-01-31 13:06:06,5642136,2995.000,5705.000,4316.000,408.000,401.000,-1889.000,0.000,0.000,0
2026-01-31 13:06:06,5642174,2678.000,6822.000,4392.000,1466.000,235.000,-1952.000,0.000,0.000,0
2026-01-31 13:06:06,5642214,2173.000,7304.000,3927.000,937.000,-59.000,-2413.000,0.000,0.000,0
2026-01-31 13:06:06,5642254,1826.000,7087.000,3637.000,444.000,-695.000,-2890.000,0.000,0.000,0
2026-01-31 13:06:06,5642294,891.000,7391.000,3455.000,1577.000,-1204.000,-3389.000,0.000,0.000,0
2026-01-31 13:06:06,5642334,625.000,7060.000,3001.000,1992.000,-1739.000,-3725.000,0.000,0.000,0
2026-01-31 13:06:06,5642374,655.000,7274.000,3122.000,3661.000,-2200.000,-3646.000,0.000,0.000,0
2026-01-31 13:06:07,5642414,916.000,7060.000,2357.000,5445.000,-2412.000,-3171.000,0.000,0.000,0
2026-01-31 13:06:07,5642454,1290.000,7690.000,2015.000,9736.000,-2572.000,-2409.000,0.000,0.000,0
2026-01-31 13:06:07,5642494,1483.000,7497.000,1226.000,12695.000,-2434.000,-1893.000,0.000,0.000,0
2026-01-31 13:06:07,5642534,1494.000,7061.000,552.000,16196.000,-2080.000,-1421.000,0.000,0.000,0
2026-01-31 13:06:07,5642574,1823.000,8976.000,-746.000,17009.000,-783.000,-924.000,0.000,0.000,0
2026-01-31 13:06:07,5642614,1241.000,7551.000,-2345.000,14173.000,260.000,-878.000,0.000,0.000,0
2026-01-31 13:06:07,5642654,992.000,8345.000,-3313.000,12088.000,1133.000,-1569.000,0.000,0.000,0
2026-01-31 13:06:07,5642694,338.000,7969.000,-4753.000,7822.000,1845.000,-2090.000,0.000,0.000,0
2026-01-31 13:06:07,5642734,592.000,7471.000,-6070.000,2586.000,1801.000,-2346.000,0.000,0.000,0
2026-01-31 13:06:07,5642774,1410.000,7097.000,-6156.000,-2652.000,1663.000,-2408.000,0.000,0.000,0
2026-01-31 13:06:07,5642814,1976.000,6747.000,-6355.000,-2476.000,1263.000,-2179.000,0.000,0.000,0
2026-01-31 13:06:07,5642854,2343.000,5627.000,-5446.000,-3362.000,880.000,-1978.000,0.000,0.000,0
2026-01-31 13:06:07,5642894,1178.000,4830.000,-4680.000,-3588.000,767.000,-1877.000,0.000,0.000,0
2026-01-31 13:06:07,5642934,493.000,4604.000,-3702.000,-1621.000,563.000,-1377.000,0.000,0.000,0
2026-01-31 13:06:07,5642974,392.000,4600.000,-3589.000,-1093.000,836.000,-758.000,0.000,0.000,0
2026-01-31 13:06:07,5643014,1440.000,6061.000,-3723.000,-35.000,1118.000,257.000,0.000,0.000,0
2026-01-31 13:06:07,5643054,938.000,6172.000,-3504.000,-477.000,1242.000,813.000,0.000,0.000,0
2026-01-31 13:06:07,5643094,1628.000,7011.000,-3311.000,-402.000,568.000,1048.000,0.000,0.000,0
2026-01-31 13:06:07,5643134,1885.000,6786.000,-3814.000,-2321.000,543.000,794.000,0.000,0.000,0
2026-01-31 13:06:07,5643174,2275.000,7044.000,-3267.000,-1411.000,40.000,453.000,0.000,0.000,0
2026-01-31 13:06:07,5643214,2227.000,6358.000,-3281.000,-1357.000,-204.000,-36.000,0.000,0.000,0
2026-01-31 13:06:07,5643254,2029.000,7278.000,-3201.000,-148.000,-474.000,-43.000,0.000,0.000,0
2026-01-31 13:06:07,5643294,2419.000,7602.000,-3260.000,-677.000,-636.000,-363.000,0.000,0.000,0
2026-01-31 13:06:07,5643334,2401.000,7583.000,-3571.000,-1764.000,-511.000,-450.000,0.000,0.000,0
2026-01-31 13:06:07,5643374,2997.000,8279.000,-3437.000,-2748.000,-420.000,-467.000,0.000,0.000,0
2026-01-31 13:06:08,5643414,2066.000,7683.000,-3638.000,-2814.000,451.000,-278.000,0.000,0.000,0
2026-01-31 13:06:08,5643454,-480.000,7070.000,-4096.000,-1361.000,1157.000,-58.000,0.000,0.000,0
2026-01-31 13:06:08,5643494,-911.000,6402.000,-4114.000,-1769.000,712.000,-588.000,0.000,0.000,0
2026-01-31 13:06:08,5643534,-1077.000,6346.000,-4527.000,-1784.000,313.000,-709.000,0.000,0.000,0
2026-01-31 13:06:08,5643574,-236.000,6589.000,-4433.000,-1518.000,-431.000,-486.000,0.000,0.000,0
2026-01-31 13:06:08,5643614,423.000,7171.000,-3451.000,-1683.000,-1202.000,-149.000,0.000,0.000,0
2026-01-31 13:06:08,5643654,248.000,7447.000,-2784.000,-3293.000,-1629.000,-31.000,0.000,0.000,0
2026-01-31 13:06:08,5643694,-379.000,6179.000,-2752.000,-4207.000,-1744.000,-12.000,0.000,0.000,0
2026-01-31 13:06:08,5643734,-1059.000,6073.000,-2648.000,-2290.000,-1830.000,480.000,0.000,0.000,0
2026-01-31 13:06:08,5643774,-1003.000,7008.000,-2513.000,-607.000,-2114.000,1132.000,0.000,0.000,0
2026-01-31 13:06:08,5643816,-1035.000,7864.000,-1683.000,-212.000,-2512.000,1564.000,0.000,0.000,0
2026-01-31 13:06:08,5643856,-761.000,7985.000,-1983.000,-1096.000,-2815.000,1655.000,0.000,0.000,0
2026-01-31 13:06:08,5643894,37.000,8196.000,-1574.000,-1148.000,-3371.000,1707.000,0.000,0.000,0
2026-01-31 13:06:08,5643934,733.000,8253.000,-1083.000,-1240.000,-3417.000,1731.000,0.000,0.000,0
2026-01-31 13:06:08,5643974,1316.000,7902.000,-1059.000,-1330.000,-3227.000,1832.000,0.000,0.000,0
2026-01-31 13:06:08,5644014,2318.000,7609.000,-957.000,-1199.000,-3052.000,2066.000,0.000,0.000,0
2026-01-31 13:06:08,5644054,3241.000,8301.000,-1168.000,-509.000,-2096.000,2910.000,0.000,0.000,0
2026-01-31 13:06:08,5644094,3903.000,8613.000,-1718.000,-367.000,-847.000,3846.000,0.000,0.000,0
2026-01-31 13:06:08,5644137,4225.000,9275.000,-1486.000,-227.000,223.000,4647.000,0.000,0.000,0
2026-01-31 13:06:08,5644174,3824.000,9296.000,-1528.000,-1537.000,879.000,4598.000,0.000,0.000,0
2026-01-31 13:06:08,5644214,3352.000,7467.000,-1247.000,-3237.000,951.000,3248.000,0.000,0.000,0
2026-01-31 13:06:08,5644254,3041.000,6915.000,-1116.000,-2442.000,989.000,2238.000,0.000,0.000,0
2026-01-31 13:06:08,5644294,2791.000,6352.000,-565.000,-1265.000,1163.000,1231.000,0.000,0.000,0
2026-01-31 13:06:08,5644334,2188.000,5709.000,-308.000,60.000,1521.000,485.000,0.000,0.000,0
2026-01-31 13:06:08,5644374,1970.000,5737.000,-155.000,1014.000,1611.000,66.000,0.000,0.000,0
2026-01-31 13:06:09,5644414,1965.000,5823.000,289.000,668.000,1587.000,-95.000,0.000,0.000,0
2026-01-31 13:06:09,5644454,2100.000,5924.000,514.000,172.000,1310.000,-39.000,0.000,0.000,0
2026-01-31 13:06:09,5644494,2308.000,6782.000,736.000,-252.000,927.000,269.000,0.000,0.000,0
2026-01-31 13:06:09,5644534,2428.000,7990.000,701.000,-1413.000,478.000,497.000,0.000,0.000,0
2026-01-31 13:06:09,5644574,2257.000,8752.000,1059.000,-3880.000,-175.000,111.000,0.000,0.000,0
2026-01-31 13:06:09,5644614,2422.000,9686.000,1286.000,-9029.000,-765.000,-1009.000,0.000,0.000,0
2026-01-31 13:06:09,5644654,2309.000,9345.000,1544.000,-13237.000,-468.000,-1629.000,0.000,0.000,0
2026-01-31 13:06:09,5644694,2224.000,9389.000,2390.000,-15135.000,-445.000,-1715.000,0.000,0.000,0
2026-01-31 13:06:09,5644734,2687.000,10099.000,4196.000,-16030.000,-1037.000,-1459.000,0.000,0.000,0
2026-01-31 13:06:09,5644774,3433.000,9840.000,5601.000,-16309.000,-1566.000,-2270.000,0.000,0.000,0
2026-01-31 13:06:09,5644814,3563.000,5573.000,5630.000,-12635.000,-2293.000,-3998.000,0.000,0.000,0
2026-01-31 13:06:09,5644854,3194.000,4667.000,5352.000,-5431.000,-2653.000,-5096.000,0.000,0.000,0
2026-01-31 13:06:09,5644894,2635.000,4941.000,4815.000,-792.000,-2830.000,-5580.000,0.000,0.000,0
2026-01-31 13:06:09,5644934,2237.000,4744.000,4051.000,67.000,-2997.000,-5751.000,0.000,0.000,0
2026-01-31 13:06:09,5644974,2078.000,4422.000,3373.000,-1198.000,-3022.000,-5669.000,0.000,0.000,0
2026-01-31 13:06:09,5645014,2576.000,4440.000,3703.000,-4364.000,-2852.000,-4669.000,0.000,0.000,0
2026-01-31 13:06:09,5645054,3158.000,5008.000,4889.000,-5683.000,-2525.000,-3464.000,0.000,0.000,0
2026-01-31 13:06:09,5645094,3520.000,4659.000,5693.000,-5342.000,-2109.000,-2126.000,0.000,0.000,0
2026-01-31 13:06:09,5645134,3625.000,4285.000,6087.000,-3474.000,-1760.000,-1438.000,0.000,0.000,0
2026-01-31 13:06:09,5645174,3993.000,4010.000,6365.000,-1467.000,-1826.000,-1008.000,0.000,0.000,0
2026-01-31 13:06:09,5645214,4390.000,4077.000,7117.000,434.000,-1830.000,-330.000,0.000,0.000,0
2026-01-31 13:06:09,5645254,5105.000,4164.000,8049.000,502.000,-2074.000,1043.000,0.000,0.000,0
2026-01-31 13:06:09,5645294,6191.000,6240.000,8574.000,878.000,-1782.000,2198.000,0.000,0.000,0
2026-01-31 13:06:09,5645334,5673.000,4173.000,7147.000,-1460.000,-934.000,1897.000,0.000,0.000,0
2026-01-31 13:06:09,5645374,5215.000,708.000,5435.000,-673.000,-293.000,1025.000,0.000,0.000,0
2026-01-31 13:06:10,5645414,4102.000,779.000,4777.000,5792.000,286.000,1579.000,0.000,0.000,0
2026-01-31 13:06:10,5645454,2654.000,1574.000,3955.000,8070.000,688.000,2309.000,0.000,0.000,0
2026-01-31 13:06:10,5645494,2551.000,3748.000,4012.000,6243.000,737.000,2802.000,0.000,0.000,0
2026-01-31 13:06:10,5645534,2621.000,4533.000,4207.000,1549.000,697.000,2811.000,0.000,0.000,0
2026-01-31 13:06:10,5645574,2662.000,3890.000,4672.000,-505.000,128.000,2442.000,0.000,0.000,0
2026-01-31 13:06:10,5645614,3705.000,3339.000,6289.000,883.000,-493.000,1201.000,0.000,0.000,0
2026-01-31 13:06:10,5645654,3820.000,6146.000,5296.000,8834.000,-239.000,-1823.000,0.000,0.000,0
2026-01-31 13:06:10,5645694,2867.000,7955.000,4443.000,12417.000,-442.000,-4755.000,0.000,0.000,0
2026-01-31 13:06:10,5645734,2879.000,7712.000,5540.000,8889.000,-523.000,-5869.000,0.000,0.000,0
2026-01-31 13:06:10,5645774,4384.000,7885.000,5350.000,1229.000,793.000,-4703.000,0.000,0.000,0
2026-01-31 13:06:10,5645814,5812.000,7912.000,5463.000,-2151.000,1246.000,-2778.000,0.000,0.000,0
2026-01-31 13:06:10,5645854,6827.000,9044.000,5990.000,-3121.000,1520.000,-1174.000,0.000,0.000,0
2026-01-31 13:06:10,5645894,5708.000,6355.000,4954.000,-4350.000,2494.000,-1227.000,0.000,0.000,0
2026-01-31 13:06:10,5645934,4633.000,2333.000,2905.000,-2590.000,2884.000,-1144.000,0.000,0.000,0
2026-01-31 13:06:10,5645974,4903.000,3766.000,2280.000,3122.000,2813.000,299.000,0.000,0.000,0
2026-01-31 13:06:10,5646014,5541.000,6983.000,2298.000,5461.000,3349.000,2177.000,0.000,0.000,0
2026-01-31 13:06:10,5646054,5184.000,7247.000,3248.000,2274.000,3443.000,2667.000,0.000,0.000,0
2026-01-31 13:06:10,5646094,4004.000,4844.000,4417.000,-489.000,2968.000,2529.000,0.000,0.000,0
2026-01-31 13:06:10,5646136,3141.000,4502.000,4136.000,-232.000,2922.000,2820.000,0.000,0.000,0
2026-01-31 13:06:10,5646174,2124.000,6387.000,3737.000,938.000,3276.000,4190.000,0.000,0.000,0
2026-01-31 13:06:10,5646214,1790.000,7487.000,3614.000,-1563.000,2896.000,4820.000,0.000,0.000,0
2026-01-31 13:06:10,5646254,1991.000,7383.000,4176.000,-3727.000,2313.000,4676.000,0.000,0.000,0
2026-01-31 13:06:10,5646294,2298.000,7333.000,4888.000,-4043.000,1952.000,4439.000,0.000,0.000,0
2026-01-31 13:06:10,5646334,3011.000,6877.000,5131.000,-3880.000,1638.000,4178.000,0.000,0.000,0
2026-01-31 13:06:10,5646374,4005.000,6106.000,5223.000,-2485.000,1373.000,3924.000,0.000,0.000,0
2026-01-31 13:06:11,5646414,5104.000,5152.000,5248.000,-101.000,1052.000,4155.000,0.000,0.000,0
2026-01-31 13:06:11,5646454,5963.000,6071.000,5536.000,2858.000,971.000,4831.000,0.000,0.000,0
2026-01-31 13:06:11,5646494,6486.000,7294.000,5773.000,3233.000,1113.000,5079.000,0.000,0.000,0
2026-01-31 13:06:11,5646534,5852.000,4040.000,4526.000,-525.000,1611.000,3172.000,0.000,0.000,0
2026-01-31 13:06:11,5646574,5434.000,1389.000,3620.000,-745.000,1768.000,2702.000,0.000,0.000,0
2026-01-31 13:06:11,5646614,4499.000,905.000,3349.000,3716.000,2147.000,3348.000,0.000,0.000,0
2026-01-31 13:06:11,5646654,3589.000,1691.000,3495.000,7149.000,2308.000,4264.000,0.000,0.000,0
2026-01-31 13:06:11,5646694,3157.000,3116.000,3803.000,7893.000,2476.000,5057.000,0.000,0.000,0
2026-01-31 13:06:11,5646734,2943.000,4663.000,4578.000,5935.000,2513.000,5419.000,0.000,0.000,0
2026-01-31 13:06:11,5646774,2762.000,5115.000,5655.000,2891.000,2155.000,5113.000,0.000,0.000,0
2026-01-31 13:06:11,5646814,3433.000,5270.000,6137.000,3924.000,1560.000,3989.000,0.000,0.000,0
2026-01-31 13:06:11,5646854,3453.000,5451.000,5955.000,5891.000,1485.000,2133.000,0.000,0.000,0
2026-01-31 13:06:11,5646894,2601.000,5424.000,5102.000,7443.000,1058.000,-331.000,0.000,0.000,0
2026-01-31 13:06:11,5646934,3281.000,7606.000,4476.000,6537.000,293.000,-1924.000,0.000,0.000,0
2026-01-31 13:06:11,5646974,4870.000,8885.000,3546.000,3148.000,38.000,-1522.000,0.000,0.000,0
2026-01-31 13:06:11,5647014,5871.000,10157.000,3565.000,-1692.000,-399.000,-1082.000,0.000,0.000,0
2026-01-31 13:06:11,5647054,6233.000,9225.000,4543.000,-6138.000,-1312.000,-1546.000,0.000,0.000,0
2026-01-31 13:06:11,5647094,5382.000,5987.000,4798.000,-8397.000,-1926.000,-3004.000,0.000,0.000,0
2026-01-31 13:06:11,5647134,4069.000,3647.000,3686.000,-5304.000,-2388.000,-4040.000,0.000,0.000,0
2026-01-31 13:06:11,5647174,3811.000,4661.000,3072.000,-731.000,-2891.000,-3581.000,0.000,0.000,0
2026-01-31 13:06:11,5647214,3541.000,5700.000,2556.000,885.000,-3108.000,-2621.000,0.000,0.000,0
2026-01-31 13:06:11,5647254,3455.000,6078.000,2351.000,-843.000,-3159.000,-1854.000,0.000,0.000,0
2026-01-31 13:06:11,5647294,3972.000,5298.000,2222.000,-3215.000,-2933.000,-1252.000,0.000,0.000,0
2026-01-31 13:06:11,5647334,4028.000,4715.000,2232.000,-2790.000,-2509.000,-769.000,0.000,0.000,0
2026-01-31 13:06:11,5647374,4405.000,5129.000,2331.000,-981.000,-2405.000,-502.000,0.000,0.000,0
2026-01-31 13:06:12,5647414,4454.000,6181.000,2789.000,394.000,-2349.000,-363.000,0.000,0.000,0
2026-01-31 13:06:12,5647454,5271.000,7121.000,3344.000,269.000,-2118.000,-305.000,0.000,0.000,0
2026-01-31 13:06:12,5647494,5829.000,7174.000,3720.000,-355.000,-1005.000,-429.000,0.000,0.000,0
2026-01-31 13:06:12,5647534,5510.000,5653.000,3669.000,501.000,310.000,-490.000,0.000,0.000,0
2026-01-31 13:06:12,5647574,5371.000,6665.000,4527.000,3938.000,1261.000,145.000,0.000,0.000,0
2026-01-31 13:06:12,5647614,5398.000,7930.000,4499.000,5207.000,1637.000,345.000,0.000,0.000,0
2026-01-31 13:06:12,5647654,5172.000,8067.000,5123.000,2497.000,1475.000,-413.000,0.000,0.000,0
2026-01-31 13:06:12,5647694,4253.000,3227.000,4284.000,-1468.000,1480.000,-1807.000,0.000,0.000,0
2026-01-31 13:06:12,5647734,4433.000,2448.000,3545.000,10.000,1449.000,-1542.000,0.000,0.000,0
2026-01-31 13:06:12,5647774,4374.000,3679.000,3016.000,2724.000,1894.000,-456.000,0.000,0.000,0
2026-01-31 13:06:12,5647817,3800.000,4562.000,2393.000,3586.000,2064.000,431.000,0.000,0.000,0
2026-01-31 13:06:12,5647860,3176.000,4498.000,2468.000,2357.000,1457.000,985.000,0.000,0.000,0
2026-01-31 13:06:12,5647894,2994.000,5082.000,2636.000,2383.000,627.000,1480.000,0.000,0.000,0
2026-01-31 13:06:12,5647934,3289.000,6412.000,2714.000,2165.000,-98.000,1822.000,0.000,0.000,0
2026-01-31 13:06:12,5647974,3737.000,7882.000,2861.000,-52.000,-482.000,1611.000,0.000,0.000,0
2026-01-31 13:06:12,5648014,2969.000,6783.000,2954.000,-2080.000,-695.000,572.000,0.000,0.000,0
2026-01-31 13:06:12,5648054,2343.000,6036.000,3209.000,-1069.000,-1214.000,-620.000,0.000,0.000,0
2026-01-31 13:06:12,5648094,2853.000,7961.000,3078.000,518.000,-1677.000,-1546.000,0.000,0.000,0
2026-01-31 13:06:12,5648139,3136.000,8475.000,2802.000,-365.000,-1788.000,-1942.000,0.000,0.000,0
2026-01-31 13:06:12,5648174,3449.000,9163.000,2678.000,-896.000,-2219.000,-2169.000,0.000,0.000,0
2026-01-31 13:06:12,5648214,4017.000,10534.000,2592.000,-1051.000,-3014.000,-2296.000,0.000,0.000,0
2026-01-31 13:06:12,5648254,3988.000,9757.000,2459.000,-3159.000,-3686.000,-2997.000,0.000,0.000,0
2026-01-31 13:06:12,5648294,3634.000,7558.000,1913.000,-5093.000,-4324.000,-3896.000,0.000,0.000,0
2026-01-31 13:06:12,5648334,3832.000,7610.000,1747.000,-4939.000,-4857.000,-3796.000,0.000,0.000,0
2026-01-31 13:06:12,5648374,3681.000,7263.000,1572.000,-5017.000,-4665.000,-3314.000,0.000,0.000,0
2026-01-31 13:06:13,5648414,3164.000,6366.000,1377.000,-5706.000,-4191.000,-3229.000,0.000,0.000,0
2026-01-31 13:06:13,5648454,2895.000,5695.000,1998.000,-5159.000,-3674.000,-3313.000,0.000,0.000,0
2026-01-31 13:06:13,5648494,2340.000,5723.000,2318.000,-3246.000,-2547.000,-3144.000,0.000,0.000,0
2026-01-31 13:06:13,5648534,2201.000,5985.000,2605.000,-1891.000,-1859.000,-2838.000,0.000,0.000,0
2026-01-31 13:06:13,5648574,1893.000,6977.000,3446.000,-922.000,-1495.000,-2243.000,0.000,0.000,0
2026-01-31 13:06:13,5648614,2262.000,7624.000,4004.000,-1617.000,-1398.000,-2000.000,0.000,0.000,0
2026-01-31 13:06:13,5648654,2393.000,6856.000,4645.000,-3258.000,-1227.000,-2039.000,0.000,0.000,0
2026-01-31 13:06:13,5648694,3039.000,6236.000,5084.000,-3548.000,-1087.000,-1634.000,0.000,0.000,0
2026-01-31 13:06:13,5648734,3540.000,6012.000,5581.000,-2837.000,-750.000,-752.000,0.000,0.000,0
2026-01-31 13:06:13,5648774,4245.000,6102.000,5960.000,-2377.000,-323.000,398.000,0.000,0.000,0
2026-01-31 13:06:13,5648814,4938.000,6403.000,6484.000,-1586.000,-165.000,1669.000,0.000,0.000,0
2026-01-31 13:06:13,5648854,5010.000,5157.000,6558.000,-1968.000,160.000,2156.000,0.000,0.000,0
2026-01-31 13:06:13,5648894,5203.000,4213.000,5432.000,-1831.000,510.000,2136.000,0.000,0.000,0
2026-01-31 13:06:13,5648934,5357.000,3289.000,4443.000,-893.000,1021.000,2408.000,0.000,0.000,0
2026-01-31 13:06:13,5648974,4545.000,3108.000,3853.000,929.000,1494.000,3156.000,0.000,0.000,0
2026-01-31 13:06:13,5649014,3877.000,3504.000,3676.000,2274.000,1535.000,3915.000,0.000,0.000,0
2026-01-31 13:06:13,5649054,3248.000,3535.000,3341.000,2828.000,1558.000,4297.000,0.000,0.000,0
2026-01-31 13:06:13,5649094,2685.000,3393.000,3026.000,3117.000,1335.000,4449.000,0.000,0.000,0
2026-01-31 13:06:13,5649134,2712.000,3907.000,3401.000,3556.000,889.000,4517.000,0.000,0.000,0
2026-01-31 13:06:13,5649174,3100.000,5116.000,4147.000,3400.000,485.000,4408.000,0.000,0.000,0
2026-01-31 13:06:13,5649214,3519.000,5960.000,5010.000,2182.000,275.000,3925.000,0.000,0.000,0
2026-01-31 13:06:13,5649254,3278.000,5514.000,5806.000,1913.000,467.000,2286.000,0.000,0.000,0
2026-01-31 13:06:13,5649294,3205.000,6228.000,5887.000,2877.000,591.000,1288.000,0.000,0.000,0
2026-01-31 13:06:13,5649334,3671.000,7306.000,6239.000,2635.000,775.000,549.000,0.000,0.000,0
2026-01-31 13:06:13,5649374,3510.000,7557.000,6285.000,2195.000,1021.000,63.000,0.000,0.000,0
2026-01-31 13:06:14,5649414,3635.000,8722.000,6166.000,2187.000,550.000,-339.000,0.000,0.000,0
2026-01-31 13:06:14,5649454,4186.000,10339.000,6143.000,635.000,-163.000,-1086.000,0.000,0.000,0
2026-01-31 13:06:14,5649494,4090.000,8753.000,5195.000,-3172.000,-610.000,-2541.000,0.000,0.000,0
2026-01-31 13:06:14,5649534,4494.000,7882.000,4752.000,-5142.000,-974.000,-3085.000,0.000,0.000,0
2026-01-31 13:06:14,5649574,4348.000,7142.000,4349.000,-5732.000,-599.000,-3119.000,0.000,0.000,0
2026-01-31 13:06:14,5649614,3752.000,4195.000,3287.000,-6460.000,-214.000,-3628.000,0.000,0.000,0
2026-01-31 13:06:14,5649654,2897.000,2655.000,3158.000,-4160.000,-25.000,-4153.000,0.000,0.000,0
2026-01-31 13:06:14,5649694,3062.000,2614.000,3284.000,-1657.000,-145.000,-3702.000,0.000,0.000,0
2026-01-31 13:06:14,5649734,3274.000,3296.000,3578.000,-81.000,-181.000,-2596.000,0.000,0.000,0
2026-01-31 13:06:14,5649774,3543.000,4177.000,3994.000,138.000,-230.000,-1268.000,0.000,0.000,0
2026-01-31 13:06:14,5649816,3761.000,4825.000,4563.000,-1057.000,-378.000,61.000,0.000,0.000,0
2026-01-31 13:06:14,5649855,4512.000,5478.000,5301.000,-2589.000,-580.000,1280.000,0.000,0.000,0
2026-01-31 13:06:14,5649894,5206.000,4975.000,5742.000,-3308.000,-539.000,2041.000,0.000,0.000,0
2026-01-31 13:06:14,5649934,5411.000,4004.000,6306.000,-1226.000,-663.000,2578.000,0.000,0.000,0
2026-01-31 13:06:14,5649974,5877.000,4808.000,7086.000,2549.000,-767.000,3576.000,0.000,0.000,0
2026-01-31 13:06:14,5650014,5581.000,7227.000,7215.000,1906.000,34.000,3947.000,0.000,0.000,0
2026-01-31 13:06:14,5650054,4346.000,4371.000,5849.000,-1424.000,366.000,2457.000,0.000,0.000,0
2026-01-31 13:06:14,5650094,4146.000,2957.000,5286.000,-1120.000,-99.000,1575.000,0.000,0.000,0
2026-01-31 13:06:14,5650135,3803.000,2581.000,5274.000,861.000,-91.000,1357.000,0.000,0.000,0
2026-01-31 13:06:14,5650174,2924.000,2453.000,4355.000,2555.000,223.000,1348.000,0.000,0.000,0
2026-01-31 13:06:14,5650214,2339.000,2699.000,3754.000,2790.000,271.000,1497.000,0.000,0.000,0
2026-01-31 13:06:14,5650254,2352.000,3433.000,4329.000,2277.000,234.000,1664.000,0.000,0.000,0
2026-01-31 13:06:14,5650294,2466.000,3756.000,4996.000,1469.000,116.000,1599.000,0.000,0.000,0
2026-01-31 13:06:14,5650334,2676.000,4213.000,5776.000,1241.000,-145.000,1128.000,0.000,0.000,0
2026-01-31 13:06:14,5650374,3153.000,4905.000,6523.000,1354.000,-526.000,315.000,0.000,0.000,0
2026-01-31 13:06:15,5650414,3112.000,4820.000,6667.000,636.000,-700.000,-1490.000,0.000,0.000,0
2026-01-31 13:06:15,5650454,3950.000,5546.000,6799.000,72.000,-700.000,-2143.000,0.000,0.000,0
2026-01-31 13:06:15,5650494,4920.000,6155.000,6607.000,-697.000,-15.000,-2387.000,0.000,0.000,0
2026-01-31 13:06:15,5650534,4858.000,5727.000,6473.000,-771.000,381.000,-2590.000,0.000,0.000,0
2026-01-31 13:06:15,5650574,4628.000,6434.000,6687.000,705.000,167.000,-2530.000,0.000,0.000,0
2026-01-31 13:06:15,5650614,4621.000,8495.000,6684.000,376.000,-163.000,-2680.000,0.000,0.000,0
2026-01-31 13:06:15,5650654,4370.000,7214.000,5439.000,-2610.000,-385.000,-3714.000,0.000,0.000,0
2026-01-31 13:06:15,5650694,4581.000,6190.000,5312.000,-3669.000,-820.000,-4003.000,0.000,0.000,0
2026-01-31 13:06:15,5650734,4670.000,6230.000,5174.000,-3227.000,-652.000,-3557.000,0.000,0.000,0
2026-01-31 13:06:15,5650774,4298.000,5364.000,4087.000,-3652.000,-296.000,-3593.000,0.000,0.000,0
2026-01-31 13:06:15,5650814,3420.000,2731.000,3700.000,-2103.000,-90.000,-4123.000,0.000,0.000,0
2026-01-31 13:06:15,5650854,2846.000,2718.000,3978.000,345.000,-287.000,-3919.000,0.000,0.000,0
2026-01-31 13:06:15,5650894,2478.000,3511.000,4811.000,925.000,-319.000,-3164.000,0.000,0.000,0
2026-01-31 13:06:15,5650934,1717.000,4191.000,5079.000,-192.000,-175.000,-2261.000,0.000,0.000,0
2026-01-31 13:06:15,5650974,1674.000,5023.000,5560.000,-1789.000,-600.000,-1193.000,0.000,0.000,0
2026-01-31 13:06:15,5651014,2568.000,5836.000,6662.000,-3641.000,-885.000,-149.000,0.000,0.000,0
2026-01-31 13:06:15,5651054,3430.000,5483.000,6986.000,-4860.000,-536.000,252.000,0.000,0.000,0
2026-01-31 13:06:15,5651094,3557.000,4293.000,6932.000,-3518.000,-271.000,566.000,0.000,0.000,0
2026-01-31 13:06:15,5651134,3858.000,4577.000,7667.000,115.000,-345.000,1310.000,0.000,0.000,0
2026-01-31 13:06:15,5651174,3898.000,6481.000,7588.000,2339.000,-407.000,1448.000,0.000,0.000,0
2026-01-31 13:06:15,5651214,3213.000,4111.000,6043.000,23.000,-115.000,21.000,0.000,0.000,0
2026-01-31 13:06:15,5651254,3271.000,3407.000,5313.000,1142.000,23.000,-269.000,0.000,0.000,0
2026-01-31 13:06:15,5651294,2959.000,3760.000,5322.000,2915.000,628.000,350.000,0.000,0.000,0
2026-01-31 13:06:15,5651334,1976.000,3727.000,4482.000,3775.000,1031.000,725.000,0.000,0.000,0
2026-01-31 13:06:15,5651374,1235.000,3555.000,4187.000,3875.000,718.000,677.000,0.000,0.000,0
2026-01-31 13:06:16,5651414,1155.000,4064.000,4429.000,4030.000,219.000,363.000,0.000,0.000,0
2026-01-31 13:06:16,5651454,1173.000,4348.000,4662.000,3183.000,-189.000,31.000,0.000,0.000,0
2026-01-31 13:06:16,5651494,1386.000,4647.000,5079.000,2218.000,-600.000,-256.000,0.000,0.000,0
2026-01-31 13:06:16,5651534,2048.000,5363.000,5510.000,1124.000,-985.000,-446.000,0.000,0.000,0
2026-01-31 13:06:16,5651574,2316.000,5601.000,6064.000,-697.000,-1165.000,-1108.000,0.000,0.000,0
2026-01-31 13:06:16,5651614,2677.000,6134.000,6417.000,-436.000,-1405.000,-1451.000,0.000,0.000,0
2026-01-31 13:06:16,5651654,3353.000,7247.000,6714.000,-158.000,-1273.000,-1381.000,0.000,0.000,0
2026-01-31 13:06:16,5651694,3222.000,7529.000,6603.000,-240.000,-1076.000,-1397.000,0.000,0.000,0
2026-01-31 13:06:16,5651734,2922.000,8407.000,6734.000,424.000,-1639.000,-1380.000,0.000,0.000,0
2026-01-31 13:06:16,5651774,2613.000,9310.000,6109.000,-263.000,-2333.000,-1683.000,0.000,0.000,0
2026-01-31 13:06:16,5651814,2064.000,7691.000,4654.000,-2490.000,-2852.000,-2409.000,0.000,0.000,0
2026-01-31 13:06:16,5651856,2124.000,7251.000,4071.000,-2838.000,-3459.000,-2317.000,0.000,0.000,0
2026-01-31 13:06:16,5651896,2639.000,6793.000,4127.000,-3550.000,-3537.000,-1593.000,0.000,0.000,0
2026-01-31 13:06:16,5651934,2572.000,4671.000,3581.000,-3767.000,-2867.000,-1312.000,0.000,0.000,0
2026-01-31 13:06:16,5651974,2112.000,3613.000,3668.000,-1707.000,-1737.000,-1729.000,0.000,0.000,0
2026-01-31 13:06:16,5652014,1683.000,3728.000,4015.000,-140.000,-1011.000,-1590.000,0.000,0.000,0
2026-01-31 13:06:16,5652054,1831.000,4479.000,4506.000,-40.000,-599.000,-900.000,0.000,0.000,0
2026-01-31 13:06:16,5652094,1840.000,5050.000,4775.000,-1204.000,-413.000,-169.000,0.000,0.000,0
2026-01-31 13:06:16,5652136,2255.000,5383.000,5412.000,-2225.000,-853.000,458.000,0.000,0.000,0
2026-01-31 13:06:16,5652174,3161.000,6375.000,6193.000,-2829.000,-1242.000,1160.000,0.000,0.000,0
2026-01-31 13:06:16,5652214,4048.000,6517.000,6359.000,-3813.000,-1087.000,1496.000,0.000,0.000,0
2026-01-31 13:06:16,5652254,4660.000,4998.000,6409.000,-3445.000,-1107.000,1664.000,0.000,0.000,0
2026-01-31 13:06:16,5652294,5767.000,4620.000,6977.000,-485.000,-1269.000,2332.000,0.000,0.000,0
2026-01-31 13:06:16,5652334,5365.000,5961.000,6500.000,1680.000,-716.000,3024.000,0.000,0.000,0
2026-01-31 13:06:16,5652374,5007.000,4753.000,5407.000,-723.000,-402.000,2486.000,0.000,0.000,0
2026-01-31 13:06:17,5652414,5003.000,3527.000,4998.000,-854.000,-105.000,2301.000,0.000,0.000,0
2026-01-31 13:06:17,5652454,4559.000,2868.000,4508.000,1064.000,443.000,2480.000,0.000,0.000,0
2026-01-31 13:06:17,5652494,3659.000,2637.000,3993.000,3205.000,756.000,2566.000,0.000,0.000,0
2026-01-31 13:06:17,5652534,3075.000,2624.000,4038.000,4355.000,852.000,2561.000,0.000,0.000,0
2026-01-31 13:06:17,5652574,2854.000,2905.000,4130.000,4898.000,965.000,2621.000,0.000,0.000,0
2026-01-31 13:06:17,5652614,2772.000,3705.000,4705.000,4671.000,860.000,2537.000,0.000,0.000,0
2026-01-31 13:06:17,5652654,2745.000,4370.000,5564.000,3448.000,540.000,2065.000,0.000,0.000,0
2026-01-31 13:06:17,5652694,3013.000,5212.000,5990.000,1815.000,137.000,1416.000,0.000,0.000,0
2026-01-31 13:06:17,5652734,3365.000,5494.000,6683.000,-176.000,-62.000,-68.000,0.000,0.000,0
2026-01-31 13:06:17,5652774,3880.000,5868.000,6682.000,-291.000,55.000,-913.000,0.000,0.000,0
2026-01-31 13:06:17,5652814,4385.000,6294.000,6624.000,-123.000,355.000,-1393.000,0.000,0.000,0
2026-01-31 13:06:17,5652854,4571.000,7137.000,7106.000,232.000,307.000,-1686.000,0.000,0.000,0
2026-01-31 13:06:17,5652894,4800.000,7921.000,7076.000,-105.000,-53.000,-2247.000,0.000,0.000,0
2026-01-31 13:06:17,5652934,4621.000,7771.000,6107.000,-1970.000,-386.000,-3255.000,0.000,0.000,0
2026-01-31 13:06:17,5652974,4639.000,7169.000,5212.000,-3649.000,-1032.000,-3803.000,0.000,0.000,0
2026-01-31 13:06:17,5653014,4626.000,7325.000,5199.000,-4605.000,-1548.000,-3758.000,0.000,0.000,0
2026-01-31 13:06:17,5653054,4024.000,6218.000,4493.000,-5562.000,-1527.000,-4267.000,0.000,0.000,0
2026-01-31 13:06:17,5653094,3115.000,5046.000,3966.000,-5385.000,-1542.000,-5220.000,0.000,0.000,0
2026-01-31 13:06:17,5653134,1859.000,3893.000,4036.000,-4577.000,-1392.000,-6342.000,0.000,0.000,0
2026-01-31 13:06:17,5653174,1408.000,4273.000,4573.000,-4291.000,-1223.000,-6264.000,0.000,0.000,0
2026-01-31 13:06:17,5653214,604.000,4705.000,5208.000,-4009.000,-846.000,-6141.000,0.000,0.000,0
2026-01-31 13:06:17,5653254,683.000,5103.000,5943.000,-3144.000,-730.000,-5876.000,0.000,0.000,0
2026-01-31 13:06:17,5653294,444.000,6640.000,6984.000,-1412.000,-397.000,-5688.000,0.000,0.000,0
2026-01-31 13:06:17,5653334,1071.000,7997.000,7730.000,126.000,-572.000,-6018.000,0.000,0.000,0
2026-01-31 13:06:17,5653374,1182.000,7752.000,7891.000,-1194.000,-968.000,-7260.000,0.000,0.000,0
2026-01-31 13:06:18,5653414,2080.000,7248.000,7885.000,-4675.000,-1587.000,-7439.000,0.000,0.000,0
2026-01-31 13:06:18,5653454,3364.000,4894.000,8038.000,-6745.000,-2191.000,-6981.000,0.000,0.000,0
2026-01-31 13:06:18,5653494,5659.000,4502.000,8494.000,-5736.000,-1903.000,-6341.000,0.000,0.000,0
2026-01-31 13:06:18,5653534,5170.000,1680.000,6812.000,-8378.000,500.000,-4572.000,0.000,0.000,0
2026-01-31 13:06:18,5653574,4777.000,-86.000,6431.000,-4406.000,2172.000,-2428.000,0.000,0.000,0
2026-01-31 13:06:18,5653614,3394.000,4050.000,7970.000,967.000,3695.000,-1373.000,0.000,0.000,0
2026-01-31 13:06:18,5653654,-1101.000,2577.000,6549.000,-7495.000,3587.000,-1263.000,0.000,0.000,0
2026-01-31 13:06:18,5653694,-428.000,-305.000,4805.000,-6015.000,1689.000,-1430.000,0.000,0.000,0
2026-01-31 13:06:18,5653734,-1066.000,1031.000,5660.000,-1737.000,1666.000,-2262.000,0.000,0.000,0
2026-01-31 13:06:18,5653774,-112.000,325.000,5032.000,-2528.000,1721.000,-2712.000,0.000,0.000,0
2026-01-31 13:06:18,5653816,-1660.000,4076.000,5323.000,2822.000,2466.000,-4326.000,0.000,0.000,0
2026-01-31 13:06:18,5653856,3493.000,-3749.000,7896.000,-2482.000,1959.000,-3546.000,0.000,0.000,0
2026-01-31 13:06:18,5653894,-1915.000,149.000,5745.000,4373.000,3455.000,-2872.000,0.000,0.000,0
2026-01-31 13:06:18,5653934,-768.000,-798.000,8281.000,4556.000,1200.000,-2040.000,0.000,0.000,0
2026-01-31 13:06:18,5653974,-3688.000,-250.000,8662.000,4497.000,643.000,-1212.000,0.000,0.000,0
2026-01-31 13:06:18,5654014,-4100.000,2653.000,9974.000,4230.000,-374.000,-621.000,0.000,0.000,0
2026-01-31 13:06:18,5654054,-3244.000,4629.000,11516.000,3342.000,-862.000,-959.000,0.000,0.000,0
2026-01-31 13:06:18,5654094,-2502.000,3002.000,9167.000,1031.000,-428.000,-1224.000,0.000,0.000,0
2026-01-31 13:06:18,5654136,-2427.000,1589.000,6574.000,-675.000,-689.000,-1344.000,0.000,0.000,0
2026-01-31 13:06:18,5654174,-1784.000,982.000,6257.000,632.000,-1346.000,120.000,0.000,0.000,0
2026-01-31 13:06:18,5654214,-648.000,1747.000,5781.000,4141.000,-1299.000,1381.000,0.000,0.000,0
2026-01-31 13:06:18,5654254,-794.000,3122.000,6620.000,6571.000,-1530.000,1986.000,0.000,0.000,0
2026-01-31 13:06:18,5654294,357.000,2595.000,6603.000,3291.000,-1174.000,2456.000,0.000,0.000,0
2026-01-31 13:06:18,5654334,-151.000,1563.000,5716.000,1646.000,-472.000,3080.000,0.000,0.000,0
2026-01-31 13:06:18,5654374,-652.000,2363.000,6388.000,1772.000,-297.000,4194.000,0.000,0.000,0
2026-01-31 13:06:19,5654414,-119.000,3556.000,6562.000,1123.000,-122.000,5175.000,0.000,0.000,0
2026-01-31 13:06:19,5654454,265.000,4256.000,6877.000,1826.000,-332.000,6172.000,0.000,0.000,0
2026-01-31 13:06:19,5654494,1413.000,6433.000,7282.000,3213.000,-190.000,6861.000,0.000,0.000,0
2026-01-31 13:06:19,5654534,1213.000,7010.000,7090.000,2736.000,614.000,7319.000,0.000,0.000,0
2026-01-31 13:06:19,5654574,1556.000,7963.000,6974.000,2671.000,921.000,8126.000,0.000,0.000,0
2026-01-31 13:06:19,5654614,1712.000,9412.000,7732.000,3189.000,1631.000,8723.000,0.000,0.000,0
2026-01-31 13:06:19,5654654,1636.000,8952.000,7335.000,607.000,3451.000,7007.000,0.000,0.000,0
2026-01-31 13:06:19,5654694,1652.000,5175.000,5895.000,-1007.000,3969.000,5705.000,0.000,0.000,0
2026-01-31 13:06:19,5654734,1397.000,3992.000,5113.000,4751.000,4207.000,4754.000,0.000,0.000,0
2026-01-31 13:06:19,5654774,818.000,4853.000,4755.000,8949.000,4048.000,3718.000,0.000,0.000,0
2026-01-31 13:06:19,5654814,329.000,4847.000,4490.000,7801.000,3475.000,2591.000,0.000,0.000,0
2026-01-31 13:06:19,5654854,150.000,3972.000,4211.000,4723.000,2563.000,1749.000,0.000,0.000,0
2026-01-31 13:06:19,5654894,385.000,3915.000,4614.000,2521.000,1576.000,1439.000,0.000,0.000,0
2026-01-31 13:06:19,5654934,465.000,4225.000,5154.000,1510.000,766.000,1303.000,0.000,0.000,0
2026-01-31 13:06:19,5654974,578.000,4940.000,5571.000,833.000,131.000,858.000,0.000,0.000,0
2026-01-31 13:06:19,5655014,1166.000,6192.000,6504.000,28.000,-239.000,381.000,0.000,0.000,0
2026-01-31 13:06:19,5655054,1337.000,6482.000,6447.000,-284.000,-6.000,-514.000,0.000,0.000,0
2026-01-31 13:06:19,5655094,1416.000,6996.000,6443.000,640.000,164.000,-937.000,0.000,0.000,0
2026-01-31 13:06:19,5655134,1495.000,8417.000,6544.000,1526.000,207.000,-569.000,0.000,0.000,0
2026-01-31 13:06:19,5655174,1708.000,10281.000,7014.000,551.000,-10.000,-335.000,0.000,0.000,0
2026-01-31 13:06:19,5655214,1769.000,9011.000,6238.000,-912.000,-382.000,-1165.000,0.000,0.000,0
2026-01-31 13:06:19,5655254,1639.000,7284.000,5121.000,-196.000,-771.000,-2193.000,0.000,0.000,0
2026-01-31 13:06:19,5655294,1574.000,7549.000,4728.000,494.000,-1021.000,-1850.000,0.000,0.000,0
2026-01-31 13:06:19,5655334,1977.000,8120.000,4493.000,-1603.000,-762.000,-941.000,0.000,0.000,0
2026-01-31 13:06:19,5655374,1999.000,6357.000,4022.000,-3563.000,0.000,-768.000,0.000,0.000,0
2026-01-31 13:06:20,5655414,1783.000,4219.000,3527.000,-1717.000,558.000,-1291.000,0.000,0.000,0
2026-01-31 13:06:20,5655454,1172.000,4316.000,3799.000,1836.000,809.000,-1395.000,0.000,0.000,0
2026-01-31 13:06:20,5655494,708.000,4202.000,3726.000,1272.000,1127.000,-950.000,0.000,0.000,0
2026-01-31 13:06:20,5655534,180.000,4845.000,3844.000,650.000,1096.000,-37.000,0.000,0.000,0
2026-01-31 13:06:20,5655574,115.000,5695.000,4407.000,-508.000,966.000,712.000,0.000,0.000,0
2026-01-31 13:06:20,5655614,2.000,5965.000,4446.000,-1076.000,622.000,911.000,0.000,0.000,0
2026-01-31 13:06:20,5655654,813.000,7621.000,5275.000,-682.000,28.000,1396.000,0.000,0.000,0
2026-01-31 13:06:20,5655694,1471.000,8947.000,6343.000,-1694.000,-90.000,1634.000,0.000,0.000,0
2026-01-31 13:06:20,5655734,2149.000,7621.000,6607.000,-2606.000,-264.000,1645.000,0.000,0.000,0
2026-01-31 13:06:20,5655774,2376.000,7422.000,7108.000,-529.000,-208.000,1945.000,0.000,0.000,0
2026-01-31 13:06:20,5655814,2843.000,7166.000,6497.000,-1007.000,567.000,850.000,0.000,0.000,0
2026-01-31 13:06:20,5655856,3166.000,5166.000,5138.000,-911.000,1166.000,405.000,0.000,0.000,0
2026-01-31 13:06:20,5655896,2945.000,4460.000,4446.000,1666.000,1593.000,729.000,0.000,0.000,0
2026-01-31 13:06:20,5655934,1588.000,3916.000,3867.000,4091.000,1702.000,1007.000,0.000,0.000,0
