datetime_local,uptime_ms,acc_x,acc_y,acc_z,gyro_x,gyro_y,gyro_z,speed_mps,turn_rate_deg_s,gps_valid
2026-01-31 13:38:34,7589814,3486.000,-1936.000,9094.000,-402.000,-1282.000,-207.000,0.000,0.000,0
2026-01-31 13:38:34,7589854,2757.000,-1752.000,8588.000,-799.000,52.000,95.000,0.000,0.000,0
2026-01-31 13:38:34,7589896,2711.000,-2364.000,7185.000,699.000,657.000,1164.000,0.000,0.000,0
2026-01-31 13:38:34,7589934,1919.000,-1758.000,7119.000,646.000,1049.000,449.000,0.000,0.000,0
2026-01-31 13:38:34,7589974,1233.000,-1943.000,6075.000,-36.000,842.000,-85.000,0.000,0.000,0
2026-01-31 13:38:34,7590014,655.000,-2727.000,4984.000,-303.000,814.000,-288.000,0.000,0.000,0
2026-01-31 13:38:34,7590054,968.000,-2943.000,5481.000,295.000,751.000,-320.000,0.000,0.000,0
2026-01-31 13:38:34,7590094,1599.000,-2270.000,6316.000,292.000,656.000,-456.000,0.000,0.000,0
2026-01-31 13:38:34,7590134,1933.000,-2600.000,6974.000,-551.000,1069.000,-318.000,0.000,0.000,0
2026-01-31 13:38:34,7590174,1929.000,-3999.000,8502.000,-319.000,1125.000,-457.000,0.000,0.000,0
2026-01-31 13:38:34,7590214,1670.000,-2381.000,9050.000,17.000,1096.000,-635.000,0.000,0.000,0
2026-01-31 13:38:34,7590254,1268.000,-3067.000,9057.000,-941.000,1727.000,-664.000,0.000,0.000,0
2026-01-31 13:38:34,7590294,902.000,-3672.000,9626.000,199.000,1452.000,-783.000,0.000,0.000,0
2026-01-31 13:38:34,7590334,442.000,-1298.000,10503.000,1347.000,1054.000,-1350.000,0.000,0.000,0
2026-01-31 13:38:34,7590374,-234.000,-1325.000,10602.000,-118.000,1460.000,-1817.000,0.000,0.000,0
2026-01-31 13:38:35,7590414,-583.000,-1435.000,8116.000,720.000,441.000,-1401.000,0.000,0.000,0
2026-01-31 13:38:35,7590454,-961.000,-110.000,7235.000,896.000,-301.000,-1056.000,0.000,0.000,0
2026-01-31 13:38:35,7590494,-703.000,-456.000,5975.000,-272.000,-1720.000,-1195.000,0.000,0.000,0
2026-01-31 13:38:35,7590534,1391.000,-2566.000,6663.000,-2016.000,-2698.000,-3752.000,0.000,0.000,0
2026-01-31 13:38:35,7590574,1683.000,-1592.000,6984.000,454.000,-1688.000,-3527.000,0.000,0.000,0
2026-01-31 13:38:35,7590614,1786.000,-1772.000,7462.000,-363.000,-1233.000,-2961.000,0.000,0.000,0
2026-01-31 13:38:35,7590654,1582.000,-3160.000,7513.000,-757.000,-293.000,-2256.000,0.000,0.000,0
2026-01-31 13:38:35,7590694,1350.000,-3145.000,7708.000,-1270.000,-439.000,-1752.000,0.000,0.000,0
2026-01-31 13:38:35,7590734,2133.000,-3527.000,8061.000,-2030.000,-1321.000,-1331.000,0.000,0.000,0
2026-01-31 13:38:35,7590774,2387.000,-3312.000,8174.000,-1654.000,-1194.000,-597.000,0.000,0.000,0
2026-01-31 13:38:35,7590814,3333.000,-3807.000,8557.000,-851.000,-1022.000,289.000,0.000,0.000,0
2026-01-31 13:38:35,7590854,3007.000,-3721.000,8757.000,-21.000,-1094.000,395.000,0.000,0.000,0
2026-01-31 13:38:35,7590894,3277.000,-2457.000,9572.000,-628.000,-1775.000,-83.000,0.000,0.000,0
2026-01-31 13:38:35,7590934,3535.000,-2115.000,8710.000,-1220.000,-1510.000,-272.000,0.000,0.000,0
2026-01-31 13:38:35,7590974,4606.000,-1881.000,8172.000,-1641.000,-827.000,326.000,0.000,0.000,0
2026-01-31 13:38:35,7591014,4036.000,-2466.000,8583.000,-583.000,805.000,1546.000,0.000,0.000,0
2026-01-31 13:38:35,7591054,2900.000,-3171.000,7864.000,834.000,1487.000,900.000,0.000,0.000,0
2026-01-31 13:38:35,7591094,1632.000,-3434.000,6456.000,1863.000,1530.000,130.000,0.000,0.000,0
2026-01-31 13:38:35,7591134,901.000,-2127.000,5215.000,1821.000,1699.000,-18.000,0.000,0.000,0
2026-01-31 13:38:35,7591174,1096.000,-2874.000,5456.000,-793.000,1067.000,-317.000,0.000,0.000,0
2026-01-31 13:38:35,7591214,1910.000,-3873.000,5683.000,-2486.000,855.000,7.000,0.000,0.000,0
2026-01-31 13:38:35,7591254,2263.000,-3745.000,6650.000,-1936.000,586.000,144.000,0.000,0.000,0
2026-01-31 13:38:35,7591294,2822.000,-2770.000,8242.000,-2185.000,171.000,-218.000,0.000,0.000,0
2026-01-31 13:38:35,7591334,3757.000,-3896.000,8392.000,-2760.000,699.000,-683.000,0.000,0.000,0
2026-01-31 13:38:35,7591374,2301.000,-4330.000,8089.000,-1682.000,1700.000,-668.000,0.000,0.000,0
2026-01-31 13:38:36,7591414,2024.000,-4326.000,9123.000,-92.000,1459.000,383.000,0.000,0.000,0
2026-01-31 13:38:36,7591454,1912.000,-3078.000,9764.000,161.000,789.000,159.000,0.000,0.000,0
2026-01-31 13:38:36,7591496,1045.000,-4486.000,9118.000,-412.000,-60.000,-802.000,0.000,0.000,0
2026-01-31 13:38:36,7591536,1647.000,-3461.000,8460.000,1315.000,-619.000,-561.000,0.000,0.000,0
2026-01-31 13:38:36,7591574,1545.000,-2346.000,7550.000,963.000,-697.000,75.000,0.000,0.000,0
2026-01-31 13:38:36,7591614,1678.000,-3132.000,6434.000,727.000,-687.000,-401.000,0.000,0.000,0
2026-01-31 13:38:36,7591654,1711.000,-2911.000,5275.000,1201.000,-638.000,-235.000,0.000,0.000,0
2026-01-31 13:38:36,7591694,1698.000,-2767.000,5418.000,984.000,-531.000,568.000,0.000,0.000,0
2026-01-31 13:38:36,7591734,1578.000,-3577.000,6008.000,705.000,-287.000,1517.000,0.000,0.000,0
2026-01-31 13:38:36,7591774,1191.000,-2634.000,6456.000,461.000,-344.000,1779.000,0.000,0.000,0
2026-01-31 13:38:36,7591814,1111.000,-2570.000,6585.000,-704.000,-234.000,1391.000,0.000,0.000,0
2026-01-31 13:38:36,7591854,2200.000,-4704.000,7571.000,-2570.000,-1331.000,1945.000,0.000,0.000,0
2026-01-31 13:38:36,7591894,1947.000,-3364.000,7541.000,-1114.000,-1691.000,1036.000,0.000,0.000,0
2026-01-31 13:38:36,7591934,2194.000,-5639.000,8016.000,-1741.000,-3052.000,534.000,0.000,0.000,0
2026-01-31 13:38:36,7591974,5036.000,-4065.000,10240.000,1362.000,-2894.000,1188.000,0.000,0.000,0
2026-01-31 13:38:36,7592014,5212.000,-3046.000,9976.000,1774.000,-1192.000,318.000,0.000,0.000,0
2026-01-31 13:38:36,7592054,4463.000,-2511.000,8216.000,1835.000,148.000,1636.000,0.000,0.000,0
2026-01-31 13:38:36,7592094,3324.000,-2107.000,7549.000,1581.000,1012.000,2940.000,0.000,0.000,0
2026-01-31 13:38:36,7592134,2827.000,-3371.000,6342.000,650.000,438.000,2303.000,0.000,0.000,0
2026-01-31 13:38:36,7592174,1783.000,-2947.000,5527.000,1462.000,639.000,1482.000,0.000,0.000,0
2026-01-31 13:38:36,7592214,1473.000,-3345.000,4587.000,901.000,452.000,1381.000,0.000,0.000,0
2026-01-31 13:38:36,7592254,1453.000,-2948.000,4396.000,518.000,447.000,1493.000,0.000,0.000,0
2026-01-31 13:38:36,7592294,1980.000,-3094.000,5199.000,-257.000,305.000,1367.000,0.000,0.000,0
2026-01-31 13:38:36,7592334,2473.000,-3744.000,6291.000,-820.000,161.000,1057.000,0.000,0.000,0
2026-01-31 13:38:36,7592374,2679.000,-4660.000,7015.000,-874.000,-65.000,406.000,0.000,0.000,0
2026-01-31 13:38:37,7592414,2627.000,-4309.000,8068.000,-549.000,-20.000,327.000,0.000,0.000,0
2026-01-31 13:38:37,7592454,2249.000,-4673.000,8627.000,-761.000,379.000,395.000,0.000,0.000,0
2026-01-31 13:38:37,7592494,2354.000,-4354.000,9552.000,5.000,158.000,947.000,0.000,0.000,0
2026-01-31 13:38:37,7592534,1864.000,-3739.000,10106.000,383.000,-316.000,285.000,0.000,0.000,0
2026-01-31 13:38:37,7592574,506.000,-4636.000,8674.000,1712.000,-544.000,-839.000,0.000,0.000,0
2026-01-31 13:38:37,7592614,2084.000,-4169.000,6807.000,4085.000,-1054.000,-446.000,0.000,0.000,0
2026-01-31 13:38:37,7592654,2977.000,-2168.000,6025.000,7130.000,-235.000,1542.000,0.000,0.000,0
2026-01-31 13:38:37,7592694,3888.000,-1815.000,5539.000,9102.000,682.000,3134.000,0.000,0.000,0
2026-01-31 13:38:37,7592734,3505.000,-2920.000,4368.000,14873.000,1654.000,4720.000,0.000,0.000,0
2026-01-31 13:38:37,7592774,3159.000,-1803.000,3625.000,21842.000,2643.000,5581.000,0.000,0.000,0
2026-01-31 13:38:37,7592814,2867.000,3138.000,2726.000,28351.000,4150.000,5603.000,0.000,0.000,0
2026-01-31 13:38:37,7592854,544.000,7734.000,1834.000,29920.000,5241.000,4521.000,0.000,0.000,0
2026-01-31 13:38:37,7592894,386.000,9765.000,-941.000,28043.000,4838.000,2541.000,0.000,0.000,0
2026-01-31 13:38:37,7592934,-314.000,11097.000,-3063.000,26389.000,5818.000,149.000,0.000,0.000,0
2026-01-31 13:38:37,7592974,-1032.000,10478.000,-4197.000,23323.000,5845.000,-1997.000,0.000,0.000,0
2026-01-31 13:38:37,7593014,-951.000,11045.000,-5143.000,19537.000,5124.000,-3090.000,0.000,0.000,0
2026-01-31 13:38:37,7593054,-1172.000,8696.000,-6416.000,14340.000,6001.000,-3839.000,0.000,0.000,0
2026-01-31 13:38:37,7593094,-1126.000,11568.000,-5979.000,12184.000,5834.000,-4079.000,0.000,0.000,0
2026-01-31 13:38:37,7593134,-125.000,8630.000,-4700.000,3494.000,4047.000,-3512.000,0.000,0.000,0
2026-01-31 13:38:37,7593174,1553.000,7774.000,-4452.000,935.000,2375.000,-2037.000,0.000,0.000,0
2026-01-31 13:38:37,7593214,1582.000,6410.000,-3449.000,-196.000,1633.000,-850.000,0.000,0.000,0
2026-01-31 13:38:37,7593254,825.000,5182.000,-2664.000,-1218.000,1280.000,-772.000,0.000,0.000,0
2026-01-31 13:38:37,7593294,255.000,3949.000,-2942.000,-2958.000,940.000,-648.000,0.000,0.000,0
2026-01-31 13:38:37,7593334,-203.000,3028.000,-3456.000,-2964.000,518.000,-789.000,0.000,0.000,0
2026-01-31 13:38:37,7593374,-333.000,3631.000,-4279.000,-1367.000,477.000,-786.000,0.000,0.000,0
2026-01-31 13:38:38,7593414,-325.000,4576.000,-4627.000,446.000,577.000,-566.000,0.000,0.000,0
2026-01-31 13:38:38,7593454,-480.000,6021.000,-5056.000,1766.000,390.000,-1104.000,0.000,0.000,0
2026-01-31 13:38:38,7593496,-238.000,8442.000,-5306.000,3434.000,-555.000,-1004.000,0.000,0.000,0
2026-01-31 13:38:38,7593535,-170.000,8755.000,-5673.000,3436.000,-1519.000,-919.000,0.000,0.000,0
2026-01-31 13:38:38,7593574,-338.000,9145.000,-6378.000,3013.000,-1555.000,-360.000,0.000,0.000,0
2026-01-31 13:38:38,7593614,-275.000,9404.000,-6852.000,1628.000,-1875.000,888.000,0.000,0.000,0
2026-01-31 13:38:38,7593654,-157.000,7642.000,-7190.000,-716.000,-2088.000,1713.000,0.000,0.000,0
2026-01-31 13:38:38,7593694,316.000,6266.000,-7844.000,-2564.000,-1705.000,1917.000,0.000,0.000,0
2026-01-31 13:38:38,7593734,215.000,4839.000,-7738.000,-2791.000,-699.000,2180.000,0.000,0.000,0
2026-01-31 13:38:38,7593774,93.000,3628.000,-5597.000,-759.000,-792.000,1913.000,0.000,0.000,0
2026-01-31 13:38:38,7593817,73.000,3143.000,-3371.000,-146.000,-1149.000,1512.000,0.000,0.000,0
2026-01-31 13:38:38,7593854,-244.000,3529.000,-3285.000,49.000,-1301.000,902.000,0.000,0.000,0
2026-01-31 13:38:38,7593894,-900.000,3618.000,-3659.000,-432.000,-1418.000,-349.000,0.000,0.000,0
2026-01-31 13:38:38,7593934,-949.000,4939.000,-4192.000,2232.000,-1126.000,-883.000,0.000,0.000,0
2026-01-31 13:38:38,7593974,-1156.000,5112.000,-5820.000,1632.000,-120.000,-1483.000,0.000,0.000,0
2026-01-31 13:38:38,7594014,-523.000,5766.000,-7310.000,2165.000,471.000,-1467.000,0.000,0.000,0
2026-01-31 13:38:38,7594054,-32.000,6627.000,-7268.000,2639.000,997.000,-1129.000,0.000,0.000,0
2026-01-31 13:38:38,7594094,106.000,6436.000,-7780.000,1654.000,1618.000,-1015.000,0.000,0.000,0
2026-01-31 13:38:38,7594134,-369.000,6488.000,-8229.000,2099.000,2159.000,-804.000,0.000,0.000,0
2026-01-31 13:38:38,7594174,-120.000,6391.000,-7752.000,1362.000,1686.000,-205.000,0.000,0.000,0
2026-01-31 13:38:38,7594214,1283.000,5688.000,-7241.000,1449.000,513.000,465.000,0.000,0.000,0
2026-01-31 13:38:38,7594254,1850.000,5330.000,-6928.000,811.000,95.000,458.000,0.000,0.000,0
2026-01-31 13:38:38,7594294,0.000,3121.000,-4742.000,-481.000,39.000,-1140.000,0.000,0.000,0
2026-01-31 13:38:38,7594334,-345.000,2845.000,-3925.000,-572.000,-282.000,-1010.000,0.000,0.000,0
2026-01-31 13:38:38,7594374,-759.000,2484.000,-3620.000,-915.000,-662.000,-549.000,0.000,0.000,0
2026-01-31 13:38:39,7594414,-964.000,2736.000,-3861.000,456.000,-1180.000,-741.000,0.000,0.000,0
2026-01-31 13:38:39,7594454,-1227.000,4075.000,-4244.000,728.000,-1216.000,-785.000,0.000,0.000,0
2026-01-31 13:38:39,7594494,-1535.000,4646.000,-4567.000,926.000,-1361.000,-532.000,0.000,0.000,0
2026-01-31 13:38:39,7594534,-1558.000,5742.000,-5398.000,693.000,-1536.000,-132.000,0.000,0.000,0
2026-01-31 13:38:39,7594574,-1494.000,6496.000,-6459.000,795.000,-1485.000,265.000,0.000,0.000,0
2026-01-31 13:38:39,7594614,-1185.000,7142.000,-8049.000,584.000,-1383.000,397.000,0.000,0.000,0
2026-01-31 13:38:39,7594654,-1427.000,7764.000,-8413.000,712.000,-1333.000,761.000,0.000,0.000,0
2026-01-31 13:38:39,7594694,-1379.000,6248.000,-7760.000,-1926.000,-1380.000,987.000,0.000,0.000,0
2026-01-31 13:38:39,7594734,-1007.000,4711.000,-9514.000,-3806.000,-24.000,796.000,0.000,0.000,0
2026-01-31 13:38:39,7594774,-258.000,3985.000,-9110.000,-3891.000,1667.000,48.000,0.000,0.000,0
2026-01-31 13:38:39,7594814,-47.000,2835.000,-6851.000,-3556.000,2098.000,-479.000,0.000,0.000,0
2026-01-31 13:38:39,7594854,200.000,3716.000,-4387.000,-490.000,1473.000,373.000,0.000,0.000,0
2026-01-31 13:38:39,7594894,121.000,3988.000,-2718.000,-1066.000,421.000,1040.000,0.000,0.000,0
2026-01-31 13:38:39,7594934,-568.000,3733.000,-2281.000,-1879.000,-161.000,1470.000,0.000,0.000,0
2026-01-31 13:38:39,7594974,-1553.000,3872.000,-3116.000,-2471.000,-29.000,1724.000,0.000,0.000,0
2026-01-31 13:38:39,7595014,-1754.000,4240.000,-4261.000,-2548.000,-228.000,1776.000,0.000,0.000,0
2026-01-31 13:38:39,7595054,-1562.000,6517.000,-7020.000,-1092.000,655.000,1390.000,0.000,0.000,0
2026-01-31 13:38:39,7595094,-207.000,6726.000,-7544.000,-247.000,737.000,1231.000,0.000,0.000,0
2026-01-31 13:38:39,7595134,-124.000,6855.000,-7584.000,1770.000,1193.000,536.000,0.000,0.000,0
2026-01-31 13:38:39,7595174,75.000,8029.000,-7680.000,3637.000,1616.000,205.000,0.000,0.000,0
2026-01-31 13:38:39,7595214,175.000,8532.000,-7244.000,3236.000,879.000,-135.000,0.000,0.000,0
2026-01-31 13:38:39,7595254,1558.000,7871.000,-6656.000,1819.000,-730.000,242.000,0.000,0.000,0
2026-01-31 13:38:39,7595294,2459.000,7124.000,-6218.000,803.000,-1015.000,325.000,0.000,0.000,0
2026-01-31 13:38:39,7595334,1686.000,5035.000,-5001.000,-687.000,-579.000,-744.000,0.000,0.000,0
2026-01-31 13:38:39,7595374,719.000,3418.000,-3925.000,-1274.000,-273.000,-1267.000,0.000,0.000,0
2026-01-31 13:38:40,7595414,322.000,2563.000,-2690.000,-1192.000,27.000,-1393.000,0.000,0.000,0
2026-01-31 13:38:40,7595454,-597.000,2714.000,-2827.000,962.000,-453.000,-1190.000,0.000,0.000,0
2026-01-31 13:38:40,7595496,-1094.000,3632.000,-2902.000,806.000,-470.000,-1243.000,0.000,0.000,0
2026-01-31 13:38:40,7595536,-1440.000,4590.000,-4339.000,1230.000,-409.000,-1194.000,0.000,0.000,0
2026-01-31 13:38:40,7595574,-1317.000,5446.000,-5420.000,1787.000,-910.000,-758.000,0.000,0.000,0
2026-01-31 13:38:40,7595614,-1240.000,7324.000,-6152.000,2751.000,-1151.000,-48.000,0.000,0.000,0
2026-01-31 13:38:40,7595654,-481.000,8890.000,-7438.000,2295.000,-1460.000,293.000,0.000,0.000,0
2026-01-31 13:38:40,7595694,-1123.000,8843.000,-7333.000,238.000,-1544.000,525.000,0.000,0.000,0
2026-01-31 13:38:40,7595734,-1544.000,8344.000,-8033.000,-1016.000,-1541.000,702.000,0.000,0.000,0
2026-01-31 13:38:40,7595774,-1765.000,6436.000,-8436.000,-2741.000,-1754.000,1047.000,0.000,0.000,0
2026-01-31 13:38:40,7595816,-695.000,5567.000,-8923.000,-1989.000,-893.000,2066.000,0.000,0.000,0
2026-01-31 13:38:40,7595854,-531.000,4361.000,-7018.000,-1162.000,-293.000,1849.000,0.000,0.000,0
2026-01-31 13:38:40,7595894,192.000,3341.000,-4641.000,-1585.000,-477.000,1336.000,0.000,0.000,0
2026-01-31 13:38:40,7595934,418.000,2247.000,-3293.000,-1835.000,-512.000,1589.000,0.000,0.000,0
2026-01-31 13:38:40,7595974,73.000,2442.000,-3048.000,-891.000,-663.000,1028.000,0.000,0.000,0
2026-01-31 13:38:40,7596014,-544.000,2472.000,-2845.000,-818.000,-574.000,1017.000,0.000,0.000,0
2026-01-31 13:38:40,7596054,-642.000,3598.000,-4418.000,-812.000,-65.000,952.000,0.000,0.000,0
2026-01-31 13:38:40,7596094,-1372.000,5236.000,-5270.000,-763.000,504.000,762.000,0.000,0.000,0
2026-01-31 13:38:40,7596134,-986.000,8008.000,-5575.000,-295.000,1098.000,429.000,0.000,0.000,0
2026-01-31 13:38:40,7596174,-424.000,8041.000,-6459.000,-532.000,2174.000,29.000,0.000,0.000,0
2026-01-31 13:38:40,7596214,-1017.000,9512.000,-6390.000,-413.000,2809.000,-1513.000,0.000,0.000,0
2026-01-31 13:38:40,7596254,-506.000,9797.000,-7377.000,-377.000,2868.000,-1553.000,0.000,0.000,0
2026-01-31 13:38:40,7596294,652.000,8901.000,-6417.000,-1181.000,1648.000,-1003.000,0.000,0.000,0
2026-01-31 13:38:40,7596334,2361.000,6956.000,-4847.000,-3164.000,391.000,-1623.000,0.000,0.000,0
2026-01-31 13:38:40,7596374,2183.000,5487.000,-4773.000,-2950.000,881.000,-2507.000,0.000,0.000,0
2026-01-31 13:38:41,7596414,1788.000,3882.000,-3523.000,-1757.000,1546.000,-2576.000,0.000,0.000,0
2026-01-31 13:38:41,7596454,420.000,2693.000,-2476.000,428.000,1852.000,-2019.000,0.000,0.000,0
2026-01-31 13:38:41,7596494,-467.000,2721.000,-1956.000,2337.000,1935.000,-1423.000,0.000,0.000,0
2026-01-31 13:38:41,7596534,-1004.000,2606.000,-2609.000,2562.000,2344.000,-1522.000,0.000,0.000,0
2026-01-31 13:38:41,7596574,-1940.000,4006.000,-3693.000,3287.000,2557.000,-1556.000,0.000,0.000,0
2026-01-31 13:38:41,7596614,-2564.000,6109.000,-4351.000,2799.000,1244.000,-771.000,0.000,0.000,0
2026-01-31 13:38:41,7596654,-1858.000,8653.000,-5328.000,2415.000,687.000,-641.000,0.000,0.000,0
2026-01-31 13:38:41,7596694,-2781.000,10181.000,-5827.000,857.000,-764.000,345.000,0.000,0.000,0
2026-01-31 13:38:41,7596734,-1779.000,11097.000,-6527.000,300.000,-2959.000,825.000,0.000,0.000,0
2026-01-31 13:38:41,7596774,-2440.000,10927.000,-7664.000,-4879.000,-2361.000,486.000,0.000,0.000,0
2026-01-31 13:38:41,7596814,-2831.000,9019.000,-7102.000,-8710.000,-2520.000,959.000,0.000,0.000,0
2026-01-31 13:38:41,7596854,-2055.000,8237.000,-5339.000,-10137.000,-3788.000,1440.000,0.000,0.000,0
2026-01-31 13:38:41,7596894,-1142.000,6800.000,-5420.000,-12126.000,-4340.000,2378.000,0.000,0.000,0
2026-01-31 13:38:41,7596934,-242.000,7877.000,-4673.000,-11654.000,-5131.000,2879.000,0.000,0.000,0
2026-01-31 13:38:41,7596974,563.000,4470.000,-2688.000,-14245.000,-5354.000,2899.000,0.000,0.000,0
2026-01-31 13:38:41,7597014,924.000,3396.000,-1541.000,-12680.000,-4665.000,2426.000,0.000,0.000,0
2026-01-31 13:38:41,7597054,1279.000,3004.000,647.000,-10655.000,-4526.000,2193.000,0.000,0.000,0
2026-01-31 13:38:41,7597094,465.000,2443.000,1075.000,-8078.000,-3352.000,2081.000,0.000,0.000,0
2026-01-31 13:38:41,7597134,717.000,4785.000,1826.000,-4630.000,-2782.000,2326.000,0.000,0.000,0
2026-01-31 13:38:41,7597174,865.000,7706.000,3321.000,-3268.000,-1811.000,2839.000,0.000,0.000,0
2026-01-31 13:38:41,7597214,924.000,8797.000,3750.000,-4299.000,-372.000,2234.000,0.000,0.000,0
2026-01-31 13:38:41,7597254,1192.000,6462.000,5185.000,-3666.000,-34.000,2228.000,0.000,0.000,0
2026-01-31 13:38:41,7597294,2527.000,8342.000,5365.000,1698.000,1146.000,2977.000,0.000,0.000,0
2026-01-31 13:38:41,7597334,3957.000,11403.000,4420.000,7126.000,1549.000,5142.000,0.000,0.000,0
2026-01-31 13:38:41,7597374,6603.000,9553.000,5271.000,7691.000,2695.000,3625.000,0.000,0.000,0
2026-01-31 13:38:42,7597414,6372.000,10536.000,3719.000,10517.000,4740.000,1940.000,0.000,0.000,0
2026-01-31 13:38:42,7597454,4289.000,7156.000,4368.000,7860.000,4193.000,865.000,0.000,0.000,0
2026-01-31 13:38:42,7597494,1722.000,4617.000,3756.000,3521.000,4354.000,-513.000,0.000,0.000,0
2026-01-31 13:38:42,7597534,697.000,2717.000,1153.000,3509.000,4255.000,-1389.000,0.000,0.000,0
2026-01-31 13:38:42,7597574,319.000,3502.000,38.000,5681.000,3170.000,-1876.000,0.000,0.000,0
2026-01-31 13:38:42,7597614,371.000,3784.000,4.000,6273.000,2022.000,-1792.000,0.000,0.000,0
2026-01-31 13:38:42,7597654,201.000,5245.000,-841.000,6741.000,1101.000,-1834.000,0.000,0.000,0
2026-01-31 13:38:42,7597694,30.000,8941.000,-1951.000,7539.000,595.000,-770.000,0.000,0.000,0
2026-01-31 13:38:42,7597734,221.000,10455.000,-738.000,3498.000,1003.000,-2180.000,0.000,0.000,0
2026-01-31 13:38:42,7597774,217.000,10414.000,-2003.000,3793.000,-232.000,-2058.000,0.000,0.000,0
2026-01-31 13:38:42,7597816,127.000,11854.000,-2338.000,2364.000,-974.000,-1092.000,0.000,0.000,0
2026-01-31 13:38:42,7597854,695.000,13148.000,-1681.000,2677.000,-1607.000,126.000,0.000,0.000,0
2026-01-31 13:38:42,7597894,1117.000,10681.000,-2991.000,-758.000,-1975.000,70.000,0.000,0.000,0
2026-01-31 13:38:42,7597934,1302.000,10895.000,-3375.000,-1002.000,-1814.000,163.000,0.000,0.000,0
2026-01-31 13:38:42,7597974,1351.000,8741.000,-3123.000,-2043.000,-1635.000,-30.000,0.000,0.000,0
2026-01-31 13:38:42,7598014,1098.000,5925.000,-1939.000,-2078.000,-1900.000,-439.000,0.000,0.000,0
2026-01-31 13:38:42,7598054,236.000,3835.000,-1566.000,-2184.000,-2128.000,-968.000,0.000,0.000,0
2026-01-31 13:38:42,7598094,-230.000,3221.000,-1515.000,-1967.000,-2192.000,-1500.000,0.000,0.000,0
2026-01-31 13:38:42,7598134,-251.000,3949.000,-1778.000,-1273.000,-2452.000,-1014.000,0.000,0.000,0
2026-01-31 13:38:42,7598174,-241.000,5256.000,-1828.000,86.000,-1353.000,67.000,0.000,0.000,0
2026-01-31 13:38:42,7598214,207.000,6831.000,-2364.000,2244.000,-513.000,982.000,0.000,0.000,0
2026-01-31 13:38:42,7598254,1176.000,10193.000,-1162.000,4273.000,641.000,1035.000,0.000,0.000,0
2026-01-31 13:38:42,7598294,1149.000,10306.000,-923.000,4358.000,2034.000,204.000,0.000,0.000,0
2026-01-31 13:38:42,7598334,1024.000,9736.000,-965.000,2467.000,3426.000,-291.000,0.000,0.000,0
2026-01-31 13:38:42,7598374,1544.000,9491.000,-4939.000,7294.000,3914.000,-183.000,0.000,0.000,0
2026-01-31 13:38:43,7598414,2016.000,10373.000,-5652.000,7214.000,2444.000,309.000,0.000,0.000,0
2026-01-31 13:38:43,7598454,3974.000,7321.000,-5738.000,1418.000,233.000,851.000,0.000,0.000,0
2026-01-31 13:38:43,7598494,2560.000,6409.000,-5322.000,1055.000,528.000,1294.000,0.000,0.000,0
2026-01-31 13:38:43,7598534,1110.000,3851.000,-2579.000,477.000,1066.000,-670.000,0.000,0.000,0
2026-01-31 13:38:43,7598574,5.000,3573.000,-1713.000,2522.000,1164.000,-1297.000,0.000,0.000,0
2026-01-31 13:38:43,7598614,661.000,3155.000,-1327.000,1793.000,949.000,-1491.000,0.000,0.000,0
2026-01-31 13:38:43,7598654,197.000,5013.000,-1160.000,3822.000,1186.000,-971.000,0.000,0.000,0
2026-01-31 13:38:43,7598694,-262.000,6062.000,-1833.000,1194.000,916.000,-1182.000,0.000,0.000,0
2026-01-31 13:38:43,7598734,-116.000,7909.000,-2291.000,-1014.000,825.000,-1379.000,0.000,0.000,0
2026-01-31 13:38:43,7598774,-754.000,10279.000,-3091.000,-2937.000,1003.000,-1342.000,0.000,0.000,0
2026-01-31 13:38:43,7598814,-778.000,9658.000,-3519.000,-8445.000,557.000,-1189.000,0.000,0.000,0
2026-01-31 13:38:43,7598854,-712.000,10288.000,-3799.000,-8315.000,-271.000,-1395.000,0.000,0.000,0
2026-01-31 13:38:43,7598894,161.000,13378.000,-3721.000,-7649.000,-515.000,-1548.000,0.000,0.000,0
2026-01-31 13:38:43,7598934,352.000,9589.000,-2511.000,-14445.000,-969.000,-571.000,0.000,0.000,0
2026-01-31 13:38:43,7598974,351.000,9181.000,-3022.000,-9042.000,-1209.000,44.000,0.000,0.000,0
2026-01-31 13:38:43,7599014,761.000,8570.000,-1797.000,-5984.000,-1128.000,832.000,0.000,0.000,0
2026-01-31 13:38:43,7599054,912.000,6336.000,-753.000,-3467.000,-1757.000,1311.000,0.000,0.000,0
2026-01-31 13:38:43,7599094,880.000,4359.000,397.000,-5325.000,-2305.000,1779.000,0.000,0.000,0
2026-01-31 13:38:43,7599134,1087.000,2054.000,520.000,-6776.000,-2218.000,2681.000,0.000,0.000,0
2026-01-31 13:38:43,7599174,1218.000,1607.000,976.000,-6017.000,-2424.000,2846.000,0.000,0.000,0
2026-01-31 13:38:43,7599214,2150.000,3449.000,1528.000,-5587.000,-2411.000,4070.000,0.000,0.000,0
2026-01-31 13:38:43,7599254,3001.000,4817.000,2775.000,-4990.000,-2107.000,5621.000,0.000,0.000,0
2026-01-31 13:38:43,7599294,3737.000,8179.000,4056.000,-4739.000,-2010.000,7118.000,0.000,0.000,0
2026-01-31 13:38:43,7599334,5456.000,7518.000,6443.000,-8679.000,-3573.000,4393.000,0.000,0.000,0
2026-01-31 13:38:43,7599374,4874.000,4024.000,7085.000,-6034.000,-1492.000,8721.000,0.000,0.000,0
2026-01-31 13:38:44,7599414,6666.000,6280.000,6781.000,-2433.000,-2489.000,7209.000,0.000,0.000,0
2026-01-31 13:38:44,7599454,7268.000,6586.000,6552.000,-3534.000,-1248.000,7907.000,0.000,0.000,0
2026-01-31 13:38:44,7599494,6363.000,4713.000,5743.000,-4260.000,-764.000,6263.000,0.000,0.000,0
2026-01-31 13:38:44,7599534,7607.000,2595.000,4059.000,-3887.000,-2393.000,3687.000,0.000,0.000,0
2026-01-31 13:38:44,7599574,7538.000,1531.000,3488.000,965.000,-2579.000,2276.000,0.000,0.000,0
2026-01-31 13:38:44,7599614,5869.000,1234.000,3403.000,6291.000,-1163.000,1907.000,0.000,0.000,0
2026-01-31 13:38:44,7599654,3809.000,2765.000,3359.000,7687.000,25.000,1329.000,0.000,0.000,0
2026-01-31 13:38:44,7599694,2977.000,1883.000,3403.000,3237.000,-449.000,475.000,0.000,0.000,0
2026-01-31 13:38:44,7599734,3178.000,2041.000,4051.000,-2467.000,-819.000,-1508.000,0.000,0.000,0
2026-01-31 13:38:44,7599774,3850.000,2358.000,4715.000,-1758.000,-869.000,-1839.000,0.000,0.000,0
2026-01-31 13:38:44,7599817,4898.000,4061.000,5512.000,60.000,-1096.000,-1473.000,0.000,0.000,0
2026-01-31 13:38:44,7599854,6753.000,5260.000,6566.000,-2256.000,-1799.000,-1407.000,0.000,0.000,0
2026-01-31 13:38:44,7599894,8572.000,2436.000,8321.000,-2663.000,-1291.000,-928.000,0.000,0.000,0
2026-01-31 13:38:44,7599934,9103.000,5277.000,10494.000,2987.000,2055.000,-2114.000,0.000,0.000,0
2026-01-31 13:38:44,7599974,8593.000,7685.000,8259.000,-270.000,2160.000,-707.000,0.000,0.000,0
2026-01-31 13:38:44,7600014,7920.000,5035.000,5426.000,-5224.000,337.000,1652.000,0.000,0.000,0
2026-01-31 13:38:44,7600054,7951.000,3217.000,2781.000,-7070.000,-1104.000,-1724.000,0.000,0.000,0
2026-01-31 13:38:44,7600094,8581.000,5130.000,3819.000,-2385.000,-1300.000,-1133.000,0.000,0.000,0
2026-01-31 13:38:44,7600134,6900.000,3457.000,3065.000,-1498.000,-52.000,-1462.000,0.000,0.000,0
2026-01-31 13:38:44,7600174,4844.000,1547.000,1777.000,854.000,931.000,-2411.000,0.000,0.000,0
2026-01-31 13:38:44,7600214,3464.000,532.000,1189.000,3797.000,948.000,-3248.000,0.000,0.000,0
2026-01-31 13:38:44,7600254,2765.000,767.000,1559.000,5173.000,347.000,-2703.000,0.000,0.000,0
2026-01-31 13:38:44,7600294,3398.000,1695.000,3042.000,5418.000,-431.000,-1685.000,0.000,0.000,0
2026-01-31 13:38:44,7600334,4038.000,3051.000,3871.000,6914.000,-755.000,-302.000,0.000,0.000,0
2026-01-31 13:38:44,7600374,5972.000,5700.000,4486.000,6266.000,-1065.000,925.000,0.000,0.000,0
2026-01-31 13:38:45,7600414,7463.000,6584.000,4467.000,5365.000,-630.000,756.000,0.000,0.000,0
2026-01-31 13:38:45,7600454,7435.000,8602.000,5186.000,9012.000,579.000,-757.000,0.000,0.000,0
2026-01-31 13:38:45,7600494,7195.000,7958.000,2839.000,8257.000,2723.000,-1247.000,0.000,0.000,0
2026-01-31 13:38:45,7600534,6613.000,10087.000,338.000,10296.000,2578.000,-2258.000,0.000,0.000,0
2026-01-31 13:38:45,7600574,5747.000,9280.000,-781.000,5905.000,347.000,-4393.000,0.000,0.000,0
2026-01-31 13:38:45,7600614,6591.000,6425.000,-1235.000,1700.000,-824.000,-5009.000,0.000,0.000,0
2026-01-31 13:38:45,7600654,5566.000,5229.000,-618.000,1915.000,-397.000,-5648.000,0.000,0.000,0
2026-01-31 13:38:45,7600694,3637.000,2578.000,163.000,1506.000,-324.000,-5991.000,0.000,0.000,0
2026-01-31 13:38:45,7600734,2597.000,3711.000,1020.000,3382.000,-204.000,-5553.000,0.000,0.000,0
2026-01-31 13:38:45,7600774,1641.000,2935.000,1048.000,2952.000,60.000,-4927.000,0.000,0.000,0
2026-01-31 13:38:45,7600814,1276.000,4032.000,1142.000,4630.000,-181.000,-4558.000,0.000,0.000,0
2026-01-31 13:38:45,7600854,675.000,6572.000,26.000,8376.000,-579.000,-4241.000,0.000,0.000,0
2026-01-31 13:38:45,7600894,329.000,7852.000,-1351.000,10616.000,-1090.000,-3404.000,0.000,0.000,0
2026-01-31 13:38:45,7600934,485.000,9160.000,-2652.000,10868.000,-1707.000,-2692.000,0.000,0.000,0
2026-01-31 13:38:45,7600974,979.000,10175.000,-4174.000,9217.000,-2120.000,-2162.000,0.000,0.000,0
2026-01-31 13:38:45,7601014,1219.000,8723.000,-5616.000,5675.000,-1864.000,-1969.000,0.000,0.000,0
2026-01-31 13:38:45,7601054,879.000,8696.000,-7085.000,6671.000,-1559.000,-937.000,0.000,0.000,0
2026-01-31 13:38:45,7601094,494.000,8148.000,-7504.000,4105.000,-1869.000,206.000,0.000,0.000,0
2026-01-31 13:38:45,7601134,443.000,6520.000,-7830.000,1461.000,-2028.000,711.000,0.000,0.000,0
2026-01-31 13:38:45,7601174,598.000,5603.000,-7442.000,-1637.000,-1354.000,1022.000,0.000,0.000,0
2026-01-31 13:38:45,7601214,609.000,4554.000,-7000.000,-3441.000,-803.000,1105.000,0.000,0.000,0
2026-01-31 13:38:45,7601254,296.000,3721.000,-3175.000,-3092.000,-2257.000,1543.000,0.000,0.000,0
2026-01-31 13:38:45,7601294,-356.000,3405.000,-1935.000,-4985.000,-2796.000,1555.000,0.000,0.000,0
2026-01-31 13:38:45,7601334,-826.000,3053.000,-2489.000,-3724.000,-2670.000,1497.000,0.000,0.000,0
2026-01-31 13:38:45,7601374,-933.000,4117.000,-2755.000,-1716.000,-2328.000,1332.000,0.000,0.000,0
2026-01-31 13:38:46,7601414,-694.000,5189.000,-3814.000,-326.000,-1784.000,1002.000,0.000,0.000,0
2026-01-31 13:38:46,7601454,-215.000,7083.000,-5502.000,1264.000,-1113.000,724.000,0.000,0.000,0
2026-01-31 13:38:46,7601496,703.000,8356.000,-5512.000,957.000,-484.000,16.000,0.000,0.000,0
2026-01-31 13:38:46,7601536,2104.000,5639.000,-3752.000,958.000,101.000,-723.000,0.000,0.000,0
2026-01-31 13:38:46,7601574,-90.000,11789.000,-5702.000,3391.000,2866.000,-1050.000,0.000,0.000,0
2026-01-31 13:38:46,7601614,796.000,8719.000,-6428.000,485.000,3055.000,-1403.000,0.000,0.000,0
2026-01-31 13:38:46,7601654,1338.000,8033.000,-5874.000,898.000,994.000,-1931.000,0.000,0.000,0
2026-01-31 13:38:46,7601694,2341.000,6364.000,-6100.000,200.000,537.000,-2986.000,0.000,0.000,0
2026-01-31 13:38:46,7601734,1490.000,5053.000,-3788.000,1103.000,1268.000,-3559.000,0.000,0.000,0
2026-01-31 13:38:46,7601774,683.000,3495.000,-2773.000,1736.000,2027.000,-3828.000,0.000,0.000,0
2026-01-31 13:38:46,7601816,-504.000,3992.000,-2676.000,1927.000,2230.000,-3397.000,0.000,0.000,0
2026-01-31 13:38:46,7601854,-921.000,3241.000,-1560.000,-468.000,1927.000,-3004.000,0.000,0.000,0
2026-01-31 13:38:46,7601894,-1610.000,3163.000,-2509.000,-909.000,1905.000,-2614.000,0.000,0.000,0
2026-01-31 13:38:46,7601934,-1956.000,3970.000,-3762.000,-446.000,1262.000,-1665.000,0.000,0.000,0
2026-01-31 13:38:46,7601974,-2560.000,4855.000,-4898.000,912.000,314.000,-477.000,0.000,0.000,0
2026-01-31 13:38:46,7602014,-2052.000,7117.000,-5708.000,1157.000,-1019.000,1320.000,0.000,0.000,0
2026-01-31 13:38:46,7602054,-1426.000,7829.000,-7069.000,879.000,-1220.000,1609.000,0.000,0.000,0
2026-01-31 13:38:46,7602094,-1075.000,8715.000,-8056.000,2108.000,-1204.000,2540.000,0.000,0.000,0
2026-01-31 13:38:46,7602134,-1012.000,8787.000,-7045.000,1987.000,-1289.000,3879.000,0.000,0.000,0
2026-01-31 13:38:46,7602174,-527.000,7828.000,-5523.000,-1573.000,-1683.000,4771.000,0.000,0.000,0
2026-01-31 13:38:46,7602214,-97.000,6680.000,-5832.000,-2429.000,-856.000,5777.000,0.000,0.000,0
2026-01-31 13:38:46,7602254,864.000,6683.000,-7796.000,-4677.000,456.000,6477.000,0.000,0.000,0
2026-01-31 13:38:46,7602294,1198.000,6406.000,-5645.000,-6883.000,135.000,6262.000,0.000,0.000,0
2026-01-31 13:38:46,7602334,1254.000,4619.000,-3268.000,-11138.000,-1164.000,5657.000,0.000,0.000,0
2026-01-31 13:38:46,7602374,1452.000,3976.000,-2524.000,-10183.000,-1603.000,4331.000,0.000,0.000,0
2026-01-31 13:38:47,7602414,1124.000,4571.000,-1087.000,-8898.000,-1291.000,3479.000,0.000,0.000,0
2026-01-31 13:38:47,7602454,1693.000,7102.000,-1755.000,-9795.000,-1495.000,3437.000,0.000,0.000,0
2026-01-31 13:38:47,7602494,2571.000,7029.000,-1225.000,-12496.000,-1345.000,3511.000,0.000,0.000,0
2026-01-31 13:38:47,7602534,3875.000,8469.000,513.000,-11796.000,-810.000,3844.000,0.000,0.000,0
2026-01-31 13:38:47,7602574,4684.000,8641.000,1728.000,-12705.000,449.000,3370.000,0.000,0.000,0
2026-01-31 13:38:47,7602614,4738.000,5931.000,3976.000,-8700.000,1080.000,2461.000,0.000,0.000,0
2026-01-31 13:38:47,7602654,5106.000,6891.000,4561.000,436.000,2030.000,3168.000,0.000,0.000,0
2026-01-31 13:38:47,7602694,4763.000,11270.000,3487.000,5604.000,2879.000,2609.000,0.000,0.000,0
2026-01-31 13:38:47,7602734,4413.000,11719.000,1948.000,2563.000,2575.000,509.000,0.000,0.000,0
2026-01-31 13:38:47,7602774,4830.000,6481.000,954.000,-2134.000,2107.000,-1641.000,0.000,0.000,0
2026-01-31 13:38:47,7602814,4089.000,5509.000,889.000,-1774.000,3160.000,-1687.000,0.000,0.000,0
2026-01-31 13:38:47,7602854,1975.000,2771.000,1520.000,-2671.000,5192.000,-1206.000,0.000,0.000,0
2026-01-31 13:38:47,7602894,973.000,2317.000,2304.000,-2018.000,4114.000,-343.000,0.000,0.000,0
2026-01-31 13:38:47,7602934,218.000,1565.000,2578.000,-3018.000,2953.000,390.000,0.000,0.000,0
2026-01-31 13:38:47,7602974,-273.000,1394.000,3567.000,-1866.000,1451.000,1934.000,0.000,0.000,0
2026-01-31 13:38:47,7603014,727.000,4510.000,5383.000,-1144.000,-223.000,3288.000,0.000,0.000,0
2026-01-31 13:38:47,7603054,1245.000,6118.000,7404.000,-4943.000,-2035.000,3059.000,0.000,0.000,0
2026-01-31 13:38:47,7603094,3590.000,4843.000,7958.000,-2990.000,-3997.000,1281.000,0.000,0.000,0
2026-01-31 13:38:47,7603134,4663.000,6966.000,7276.000,2711.000,-3223.000,628.000,0.000,0.000,0
2026-01-31 13:38:47,7603174,5656.000,8725.000,6732.000,4615.000,-728.000,338.000,0.000,0.000,0
2026-01-31 13:38:47,7603214,4565.000,9325.000,6579.000,3122.000,214.000,451.000,0.000,0.000,0
2026-01-31 13:38:47,7603254,4111.000,8838.000,3897.000,13.000,-231.000,1306.000,0.000,0.000,0
2026-01-31 13:38:47,7603294,4916.000,8124.000,1890.000,-4644.000,-2538.000,2687.000,0.000,0.000,0
2026-01-31 13:38:47,7603334,5493.000,6132.000,1562.000,-7725.000,-5132.000,3679.000,0.000,0.000,0
2026-01-31 13:38:47,7603374,5586.000,4341.000,1375.000,-7538.000,-6217.000,3896.000,0.000,0.000,0
2026-01-31 13:38:48,7603414,5329.000,3489.000,810.000,-6944.000,-6032.000,3221.000,0.000,0.000,0
2026-01-31 13:38:48,7603454,4786.000,2165.000,585.000,-6503.000,-4870.000,2093.000,0.000,0.000,0
2026-01-31 13:38:48,7603496,4513.000,1072.000,1120.000,-5696.000,-3599.000,1564.000,0.000,0.000,0
2026-01-31 13:38:48,7603535,4369.000,1016.000,2195.000,-3817.000,-3224.000,1484.000,0.000,0.000,0
2026-01-31 13:38:48,7603588,7332.000,3262.000,4447.000,2514.000,-2783.000,2139.000,0.000,0.000,0
2026-01-31 13:38:48,7603614,8236.000,3669.000,5574.000,3594.000,-2343.000,2542.000,0.000,0.000,0
2026-01-31 13:38:48,7603654,9116.000,4262.000,5750.000,6491.000,-602.000,2949.000,0.000,0.000,0
2026-01-31 13:38:48,7603694,9002.000,4234.000,4362.000,8041.000,1145.000,2143.000,0.000,0.000,0
2026-01-31 13:38:48,7603734,9500.000,4671.000,4542.000,9400.000,1545.000,1148.000,0.000,0.000,0
2026-01-31 13:38:48,7603774,8956.000,6080.000,5649.000,7666.000,1198.000,1284.000,0.000,0.000,0
2026-01-31 13:38:48,7603817,8474.000,5200.000,4834.000,1151.000,314.000,239.000,0.000,0.000,0
2026-01-31 13:38:48,7603855,9400.000,3443.000,3394.000,-2480.000,992.000,-970.000,0.000,0.000,0
2026-01-31 13:38:48,7603894,8042.000,1961.000,2965.000,-2911.000,2401.000,-966.000,0.000,0.000,0
2026-01-31 13:38:48,7603934,6266.000,852.000,1864.000,-759.000,3821.000,-146.000,0.000,0.000,0
2026-01-31 13:38:48,7603974,3725.000,1779.000,1730.000,1114.000,3869.000,-1672.000,0.000,0.000,0
2026-01-31 13:38:48,7604014,2961.000,1705.000,1892.000,148.000,2830.000,-2152.000,0.000,0.000,0
2026-01-31 13:38:48,7604054,2675.000,1952.000,1806.000,553.000,2005.000,-1388.000,0.000,0.000,0
2026-01-31 13:38:48,7604094,3440.000,3140.000,2726.000,1739.000,764.000,-689.000,0.000,0.000,0
2026-01-31 13:38:48,7604134,5723.000,3477.000,4224.000,361.000,-1035.000,-229.000,0.000,0.000,0
2026-01-31 13:38:48,7604174,7304.000,4051.000,6189.000,-56.000,-1240.000,-612.000,0.000,0.000,0
2026-01-31 13:38:48,7604214,9925.000,4220.000,9561.000,-226.000,-737.000,-1901.000,0.000,0.000,0
2026-01-31 13:38:48,7604254,8781.000,2775.000,11989.000,-335.000,3559.000,-1911.000,0.000,0.000,0
2026-01-31 13:38:48,7604294,7778.000,4603.000,5430.000,169.000,3929.000,-1204.000,0.000,0.000,0
2026-01-31 13:38:48,7604334,6381.000,5108.000,1417.000,-574.000,776.000,-1026.000,0.000,0.000,0
2026-01-31 13:38:48,7604374,7116.000,6035.000,868.000,-960.000,-1361.000,-85.000,0.000,0.000,0
2026-01-31 13:38:49,7604414,6883.000,4753.000,1434.000,-3336.000,-3327.000,944.000,0.000,0.000,0
2026-01-31 13:38:49,7604454,5913.000,2785.000,1795.000,-1809.000,-3836.000,1477.000,0.000,0.000,0
2026-01-31 13:38:49,7604494,4978.000,1774.000,1710.000,-181.000,-4285.000,1326.000,0.000,0.000,0
2026-01-31 13:38:49,7604534,4728.000,2064.000,1952.000,399.000,-4405.000,597.000,0.000,0.000,0
2026-01-31 13:38:49,7604574,4577.000,2105.000,2611.000,1372.000,-3814.000,787.000,0.000,0.000,0
2026-01-31 13:38:49,7604614,4798.000,2220.000,3411.000,2517.000,-2937.000,485.000,0.000,0.000,0
2026-01-31 13:38:49,7604654,5646.000,4206.000,4208.000,3226.000,-1571.000,924.000,0.000,0.000,0
2026-01-31 13:38:49,7604694,6568.000,5608.000,4792.000,2353.000,-454.000,1139.000,0.000,0.000,0
2026-01-31 13:38:49,7604734,7294.000,6234.000,4825.000,1034.000,726.000,2587.000,0.000,0.000,0
2026-01-31 13:38:49,7604774,8318.000,4114.000,5255.000,-412.000,868.000,903.000,0.000,0.000,0
2026-01-31 13:38:49,7604814,9380.000,4187.000,4912.000,1172.000,1144.000,1189.000,0.000,0.000,0
2026-01-31 13:38:49,7604854,8883.000,6157.000,4536.000,1048.000,1593.000,1238.000,0.000,0.000,0
2026-01-31 13:38:49,7604894,8339.000,5945.000,3439.000,-2526.000,1607.000,460.000,0.000,0.000,0
2026-01-31 13:38:49,7604934,9241.000,3619.000,1372.000,-6240.000,1692.000,-881.000,0.000,0.000,0
2026-01-31 13:38:49,7604974,8155.000,1007.000,1338.000,-5767.000,2952.000,-1688.000,0.000,0.000,0
2026-01-31 13:38:49,7605014,6494.000,-179.000,1393.000,-1282.000,3371.000,-1287.000,0.000,0.000,0
2026-01-31 13:38:49,7605054,4711.000,657.000,1757.000,2413.000,3570.000,-1381.000,0.000,0.000,0
2026-01-31 13:38:49,7605094,3687.000,1190.000,2432.000,2127.000,3146.000,-1445.000,0.000,0.000,0
2026-01-31 13:38:49,7605134,3168.000,2358.000,2919.000,869.000,1943.000,-1110.000,0.000,0.000,0
2026-01-31 13:38:49,7605174,3232.000,3189.000,3399.000,297.000,823.000,-805.000,0.000,0.000,0
2026-01-31 13:38:49,7605214,4504.000,3102.000,4862.000,-1895.000,-669.000,-556.000,0.000,0.000,0
2026-01-31 13:38:49,7605254,6540.000,2431.000,7791.000,-1738.000,-1052.000,-1210.000,0.000,0.000,0
2026-01-31 13:38:49,7605294,9121.000,3673.000,11502.000,-1043.000,913.000,-1452.000,0.000,0.000,0
2026-01-31 13:38:49,7605334,8445.000,2528.000,9481.000,-471.000,4413.000,-955.000,0.000,0.000,0
2026-01-31 13:38:49,7605374,6631.000,5119.000,5848.000,2617.000,4472.000,-1006.000,0.000,0.000,0
2026-01-31 13:38:50,7605414,5590.000,5102.000,3574.000,345.000,1368.000,-532.000,0.000,0.000,0
2026-01-31 13:38:50,7605454,5867.000,5519.000,3085.000,-1638.000,-1382.000,-673.000,0.000,0.000,0
2026-01-31 13:38:50,7605494,6703.000,3758.000,3591.000,-4276.000,-3607.000,-135.000,0.000,0.000,0
2026-01-31 13:38:50,7605536,5420.000,2971.000,4274.000,-2134.000,-2853.000,143.000,0.000,0.000,0
2026-01-31 13:38:50,7605574,4195.000,2122.000,4050.000,-510.000,-2251.000,-414.000,0.000,0.000,0
2026-01-31 13:38:50,7605614,3232.000,1563.000,3757.000,842.000,-1696.000,-626.000,0.000,0.000,0
2026-01-31 13:38:50,7605654,3184.000,1184.000,3952.000,2714.000,-1024.000,-338.000,0.000,0.000,0
2026-01-31 13:38:50,7605694,3441.000,4185.000,4273.000,3973.000,-704.000,-643.000,0.000,0.000,0
2026-01-31 13:38:50,7605734,3955.000,5711.000,4445.000,1633.000,-785.000,177.000,0.000,0.000,0
2026-01-31 13:38:50,7605774,5061.000,6021.000,5491.000,306.000,-606.000,1019.000,0.000,0.000,0
2026-01-31 13:38:50,7605815,6290.000,5718.000,6408.000,-955.000,-107.000,1662.000,0.000,0.000,0
2026-01-31 13:38:50,7605854,7708.000,4972.000,6200.000,-1014.000,309.000,1166.000,0.000,0.000,0
2026-01-31 13:38:50,7605894,8451.000,4759.000,6777.000,1859.000,1341.000,1021.000,0.000,0.000,0
2026-01-31 13:38:50,7605934,7903.000,5289.000,6529.000,1128.000,1172.000,-482.000,0.000,0.000,0
2026-01-31 13:38:50,7605974,9132.000,4712.000,4798.000,-883.000,654.000,-2118.000,0.000,0.000,0
2026-01-31 13:38:50,7606014,8626.000,3807.000,4251.000,-843.000,1771.000,-2514.000,0.000,0.000,0
2026-01-31 13:38:50,7606054,5886.000,2150.000,3668.000,1386.000,2889.000,-2606.000,0.000,0.000,0
2026-01-31 13:38:50,7606094,3628.000,1440.000,3047.000,3575.000,2552.000,-2848.000,0.000,0.000,0
2026-01-31 13:38:50,7606134,2466.000,2147.000,2717.000,5228.000,1119.000,-3821.000,0.000,0.000,0
2026-01-31 13:38:50,7606174,2341.000,2148.000,2337.000,6313.000,-516.000,-4392.000,0.000,0.000,0
2026-01-31 13:38:50,7606214,2108.000,2264.000,1907.000,9381.000,-1487.000,-4376.000,0.000,0.000,0
2026-01-31 13:38:50,7606254,2843.000,5433.000,1256.000,11282.000,-2162.000,-3536.000,0.000,0.000,0
2026-01-31 13:38:50,7606294,3354.000,6551.000,953.000,10532.000,-2291.000,-3745.000,0.000,0.000,0
2026-01-31 13:38:50,7606334,3823.000,8857.000,-762.000,11475.000,-2144.000,-3870.000,0.000,0.000,0
2026-01-31 13:38:50,7606374,4130.000,9590.000,-2000.000,9738.000,-782.000,-4846.000,0.000,0.000,0
2026-01-31 13:38:51,7606414,2691.000,9272.000,-2180.000,7791.000,151.000,-6261.000,0.000,0.000,0
2026-01-31 13:38:51,7606454,1775.000,7880.000,-3914.000,8530.000,-528.000,-5258.000,0.000,0.000,0
2026-01-31 13:38:51,7606494,1823.000,9234.000,-4922.000,8903.000,-1169.000,-3891.000,0.000,0.000,0
2026-01-31 13:38:51,7606534,680.000,8859.000,-5438.000,7521.000,-337.000,-2629.000,0.000,0.000,0
2026-01-31 13:38:51,7606574,492.000,7528.000,-5984.000,6157.000,-127.000,-1478.000,0.000,0.000,0
2026-01-31 13:38:51,7606614,185.000,6220.000,-5569.000,5021.000,-482.000,-1398.000,0.000,0.000,0
2026-01-31 13:38:51,7606654,233.000,4390.000,-3580.000,4024.000,-2824.000,-1024.000,0.000,0.000,0
2026-01-31 13:38:51,7606694,331.000,4085.000,-2689.000,1582.000,-3730.000,-869.000,0.000,0.000,0
2026-01-31 13:38:51,7606734,303.000,3701.000,-2387.000,107.000,-3508.000,-1545.000,0.000,0.000,0
2026-01-31 13:38:51,7606774,-111.000,4359.000,-2445.000,-331.000,-2487.000,-1636.000,0.000,0.000,0
2026-01-31 13:38:51,7606814,-644.000,4799.000,-4751.000,-393.000,-1083.000,-1526.000,0.000,0.000,0
2026-01-31 13:38:51,7606854,-727.000,5720.000,-5438.000,1285.000,-285.000,-570.000,0.000,0.000,0
2026-01-31 13:38:51,7606894,-443.000,6462.000,-5686.000,1409.000,438.000,107.000,0.000,0.000,0
2026-01-31 13:38:51,7606934,-261.000,8552.000,-6571.000,1482.000,1153.000,138.000,0.000,0.000,0
2026-01-31 13:38:51,7606974,-581.000,7768.000,-8394.000,342.000,2372.000,-350.000,0.000,0.000,0
2026-01-31 13:38:51,7607014,-163.000,7907.000,-8887.000,1467.000,1188.000,-254.000,0.000,0.000,0
2026-01-31 13:38:51,7607054,2153.000,6337.000,-6399.000,958.000,-429.000,-421.000,0.000,0.000,0
2026-01-31 13:38:51,7607094,1512.000,4797.000,-4922.000,1478.000,1454.000,-1293.000,0.000,0.000,0
2026-01-31 13:38:51,7607134,282.000,4026.000,-3664.000,1057.000,1359.000,-1898.000,0.000,0.000,0
2026-01-31 13:38:51,7607174,-260.000,3061.000,-2638.000,-199.000,985.000,-2273.000,0.000,0.000,0
2026-01-31 13:38:51,7607214,-914.000,2257.000,-3572.000,529.000,4.000,-1856.000,0.000,0.000,0
2026-01-31 13:38:51,7607254,-1481.000,3287.000,-3460.000,1767.000,-303.000,-1496.000,0.000,0.000,0
2026-01-31 13:38:51,7607294,-1720.000,4576.000,-4295.000,1903.000,-869.000,-995.000,0.000,0.000,0
2026-01-31 13:38:51,7607334,-1848.000,4626.000,-4861.000,1649.000,-1477.000,-527.000,0.000,0.000,0
2026-01-31 13:38:51,7607374,-2011.000,5711.000,-6484.000,1752.000,-1926.000,256.000,0.000,0.000,0
2026-01-31 13:38:52,7607414,-1571.000,5916.000,-8039.000,766.000,-2055.000,297.000,0.000,0.000,0
2026-01-31 13:38:52,7607454,-1956.000,6424.000,-8842.000,1448.000,-1933.000,473.000,0.000,0.000,0
2026-01-31 13:38:52,7607496,-1675.000,6734.000,-9715.000,740.000,-2024.000,1098.000,0.000,0.000,0
2026-01-31 13:38:52,7607536,-1504.000,5578.000,-8466.000,-507.000,-1804.000,1460.000,0.000,0.000,0
2026-01-31 13:38:52,7607574,-1293.000,5110.000,-9047.000,-2085.000,-1284.000,1629.000,0.000,0.000,0
2026-01-31 13:38:52,7607614,-1131.000,4333.000,-7987.000,-2566.000,-201.000,1243.000,0.000,0.000,0
2026-01-31 13:38:52,7607654,-702.000,4019.000,-6086.000,-1729.000,55.000,730.000,0.000,0.000,0
2026-01-31 13:38:52,7607694,-913.000,4005.000,-4534.000,-2390.000,-404.000,690.000,0.000,0.000,0
2026-01-31 13:38:52,7607734,-904.000,3730.000,-3064.000,-3131.000,-1101.000,519.000,0.000,0.000,0
2026-01-31 13:38:52,7607774,-1390.000,3225.000,-2773.000,-3490.000,-1211.000,36.000,0.000,0.000,0
2026-01-31 13:38:52,7607817,-2373.000,4349.000,-3353.000,-3027.000,-833.000,-369.000,0.000,0.000,0
2026-01-31 13:38:52,7607854,-3137.000,4475.000,-4608.000,-3222.000,-343.000,-740.000,0.000,0.000,0
2026-01-31 13:38:52,7607894,-2807.000,5823.000,-5654.000,-1407.000,147.000,-593.000,0.000,0.000,0
2026-01-31 13:38:52,7607934,-1674.000,6242.000,-6326.000,-205.000,707.000,-449.000,0.000,0.000,0
2026-01-31 13:38:52,7607974,-1419.000,7001.000,-6003.000,845.000,904.000,-156.000,0.000,0.000,0
2026-01-31 13:38:52,7608014,-2207.000,7697.000,-7166.000,1656.000,1916.000,758.000,0.000,0.000,0
2026-01-31 13:38:52,7608054,-955.000,8344.000,-7364.000,1634.000,1080.000,1386.000,0.000,0.000,0
2026-01-31 13:38:52,7608094,739.000,7231.000,-5748.000,666.000,84.000,1743.000,0.000,0.000,0
2026-01-31 13:38:52,7608134,1581.000,6100.000,-6058.000,-95.000,189.000,1240.000,0.000,0.000,0
2026-01-31 13:38:52,7608174,599.000,4803.000,-5336.000,-87.000,933.000,640.000,0.000,0.000,0
2026-01-31 13:38:52,7608214,-822.000,3571.000,-3121.000,-188.000,1028.000,243.000,0.000,0.000,0
2026-01-31 13:38:52,7608254,-1485.000,3598.000,-2845.000,60.000,860.000,332.000,0.000,0.000,0
2026-01-31 13:38:52,7608294,-1832.000,3301.000,-2719.000,-277.000,577.000,-129.000,0.000,0.000,0
2026-01-31 13:38:52,7608334,-2094.000,4853.000,-3388.000,932.000,386.000,91.000,0.000,0.000,0
2026-01-31 13:38:52,7608374,-2229.000,6093.000,-3633.000,518.000,13.000,59.000,0.000,0.000,0
2026-01-31 13:38:53,7608414,-2219.000,7115.000,-4625.000,1151.000,-520.000,-4.000,0.000,0.000,0
2026-01-31 13:38:53,7608454,-1806.000,8216.000,-5520.000,625.000,-1263.000,192.000,0.000,0.000,0
2026-01-31 13:38:53,7608494,-1456.000,8727.000,-6102.000,666.000,-1669.000,-107.000,0.000,0.000,0
2026-01-31 13:38:53,7608534,-1353.000,9022.000,-7364.000,761.000,-1249.000,-227.000,0.000,0.000,0
2026-01-31 13:38:53,7608574,-1310.000,7020.000,-7231.000,371.000,-1336.000,191.000,0.000,0.000,0
2026-01-31 13:38:53,7608614,-1149.000,6056.000,-7860.000,-887.000,-1161.000,1543.000,0.000,0.000,0
2026-01-31 13:38:53,7608654,-715.000,5493.000,-7778.000,-191.000,-177.000,2189.000,0.000,0.000,0
2026-01-31 13:38:53,7608694,-420.000,4579.000,-6052.000,-371.000,617.000,1978.000,0.000,0.000,0
2026-01-31 13:38:53,7608734,170.000,3363.000,-4492.000,-459.000,595.000,2227.000,0.000,0.000,0
2026-01-31 13:38:53,7608774,701.000,3186.000,-2858.000,-1349.000,4.000,1929.000,0.000,0.000,0
2026-01-31 13:38:53,7608814,217.000,2909.000,-2133.000,-1588.000,118.000,1908.000,0.000,0.000,0
2026-01-31 13:38:53,7608854,-939.000,3876.000,-2984.000,-882.000,547.000,1256.000,0.000,0.000,0
2026-01-31 13:38:53,7608894,-1986.000,4589.000,-3757.000,-876.000,1048.000,1209.000,0.000,0.000,0
2026-01-31 13:38:53,7608934,-2154.000,6164.000,-5235.000,-14.000,1152.000,791.000,0.000,0.000,0
2026-01-31 13:38:53,7608974,-1197.000,8324.000,-6598.000,8.000,908.000,760.000,0.000,0.000,0
2026-01-31 13:38:53,7609014,-1151.000,8662.000,-5733.000,49.000,388.000,453.000,0.000,0.000,0
2026-01-31 13:38:53,7609054,-203.000,10138.000,-6514.000,626.000,706.000,-491.000,0.000,0.000,0
2026-01-31 13:38:53,7609094,727.000,10047.000,-6368.000,119.000,274.000,-940.000,0.000,0.000,0
2026-01-31 13:38:53,7609134,2029.000,7342.000,-6687.000,-2901.000,-1238.000,-1102.000,0.000,0.000,0
2026-01-31 13:38:53,7609174,2920.000,5856.000,-6158.000,-2566.000,-1387.000,-629.000,0.000,0.000,0
2026-01-31 13:38:53,7609214,2124.000,4936.000,-4731.000,-1588.000,-801.000,-526.000,0.000,0.000,0
2026-01-31 13:38:53,7609254,152.000,3936.000,-3080.000,-1380.000,-13.000,-555.000,0.000,0.000,0
2026-01-31 13:38:53,7609294,-516.000,3967.000,-2394.000,-892.000,153.000,-928.000,0.000,0.000,0
2026-01-31 13:38:53,7609334,-1194.000,4072.000,-1434.000,-949.000,-147.000,-488.000,0.000,0.000,0
2026-01-31 13:38:53,7609374,-1793.000,5610.000,-1947.000,-126.000,-507.000,-1083.000,0.000,0.000,0
2026-01-31 13:38:54,7609414,-1535.000,7789.000,-2179.000,-1251.000,-1229.000,-980.000,0.000,0.000,0
2026-01-31 13:38:54,7609454,-1557.000,7615.000,-2757.000,-1801.000,-1792.000,-1451.000,0.000,0.000,0
2026-01-31 13:38:54,7609494,-1107.000,9234.000,-4325.000,-1523.000,-2158.000,-1469.000,0.000,0.000,0
2026-01-31 13:38:54,7609534,-1558.000,9938.000,-4441.000,-2503.000,-1981.000,-2786.000,0.000,0.000,0
2026-01-31 13:38:54,7609574,-1935.000,10180.000,-4895.000,-1270.000,-1812.000,-1718.000,0.000,0.000,0
2026-01-31 13:38:54,7609614,-2472.000,10415.000,-5098.000,-281.000,-2147.000,1740.000,0.000,0.000,0
2026-01-31 13:38:54,7609654,-3408.000,7486.000,-5018.000,-1619.000,-796.000,689.000,0.000,0.000,0
2026-01-31 13:38:54,7609694,-3932.000,7202.000,-5690.000,-862.000,-4407.000,30.000,0.000,0.000,0
2026-01-31 13:38:54,7609734,125.000,6001.000,-3816.000,-1110.000,-3096.000,1250.000,0.000,0.000,0
2026-01-31 13:38:54,7609774,-993.000,4565.000,-2094.000,-1629.000,-2522.000,1920.000,0.000,0.000,0
2026-01-31 13:38:54,7609814,-1107.000,3988.000,-467.000,-1382.000,-2728.000,1796.000,0.000,0.000,0
2026-01-31 13:38:54,7609854,-1376.000,3988.000,-529.000,-1645.000,-2495.000,1808.000,0.000,0.000,0
2026-01-31 13:38:54,7609894,-1338.000,5229.000,-879.000,-1495.000,-2439.000,1898.000,0.000,0.000,0
2026-01-31 13:38:54,7609934,-1319.000,6786.000,-838.000,-1566.000,-1608.000,2450.000,0.000,0.000,0
2026-01-31 13:38:54,7609974,-680.000,8045.000,-1729.000,-2762.000,-844.000,1341.000,0.000,0.000,0
2026-01-31 13:38:54,7610014,-201.000,9266.000,-2882.000,-1478.000,681.000,1704.000,0.000,0.000,0
2026-01-31 13:38:54,7610054,-106.000,9600.000,-2688.000,-611.000,857.000,1342.000,0.000,0.000,0
2026-01-31 13:38:54,7610094,7.000,10093.000,-2167.000,-620.000,1607.000,147.000,0.000,0.000,0
2026-01-31 13:38:54,7610134,-2000.000,10995.000,-2328.000,188.000,3199.000,473.000,0.000,0.000,0
2026-01-31 13:38:54,7610174,1313.000,9448.000,-3900.000,577.000,4674.000,1735.000,0.000,0.000,0
2026-01-31 13:38:54,7610214,1111.000,7373.000,-3077.000,154.000,4418.000,305.000,0.000,0.000,0
2026-01-31 13:38:54,7610254,847.000,6097.000,-1770.000,876.000,2124.000,-1481.000,0.000,0.000,0
2026-01-31 13:38:54,7610294,-999.000,5124.000,-893.000,1391.000,917.000,-1886.000,0.000,0.000,0
2026-01-31 13:38:54,7610334,-970.000,4529.000,-704.000,1838.000,1370.000,-1753.000,0.000,0.000,0
2026-01-31 13:38:54,7610374,-2059.000,4334.000,-542.000,892.000,1261.000,-1938.000,0.000,0.000,0
2026-01-31 13:38:55,7610414,-2077.000,4151.000,-673.000,69.000,-346.000,-1619.000,0.000,0.000,0
2026-01-31 13:38:55,7610454,-992.000,5839.000,-963.000,280.000,2247.000,480.000,0.000,0.000,0
2026-01-31 13:38:55,7610494,-1372.000,7887.000,-871.000,1088.000,2281.000,-420.000,0.000,0.000,0
2026-01-31 13:38:55,7610534,-1569.000,9741.000,-2332.000,3793.000,-2744.000,586.000,0.000,0.000,0
2026-01-31 13:38:55,7610574,-1327.000,10778.000,-3071.000,3335.000,-4117.000,-294.000,0.000,0.000,0
2026-01-31 13:38:55,7610614,-2350.000,10823.000,-3425.000,3479.000,-3623.000,265.000,0.000,0.000,0
2026-01-31 13:38:55,7610654,-2749.000,10793.000,-5008.000,3321.000,-3054.000,272.000,0.000,0.000,0
2026-01-31 13:38:55,7610694,-1841.000,8796.000,-6390.000,-392.000,-3232.000,252.000,0.000,0.000,0
2026-01-31 13:38:55,7610734,-2214.000,7304.000,-6166.000,-2600.000,-1724.000,701.000,0.000,0.000,0
2026-01-31 13:38:55,7610774,-2019.000,6373.000,-4333.000,-2009.000,-2357.000,1809.000,0.000,0.000,0
2026-01-31 13:38:55,7610814,-608.000,4770.000,-3204.000,2326.000,-4237.000,2552.000,0.000,0.000,0
2026-01-31 13:38:55,7610854,412.000,3805.000,-1772.000,4353.000,-4225.000,1439.000,0.000,0.000,0
2026-01-31 13:38:55,7610894,213.000,5545.000,-1362.000,2421.000,-3599.000,82.000,0.000,0.000,0
2026-01-31 13:38:55,7610934,6978.000,9611.000,-5158.000,-42.000,-1342.000,523.000,0.000,0.000,0
2026-01-31 13:38:55,7610974,-11586.000,4459.000,826.000,-7267.000,4012.000,728.000,0.000,0.000,0
2026-01-31 13:38:55,7611014,2043.000,7941.000,-3714.000,881.000,1194.000,930.000,0.000,0.000,0
2026-01-31 13:38:55,7611054,1110.000,9003.000,-4206.000,-165.000,2462.000,775.000,0.000,0.000,0
2026-01-31 13:38:55,7611094,287.000,8854.000,-3726.000,-628.000,3933.000,-218.000,0.000,0.000,0
2026-01-31 13:38:55,7611134,1107.000,9183.000,-3770.000,143.000,4978.000,-973.000,0.000,0.000,0
2026-01-31 13:38:55,7611174,1086.000,9172.000,-4332.000,2156.000,6878.000,-1721.000,0.000,0.000,0
2026-01-31 13:38:55,7611214,1606.000,9470.000,-5537.000,2587.000,7744.000,-2671.000,0.000,0.000,0
2026-01-31 13:38:55,7611254,2646.000,8578.000,-6337.000,-435.000,7841.000,-3773.000,0.000,0.000,0
2026-01-31 13:38:55,7611294,2029.000,5018.000,-4130.000,-2294.000,8253.000,-3674.000,0.000,0.000,0
2026-01-31 13:38:55,7611334,379.000,3238.000,-2291.000,-3043.000,8324.000,-2103.000,0.000,0.000,0
2026-01-31 13:38:55,7611374,-290.000,3013.000,-1461.000,-1708.000,7828.000,-637.000,0.000,0.000,0
2026-01-31 13:38:56,7611414,-723.000,2808.000,-1464.000,1481.000,6840.000,631.000,0.000,0.000,0
2026-01-31 13:38:56,7611454,-1235.000,3678.000,-1961.000,3119.000,6108.000,1738.000,0.000,0.000,0
2026-01-31 13:38:56,7611496,-1308.000,6317.000,-3295.000,4544.000,5145.000,2257.000,0.000,0.000,0
2026-01-31 13:38:56,7611535,-1447.000,8717.000,-3974.000,3629.000,3677.000,2272.000,0.000,0.000,0
2026-01-31 13:38:56,7611574,-994.000,10020.000,-4141.000,2048.000,2020.000,1529.000,0.000,0.000,0
2026-01-31 13:38:56,7611614,-120.000,10613.000,-4355.000,118.000,823.000,626.000,0.000,0.000,0
2026-01-31 13:38:56,7611654,288.000,10595.000,-4815.000,-966.000,121.000,-266.000,0.000,0.000,0
2026-01-31 13:38:56,7611694,400.000,11594.000,-5728.000,13.000,-1296.000,-349.000,0.000,0.000,0
2026-01-31 13:38:56,7611734,695.000,10247.000,-5483.000,-2159.000,-2683.000,-301.000,0.000,0.000,0
2026-01-31 13:38:56,7611774,1560.000,9564.000,-5952.000,-4006.000,-3427.000,57.000,0.000,0.000,0
2026-01-31 13:38:56,7611817,1414.000,7831.000,-5449.000,-4908.000,-3364.000,528.000,0.000,0.000,0
2026-01-31 13:38:56,7611854,1305.000,6606.000,-4274.000,-5112.000,-4035.000,400.000,0.000,0.000,0
2026-01-31 13:38:56,7611894,1367.000,4908.000,-2617.000,-6469.000,-4809.000,-147.000,0.000,0.000,0
2026-01-31 13:38:56,7611934,1422.000,3353.000,-1284.000,-6701.000,-4873.000,-908.000,0.000,0.000,0
2026-01-31 13:38:56,7611974,1662.000,3064.000,-1337.000,-5202.000,-4632.000,-1268.000,0.000,0.000,0
2026-01-31 13:38:56,7612014,2046.000,4324.000,-1125.000,-3035.000,-3959.000,-1091.000,0.000,0.000,0
2026-01-31 13:38:56,7612054,2108.000,5934.000,-1122.000,-2363.000,-2648.000,-441.000,0.000,0.000,0
2026-01-31 13:38:56,7612094,3453.000,7249.000,-1651.000,-1354.000,-712.000,1316.000,0.000,0.000,0
2026-01-31 13:38:56,7612134,3916.000,7773.000,-262.000,-419.000,623.000,2395.000,0.000,0.000,0
2026-01-31 13:38:56,7612174,4463.000,8941.000,357.000,946.000,2130.000,3534.000,0.000,0.000,0
2026-01-31 13:38:56,7612214,4987.000,11200.000,-1864.000,3730.000,3844.000,4239.000,0.000,0.000,0
2026-01-31 13:38:56,7612254,4182.000,12290.000,-1628.000,3620.000,4224.000,3350.000,0.000,0.000,0
2026-01-31 13:38:56,7612294,4267.000,9548.000,-1014.000,514.000,4224.000,1560.000,0.000,0.000,0
2026-01-31 13:38:56,7612334,4057.000,8837.000,-1348.000,1109.000,4803.000,848.000,0.000,0.000,0
2026-01-31 13:38:56,7612374,2184.000,6388.000,-690.000,2593.000,4830.000,588.000,0.000,0.000,0
2026-01-31 13:38:57,7612414,607.000,5090.000,-174.000,4183.000,4188.000,472.000,0.000,0.000,0
2026-01-31 13:38:57,7612454,-450.000,4839.000,-573.000,4310.000,3130.000,104.000,0.000,0.000,0
2026-01-31 13:38:57,7612494,-827.000,4948.000,-854.000,2669.000,2231.000,-53.000,0.000,0.000,0
2026-01-31 13:38:57,7612534,-879.000,5422.000,-632.000,1747.000,1176.000,-176.000,0.000,0.000,0
2026-01-31 13:38:57,7612574,-810.000,5987.000,-863.000,1217.000,292.000,-271.000,0.000,0.000,0
2026-01-31 13:38:57,7612614,-239.000,7291.000,-1420.000,633.000,-733.000,-346.000,0.000,0.000,0
2026-01-31 13:38:57,7612654,976.000,9276.000,-1865.000,96.000,-1360.000,-232.000,0.000,0.000,0
2026-01-31 13:38:57,7612694,2092.000,10899.000,-2872.000,-415.000,-1896.000,-361.000,0.000,0.000,0
2026-01-31 13:38:57,7612734,2008.000,12191.000,-2968.000,-605.000,-2465.000,-170.000,0.000,0.000,0
2026-01-31 13:38:57,7612774,3148.000,12817.000,-3414.000,-1729.000,-3096.000,179.000,0.000,0.000,0
2026-01-31 13:38:57,7612814,3387.000,10879.000,-3590.000,-4693.000,-3123.000,486.000,0.000,0.000,0
2026-01-31 13:38:57,7612854,2874.000,8007.000,-2590.000,-7235.000,-2500.000,2346.000,0.000,0.000,0
2026-01-31 13:38:57,7612894,2794.000,6146.000,-1300.000,-7807.000,-2368.000,3054.000,0.000,0.000,0
2026-01-31 13:38:57,7612934,2660.000,4452.000,-389.000,-11228.000,-2404.000,2602.000,0.000,0.000,0
2026-01-31 13:38:57,7612974,2589.000,2752.000,226.000,-12918.000,-2439.000,1913.000,0.000,0.000,0
2026-01-31 13:38:57,7613014,2808.000,1685.000,414.000,-11477.000,-2186.000,1671.000,0.000,0.000,0
2026-01-31 13:38:57,7613054,2952.000,1945.000,576.000,-8514.000,-1951.000,2287.000,0.000,0.000,0
2026-01-31 13:38:57,7613094,4109.000,3327.000,2174.000,-5669.000,-3527.000,3396.000,0.000,0.000,0
2026-01-31 13:38:57,7613134,7156.000,3556.000,3681.000,-3170.000,-4665.000,5909.000,0.000,0.000,0
2026-01-31 13:38:57,7613174,9505.000,6502.000,2479.000,-468.000,-3450.000,7337.000,0.000,0.000,0
2026-01-31 13:38:57,7613214,10182.000,5433.000,2186.000,-3121.000,-2333.000,7049.000,0.000,0.000,0
2026-01-31 13:38:57,7613254,10669.000,2764.000,3256.000,-403.000,-1260.000,7426.000,0.000,0.000,0
2026-01-31 13:38:57,7613294,10972.000,3552.000,2513.000,7831.000,445.000,7139.000,0.000,0.000,0
2026-01-31 13:38:57,7613334,10373.000,4893.000,1833.000,10900.000,2092.000,6099.000,0.000,0.000,0
2026-01-31 13:38:57,7613374,7709.000,4520.000,3317.000,9518.000,2495.000,4080.000,0.000,0.000,0
2026-01-31 13:38:58,7613414,4219.000,3410.000,3577.000,8360.000,2801.000,2186.000,0.000,0.000,0
2026-01-31 13:38:58,7613454,2388.000,4637.000,3117.000,6732.000,2088.000,1349.000,0.000,0.000,0
2026-01-31 13:38:58,7613496,1545.000,5374.000,3199.000,3559.000,1588.000,820.000,0.000,0.000,0
2026-01-31 13:38:58,7613536,1499.000,5834.000,3985.000,64.000,986.000,807.000,0.000,0.000,0
2026-01-31 13:38:58,7613574,2928.000,6371.000,3878.000,-694.000,1274.000,371.000,0.000,0.000,0
2026-01-31 13:38:58,7613614,7158.000,8047.000,4183.000,-117.000,1822.000,-1453.000,0.000,0.000,0
2026-01-31 13:38:58,7613654,9151.000,6483.000,3649.000,-738.000,2626.000,-3222.000,0.000,0.000,0
2026-01-31 13:38:58,7613694,9324.000,6096.000,3572.000,1476.000,2482.000,-4834.000,0.000,0.000,0
2026-01-31 13:38:58,7613734,11149.000,5798.000,2515.000,3662.000,1712.000,-5563.000,0.000,0.000,0
2026-01-31 13:38:58,7613774,10497.000,6037.000,1857.000,4466.000,1379.000,-5107.000,0.000,0.000,0
2026-01-31 13:38:58,7613817,10795.000,4784.000,666.000,2937.000,657.000,-4254.000,0.000,0.000,0
2026-01-31 13:38:58,7613854,9750.000,3969.000,-140.000,1218.000,121.000,-3015.000,0.000,0.000,0
2026-01-31 13:38:58,7613894,7822.000,2402.000,307.000,-265.000,-1258.000,-2339.000,0.000,0.000,0
2026-01-31 13:38:58,7613934,5649.000,1300.000,1824.000,-2499.000,-2716.000,-2336.000,0.000,0.000,0
2026-01-31 13:38:58,7613974,4161.000,-472.000,1854.000,-4935.000,-3456.000,-2079.000,0.000,0.000,0
2026-01-31 13:38:58,7614014,2574.000,352.000,1824.000,-10305.000,-3917.000,-1266.000,0.000,0.000,0
2026-01-31 13:38:58,7614054,3326.000,1051.000,1739.000,-16750.000,-3407.000,123.000,0.000,0.000,0
2026-01-31 13:38:58,7614094,4360.000,-101.000,2051.000,-18909.000,-3345.000,1755.000,0.000,0.000,0
2026-01-31 13:38:58,7614134,6014.000,-2201.000,2493.000,-14692.000,-4333.000,4130.000,0.000,0.000,0
2026-01-31 13:38:58,7614174,8879.000,-1931.000,2645.000,-4163.000,-6081.000,7141.000,0.000,0.000,0
2026-01-31 13:38:58,7614214,12264.000,-1473.000,1903.000,10369.000,-6631.000,10350.000,0.000,0.000,0
2026-01-31 13:38:58,7614254,17599.000,657.000,-673.000,23709.000,-5707.000,14073.000,0.000,0.000,0
2026-01-31 13:38:58,7614294,19821.000,5722.000,-2551.000,32731.000,-2313.000,15211.000,0.000,0.000,0
2026-01-31 13:38:58,7614334,15001.000,5858.000,2806.000,32753.000,1678.000,13262.000,0.000,0.000,0
2026-01-31 13:38:58,7614374,10978.000,4596.000,1667.000,24094.000,3332.000,9348.000,0.000,0.000,0
2026-01-31 13:38:59,7614414,6061.000,4494.000,405.000,1358.000,602.000,3461.000,0.000,0.000,0
2026-01-31 13:38:59,7614454,4468.000,3519.000,271.000,-5466.000,-311.000,1652.000,0.000,0.000,0
2026-01-31 13:38:59,7614494,3757.000,2159.000,-38.000,-6781.000,-681.000,1455.000,0.000,0.000,0
2026-01-31 13:38:59,7614534,3465.000,2071.000,318.000,-5219.000,-1130.000,2162.000,0.000,0.000,0
2026-01-31 13:38:59,7614574,3643.000,2264.000,1218.000,-3035.000,-1273.000,3474.000,0.000,0.000,0
2026-01-31 13:38:59,7614614,4561.000,2487.000,1456.000,-2228.000,-1556.000,4213.000,0.000,0.000,0
2026-01-31 13:38:59,7614654,7372.000,3236.000,2286.000,-3279.000,-2164.000,4176.000,0.000,0.000,0
2026-01-31 13:38:59,7614694,8960.000,2397.000,3603.000,-6085.000,-2308.000,2084.000,0.000,0.000,0
2026-01-31 13:38:59,7614734,10230.000,721.000,3285.000,-8152.000,-2023.000,-1526.000,0.000,0.000,0
2026-01-31 13:38:59,7614774,14230.000,1632.000,3357.000,-8217.000,-827.000,-5567.000,0.000,0.000,0
2026-01-31 13:38:59,7614814,13414.000,1300.000,3091.000,-5538.000,1309.000,-6773.000,0.000,0.000,0
2026-01-31 13:38:59,7614854,14167.000,1133.000,2206.000,-5667.000,2936.000,-8183.000,0.000,0.000,0
2026-01-31 13:38:59,7614894,14559.000,1095.000,1331.000,-6805.000,4698.000,-9475.000,0.000,0.000,0
2026-01-31 13:38:59,7614934,11401.000,737.000,797.000,-6914.000,6033.000,-10184.000,0.000,0.000,0
2026-01-31 13:38:59,7614974,7801.000,569.000,741.000,-7014.000,6049.000,-10028.000,0.000,0.000,0
2026-01-31 13:38:59,7615014,6114.000,454.000,1116.000,-6129.000,5679.000,-9124.000,0.000,0.000,0
2026-01-31 13:38:59,7615054,5364.000,667.000,742.000,-4817.000,5418.000,-8070.000,0.000,0.000,0
2026-01-31 13:38:59,7615094,6106.000,1012.000,364.000,-4169.000,5192.000,-6426.000,0.000,0.000,0
2026-01-31 13:38:59,7615134,6970.000,1067.000,-76.000,-3442.000,5323.000,-4879.000,0.000,0.000,0
2026-01-31 13:38:59,7615174,8616.000,661.000,-573.000,-652.000,5062.000,-2004.000,0.000,0.000,0
2026-01-31 13:38:59,7615214,8034.000,510.000,-305.000,2035.000,4224.000,-15.000,0.000,0.000,0
2026-01-31 13:38:59,7615254,7659.000,1318.000,992.000,4827.000,2045.000,1899.000,0.000,0.000,0
2026-01-31 13:38:59,7615294,8658.000,1642.000,2792.000,5383.000,-141.000,4677.000,0.000,0.000,0
2026-01-31 13:38:59,7615334,8195.000,1797.000,2777.000,6740.000,-1627.000,7959.000,0.000,0.000,0
2026-01-31 13:38:59,7615374,8711.000,1970.000,2654.000,6091.000,-3681.000,10388.000,0.000,0.000,0
2026-01-31 13:39:00,7615414,11065.000,1482.000,2988.000,4153.000,-5946.000,12144.000,0.000,0.000,0
2026-01-31 13:39:00,7615454,10818.000,1515.000,3424.000,3922.000,-6191.000,12254.000,0.000,0.000,0
2026-01-31 13:39:00,7615496,7815.000,1622.000,3183.000,2708.000,-4919.000,11268.000,0.000,0.000,0
2026-01-31 13:39:00,7615536,6075.000,1799.000,1664.000,128.000,-4199.000,10046.000,0.000,0.000,0
2026-01-31 13:39:00,7615574,6370.000,1547.000,1529.000,-971.000,-4250.000,7526.000,0.000,0.000,0
2026-01-31 13:39:00,7615614,6921.000,1448.000,2087.000,256.000,-4072.000,6402.000,0.000,0.000,0
2026-01-31 13:39:00,7615654,7955.000,1707.000,3040.000,1789.000,-3855.000,5651.000,0.000,0.000,0
2026-01-31 13:39:00,7615694,9193.000,3127.000,4395.000,3643.000,-3170.000,4740.000,0.000,0.000,0
2026-01-31 13:39:00,7615734,9366.000,3630.000,5086.000,2094.000,-2089.000,2785.000,0.000,0.000,0
2026-01-31 13:39:00,7615774,10322.000,3413.000,4168.000,-611.000,-1153.000,-259.000,0.000,0.000,0
2026-01-31 13:39:00,7615816,13125.000,2653.000,3689.000,-3360.000,-253.000,-3072.000,0.000,0.000,0
2026-01-31 13:39:00,7615854,12295.000,2517.000,2974.000,-3135.000,1890.000,-4960.000,0.000,0.000,0
2026-01-31 13:39:00,7615894,14347.000,2215.000,1732.000,-4974.000,3344.000,-7312.000,0.000,0.000,0
2026-01-31 13:39:00,7615934,13804.000,1299.000,662.000,-7602.000,5844.000,-10421.000,0.000,0.000,0
2026-01-31 13:39:00,7615974,10171.000,290.000,583.000,-9757.000,6903.000,-10666.000,0.000,0.000,0
2026-01-31 13:39:00,7616014,7687.000,-261.000,922.000,-9568.000,7233.000,-10166.000,0.000,0.000,0
2026-01-31 13:39:00,7616054,6328.000,519.000,981.000,-6863.000,7358.000,-9253.000,0.000,0.000,0
2026-01-31 13:39:00,7616094,6018.000,739.000,338.000,-5384.000,6843.000,-8061.000,0.000,0.000,0
2026-01-31 13:39:00,7616134,6704.000,1092.000,-68.000,-3881.000,6253.000,-6476.000,0.000,0.000,0
2026-01-31 13:39:00,7616174,7745.000,1249.000,-307.000,-2022.000,6022.000,-4537.000,0.000,0.000,0
2026-01-31 13:39:00,7616214,8421.000,1662.000,-367.000,211.000,5690.000,-2478.000,0.000,0.000,0
2026-01-31 13:39:00,7616254,7970.000,1601.000,273.000,1223.000,4753.000,-1545.000,0.000,0.000,0
2026-01-31 13:39:00,7616294,7957.000,532.000,1947.000,916.000,2924.000,-967.000,0.000,0.000,0
2026-01-31 13:39:00,7616334,8273.000,918.000,2966.000,3706.000,-478.000,2472.000,0.000,0.000,0
2026-01-31 13:39:00,7616374,7617.000,590.000,3658.000,6370.000,-3057.000,4719.000,0.000,0.000,0
2026-01-31 13:39:01,7616414,10190.000,397.000,3733.000,8294.000,-5431.000,7141.000,0.000,0.000,0
2026-01-31 13:39:01,7616454,10506.000,1847.000,3456.000,7880.000,-5839.000,8885.000,0.000,0.000,0
2026-01-31 13:39:01,7616494,7620.000,1668.000,3310.000,5422.000,-5190.000,8965.000,0.000,0.000,0
2026-01-31 13:39:01,7616534,5942.000,979.000,2483.000,2386.000,-4640.000,8851.000,0.000,0.000,0
2026-01-31 13:39:01,7616574,5398.000,1061.000,1835.000,2126.000,-4232.000,8973.000,0.000,0.000,0
2026-01-31 13:39:01,7616614,5974.000,771.000,1671.000,3440.000,-4347.000,9619.000,0.000,0.000,0
2026-01-31 13:39:01,7616654,7572.000,1528.000,2430.000,6333.000,-4023.000,10290.000,0.000,0.000,0
2026-01-31 13:39:01,7616694,9187.000,3417.000,2878.000,8262.000,-2471.000,10895.000,0.000,0.000,0
2026-01-31 13:39:01,7616734,10538.000,7278.000,3868.000,5496.000,-791.000,8226.000,0.000,0.000,0
2026-01-31 13:39:01,7616774,10116.000,5166.000,4060.000,2148.000,-767.000,3485.000,0.000,0.000,0
2026-01-31 13:39:01,7616814,13327.000,5731.000,4029.000,127.000,-814.000,-178.000,0.000,0.000,0
2026-01-31 13:39:01,7616854,11652.000,5690.000,3002.000,-673.000,524.000,-3383.000,0.000,0.000,0
2026-01-31 13:39:01,7616894,12060.000,4641.000,1842.000,-3810.000,892.000,-7561.000,0.000,0.000,0
2026-01-31 13:39:01,7616934,15448.000,4087.000,710.000,-7445.000,1540.000,-11465.000,0.000,0.000,0
2026-01-31 13:39:01,7616974,15806.000,2523.000,-817.000,-6711.000,2399.000,-14414.000,0.000,0.000,0
2026-01-31 13:39:01,7617014,12786.000,605.000,-805.000,-5182.000,1803.000,-16793.000,0.000,0.000,0
2026-01-31 13:39:01,7617054,10441.000,1586.000,-660.000,1575.000,1222.000,-18711.000,0.000,0.000,0
2026-01-31 13:39:01,7617094,8158.000,3501.000,-2574.000,4315.000,-1732.000,-19602.000,0.000,0.000,0
2026-01-31 13:39:01,7617134,7369.000,2226.000,-2052.000,4919.000,-3429.000,-18657.000,0.000,0.000,0
2026-01-31 13:39:01,7617174,5897.000,2393.000,-2559.000,9538.000,-4545.000,-16880.000,0.000,0.000,0
2026-01-31 13:39:01,7617214,5538.000,4985.000,-3336.000,11457.000,-6270.000,-14518.000,0.000,0.000,0
2026-01-31 13:39:01,7617254,4545.000,5755.000,-2139.000,8560.000,-6684.000,-11854.000,0.000,0.000,0
2026-01-31 13:39:01,7617294,3249.000,6417.000,-1600.000,7019.000,-6629.000,-9430.000,0.000,0.000,0
2026-01-31 13:39:01,7617334,1509.000,7354.000,-1745.000,3370.000,-5919.000,-6940.000,0.000,0.000,0
2026-01-31 13:39:01,7617374,-1224.000,7216.000,-1957.000,1054.000,-3849.000,-4336.000,0.000,0.000,0
2026-01-31 13:39:02,7617414,-2024.000,8316.000,-3021.000,1642.000,-2298.000,-2783.000,0.000,0.000,0
2026-01-31 13:39:02,7617454,-1729.000,7165.000,-1880.000,2212.000,-1379.000,-1909.000,0.000,0.000,0
2026-01-31 13:39:02,7617494,-2126.000,7398.000,-1629.000,2408.000,130.000,-168.000,0.000,0.000,0
2026-01-31 13:39:02,7617534,-2851.000,5668.000,-1099.000,294.000,573.000,-303.000,0.000,0.000,0
2026-01-31 13:39:02,7617574,-3465.000,4081.000,-1112.000,-268.000,698.000,-791.000,0.000,0.000,0
2026-01-31 13:39:02,7617614,-3520.000,4168.000,-1535.000,98.000,309.000,-1301.000,0.000,0.000,0
2026-01-31 13:39:02,7617654,-3815.000,4021.000,-1056.000,357.000,-269.000,-1626.000,0.000,0.000,0
2026-01-31 13:39:02,7617694,-3728.000,4775.000,-1428.000,219.000,-847.000,-1559.000,0.000,0.000,0
2026-01-31 13:39:02,7617734,-3771.000,5218.000,-1898.000,-104.000,-1218.000,-1408.000,0.000,0.000,0
2026-01-31 13:39:02,7617774,-4065.000,5988.000,-2257.000,461.000,-1310.000,-1155.000,0.000,0.000,0
2026-01-31 13:39:02,7617817,-4225.000,6422.000,-3482.000,448.000,-995.000,-907.000,0.000,0.000,0
2026-01-31 13:39:02,7617854,-4820.000,6670.000,-4407.000,625.000,-676.000,-763.000,0.000,0.000,0
2026-01-31 13:39:02,7617894,-5776.000,7975.000,-6507.000,2221.000,620.000,515.000,0.000,0.000,0
2026-01-31 13:39:02,7617934,-4927.000,7177.000,-6829.000,1529.000,703.000,1539.000,0.000,0.000,0
2026-01-31 13:39:02,7617974,-3702.000,6416.000,-6898.000,983.000,1148.000,2388.000,0.000,0.000,0
2026-01-31 13:39:02,7618014,-3325.000,6092.000,-6358.000,1211.000,1496.000,3075.000,0.000,0.000,0
2026-01-31 13:39:02,7618054,-2738.000,5338.000,-4152.000,618.000,832.000,3277.000,0.000,0.000,0
2026-01-31 13:39:02,7618094,-2259.000,4844.000,-2467.000,-11.000,-244.000,3068.000,0.000,0.000,0
2026-01-31 13:39:02,7618134,-2427.000,4402.000,-972.000,-316.000,-1022.000,2713.000,0.000,0.000,0
2026-01-31 13:39:02,7618174,-2540.000,4783.000,-1424.000,-936.000,-1073.000,1968.000,0.000,0.000,0
2026-01-31 13:39:02,7618214,-2776.000,5495.000,-2316.000,-2260.000,-771.000,1097.000,0.000,0.000,0
2026-01-31 13:39:02,7618254,-2787.000,6028.000,-3234.000,-2339.000,132.000,294.000,0.000,0.000,0
2026-01-31 13:39:02,7618294,-2714.000,7612.000,-4512.000,-1512.000,927.000,225.000,0.000,0.000,0
2026-01-31 13:39:02,7618334,-2931.000,7761.000,-3842.000,-1000.000,1341.000,115.000,0.000,0.000,0
2026-01-31 13:39:02,7618374,-3117.000,8894.000,-4812.000,-1193.000,2242.000,121.000,0.000,0.000,0
2026-01-31 13:39:03,7618414,-2746.000,9340.000,-6442.000,-109.000,2772.000,536.000,0.000,0.000,0
2026-01-31 13:39:03,7618454,-1386.000,8752.000,-4959.000,2179.000,1613.000,386.000,0.000,0.000,0
2026-01-31 13:39:03,7618494,-314.000,7943.000,-4558.000,2457.000,1466.000,281.000,0.000,0.000,0
2026-01-31 13:39:03,7618534,-969.000,7118.000,-4637.000,1025.000,1909.000,537.000,0.000,0.000,0
2026-01-31 13:39:03,7618574,-2350.000,4989.000,-3893.000,371.000,1800.000,565.000,0.000,0.000,0
2026-01-31 13:39:03,7618614,-2833.000,3892.000,-2637.000,1310.000,1084.000,220.000,0.000,0.000,0
2026-01-31 13:39:03,7618654,-3476.000,4671.000,-1573.000,1284.000,-27.000,-710.000,0.000,0.000,0
2026-01-31 13:39:03,7618694,-3261.000,4460.000,-1435.000,255.000,-462.000,-1456.000,0.000,0.000,0
2026-01-31 13:39:03,7618734,-3312.000,5111.000,-2177.000,83.000,-1481.000,-1341.000,0.000,0.000,0
2026-01-31 13:39:03,7618774,-3412.000,6177.000,-2255.000,-674.000,-2172.000,-1212.000,0.000,0.000,0
2026-01-31 13:39:03,7618814,-3013.000,6907.000,-4355.000,-1215.000,-2032.000,-756.000,0.000,0.000,0
2026-01-31 13:39:03,7618854,-3150.000,6594.000,-6055.000,-13.000,-2039.000,-167.000,0.000,0.000,0
2026-01-31 13:39:03,7618894,-4074.000,7875.000,-6600.000,3642.000,-1902.000,973.000,0.000,0.000,0
2026-01-31 13:39:03,7618934,-4283.000,9466.000,-6701.000,3414.000,-1456.000,2276.000,0.000,0.000,0
2026-01-31 13:39:03,7618974,-3607.000,6449.000,-7711.000,1518.000,-893.000,2864.000,0.000,0.000,0
2026-01-31 13:39:03,7619014,-2948.000,5809.000,-7753.000,1907.000,-1078.000,3598.000,0.000,0.000,0
2026-01-31 13:39:03,7619054,-1953.000,5428.000,-5498.000,2910.000,-1298.000,4176.000,0.000,0.000,0
2026-01-31 13:39:03,7619094,-935.000,5012.000,-2528.000,760.000,-1523.000,3554.000,0.000,0.000,0
2026-01-31 13:39:03,7619134,-974.000,4318.000,-2005.000,-1016.000,-1717.000,2735.000,0.000,0.000,0
2026-01-31 13:39:03,7619174,-1564.000,3857.000,-2134.000,-2142.000,-1795.000,2209.000,0.000,0.000,0
2026-01-31 13:39:03,7619214,-1700.000,4017.000,-2954.000,-2773.000,-1553.000,1653.000,0.000,0.000,0
2026-01-31 13:39:03,7619254,-2245.000,5478.000,-3412.000,-2884.000,-1104.000,1107.000,0.000,0.000,0
2026-01-31 13:39:03,7619294,-1669.000,6919.000,-3772.000,-3877.000,-508.000,722.000,0.000,0.000,0
2026-01-31 13:39:03,7619334,-1022.000,7812.000,-4452.000,-3198.000,335.000,348.000,0.000,0.000,0
2026-01-31 13:39:03,7619374,-1268.000,9071.000,-3930.000,-1841.000,1141.000,-58.000,0.000,0.000,0
2026-01-31 13:39:04,7619414,-1470.000,10357.000,-5540.000,-1474.000,2654.000,-101.000,0.000,0.000,0
2026-01-31 13:39:04,7619454,1021.000,9487.000,-5598.000,2756.000,2091.000,-394.000,0.000,0.000,0
2026-01-31 13:39:04,7619496,1653.000,8874.000,-5223.000,4573.000,2009.000,4.000,0.000,0.000,0
2026-01-31 13:39:04,7619535,282.000,7457.000,-3772.000,998.000,2154.000,574.000,0.000,0.000,0
2026-01-31 13:39:04,7619574,-853.000,5023.000,-2493.000,-1539.000,2227.000,477.000,0.000,0.000,0
2026-01-31 13:39:04,7619614,-2323.000,4007.000,-2292.000,-1889.000,1789.000,-171.000,0.000,0.000,0
2026-01-31 13:39:04,7619654,-2927.000,2972.000,-2324.000,-2268.000,1122.000,-605.000,0.000,0.000,0
2026-01-31 13:39:04,7619694,-2719.000,3699.000,-1811.000,677.000,412.000,-1289.000,0.000,0.000,0
2026-01-31 13:39:04,7619734,-2582.000,4184.000,-1371.000,2597.000,-455.000,-2141.000,0.000,0.000,0
2026-01-31 13:39:04,7619774,-2506.000,5849.000,-2239.000,1849.000,-1003.000,-2387.000,0.000,0.000,0
2026-01-31 13:39:04,7619815,-2192.000,7877.000,-4593.000,3368.000,-1878.000,-2087.000,0.000,0.000,0
2026-01-31 13:39:04,7619854,-2009.000,9032.000,-6084.000,2221.000,-1561.000,-411.000,0.000,0.000,0
2026-01-31 13:39:04,7619894,-2203.000,9997.000,-8366.000,2947.000,-925.000,1442.000,0.000,0.000,0
2026-01-31 13:39:04,7619934,-1323.000,7705.000,-8919.000,3059.000,-597.000,2375.000,0.000,0.000,0
2026-01-31 13:39:04,7619974,-1009.000,7760.000,-7783.000,2481.000,28.000,3042.000,0.000,0.000,0
2026-01-31 13:39:04,7620014,-1793.000,6501.000,-6820.000,1715.000,20.000,3608.000,0.000,0.000,0
2026-01-31 13:39:04,7620054,-1408.000,5744.000,-4095.000,991.000,-697.000,3631.000,0.000,0.000,0
2026-01-31 13:39:04,7620094,-1075.000,4859.000,-2184.000,83.000,-1500.000,3089.000,0.000,0.000,0
2026-01-31 13:39:04,7620134,-1818.000,4212.000,-2069.000,-1525.000,-1956.000,2362.000,0.000,0.000,0
2026-01-31 13:39:04,7620174,-1458.000,4101.000,-2646.000,-3197.000,-2774.000,1590.000,0.000,0.000,0
2026-01-31 13:39:04,7620214,-890.000,5526.000,-3512.000,-3178.000,-2226.000,315.000,0.000,0.000,0
2026-01-31 13:39:04,7620254,319.000,7012.000,-5483.000,-4426.000,-769.000,26.000,0.000,0.000,0
2026-01-31 13:39:04,7620294,939.000,7206.000,-6026.000,-2379.000,697.000,-439.000,0.000,0.000,0
2026-01-31 13:39:04,7620334,1087.000,8967.000,-5829.000,-3321.000,2511.000,-254.000,0.000,0.000,0
2026-01-31 13:39:04,7620374,600.000,9065.000,-6021.000,-2286.000,3714.000,222.000,0.000,0.000,0
2026-01-31 13:39:05,7620414,1398.000,10576.000,-6281.000,-129.000,3458.000,391.000,0.000,0.000,0
2026-01-31 13:39:05,7620454,1691.000,9608.000,-5218.000,1822.000,3466.000,550.000,0.000,0.000,0
2026-01-31 13:39:05,7620494,736.000,7882.000,-3623.000,2122.000,3483.000,-415.000,0.000,0.000,0
2026-01-31 13:39:05,7620534,-1740.000,5361.000,-2712.000,554.000,3137.000,-1227.000,0.000,0.000,0
2026-01-31 13:39:05,7620574,-3722.000,4194.000,-1926.000,1463.000,1130.000,-2661.000,0.000,0.000,0
2026-01-31 13:39:05,7620614,-3492.000,4349.000,-1421.000,1251.000,-689.000,-2897.000,0.000,0.000,0
2026-01-31 13:39:05,7620654,-2028.000,6815.000,-1230.000,-1149.000,-1515.000,-3564.000,0.000,0.000,0
2026-01-31 13:39:05,7620694,-1532.000,6419.000,-3117.000,-3404.000,-2224.000,-4282.000,0.000,0.000,0
2026-01-31 13:39:05,7620734,-1732.000,7327.000,-3686.000,-1819.000,-2802.000,-4880.000,0.000,0.000,0
2026-01-31 13:39:05,7620774,-2405.000,7405.000,-5414.000,-898.000,-2939.000,-4991.000,0.000,0.000,0
2026-01-31 13:39:05,7620814,-2748.000,7897.000,-5917.000,781.000,-2895.000,-4347.000,0.000,0.000,0
2026-01-31 13:39:05,7620854,-2771.000,9063.000,-6101.000,301.000,-2236.000,-2893.000,0.000,0.000,0
2026-01-31 13:39:05,7620894,-3314.000,7340.000,-7245.000,-607.000,-1427.000,-1168.000,0.000,0.000,0
2026-01-31 13:39:05,7620934,-3376.000,6695.000,-7237.000,1202.000,-1029.000,682.000,0.000,0.000,0
2026-01-31 13:39:05,7620974,-3006.000,5688.000,-4732.000,2180.000,-955.000,2679.000,0.000,0.000,0
2026-01-31 13:39:05,7621014,-1939.000,5038.000,-1594.000,2485.000,-1512.000,2691.000,0.000,0.000,0
2026-01-31 13:39:05,7621054,-2071.000,4278.000,-583.000,699.000,-2076.000,2298.000,0.000,0.000,0
2026-01-31 13:39:05,7621094,-2622.000,4041.000,-1663.000,-642.000,-2447.000,1666.000,0.000,0.000,0
2026-01-31 13:39:05,7621134,-2846.000,4833.000,-1674.000,-1413.000,-2493.000,982.000,0.000,0.000,0
2026-01-31 13:39:05,7621174,-2628.000,5812.000,-2567.000,-1887.000,-1796.000,357.000,0.000,0.000,0
2026-01-31 13:39:05,7621214,-2760.000,7996.000,-4146.000,-2127.000,-783.000,107.000,0.000,0.000,0
2026-01-31 13:39:05,7621254,-2340.000,7932.000,-3744.000,-2442.000,135.000,-92.000,0.000,0.000,0
2026-01-31 13:39:05,7621294,-3050.000,8387.000,-3765.000,-2209.000,928.000,-141.000,0.000,0.000,0
2026-01-31 13:39:05,7621334,-3687.000,9847.000,-4120.000,-1866.000,1842.000,206.000,0.000,0.000,0
2026-01-31 13:39:05,7621374,-2320.000,8745.000,-3371.000,-1333.000,1583.000,276.000,0.000,0.000,0
2026-01-31 13:39:06,7621414,-1519.000,8401.000,-2817.000,-430.000,1205.000,731.000,0.000,0.000,0
2026-01-31 13:39:06,7621454,-1493.000,7429.000,-2221.000,412.000,1137.000,658.000,0.000,0.000,0
2026-01-31 13:39:06,7621494,-2045.000,5363.000,-1672.000,-314.000,1199.000,67.000,0.000,0.000,0
2026-01-31 13:39:06,7621534,-2322.000,4290.000,-1354.000,-446.000,1100.000,-688.000,0.000,0.000,0
2026-01-31 13:39:06,7621574,-2195.000,3661.000,-720.000,679.000,762.000,-1342.000,0.000,0.000,0
2026-01-31 13:39:06,7621614,-2367.000,4441.000,-1012.000,821.000,517.000,-1570.000,0.000,0.000,0
2026-01-31 13:39:06,7621654,-2554.000,5272.000,-731.000,187.000,92.000,-1389.000,0.000,0.000,0
2026-01-31 13:39:06,7621694,-3000.000,5711.000,-506.000,844.000,150.000,-1234.000,0.000,0.000,0
2026-01-31 13:39:06,7621734,-4133.000,7779.000,-2312.000,1084.000,233.000,-887.000,0.000,0.000,0
2026-01-31 13:39:06,7621774,-4232.000,8118.000,-3190.000,1122.000,378.000,-1075.000,0.000,0.000,0
2026-01-31 13:39:06,7621817,-4487.000,8907.000,-4696.000,1886.000,816.000,-987.000,0.000,0.000,0
2026-01-31 13:39:06,7621854,-3866.000,10327.000,-6301.000,2147.000,926.000,-109.000,0.000,0.000,0
2026-01-31 13:39:06,7621894,-3026.000,8061.000,-5322.000,1622.000,614.000,866.000,0.000,0.000,0
2026-01-31 13:39:06,7621934,-2586.000,7510.000,-6164.000,1140.000,954.000,1826.000,0.000,0.000,0
2026-01-31 13:39:06,7621974,-2020.000,6317.000,-5696.000,537.000,1274.000,2725.000,0.000,0.000,0
2026-01-31 13:39:06,7622014,-1336.000,5532.000,-4558.000,1025.000,1540.000,3341.000,0.000,0.000,0
2026-01-31 13:39:06,7622054,-939.000,4562.000,-2472.000,1058.000,1339.000,3353.000,0.000,0.000,0
2026-01-31 13:39:06,7622094,-805.000,3603.000,-1250.000,-241.000,1107.000,3114.000,0.000,0.000,0
2026-01-31 13:39:06,7622134,-657.000,3542.000,-1906.000,-278.000,921.000,3103.000,0.000,0.000,0
2026-01-31 13:39:06,7622174,-363.000,4510.000,-1822.000,-400.000,1248.000,2964.000,0.000,0.000,0
2026-01-31 13:39:06,7622214,-691.000,6164.000,-4317.000,-813.000,2427.000,2899.000,0.000,0.000,0
2026-01-31 13:39:06,7622254,-257.000,8076.000,-5893.000,-259.000,3336.000,2866.000,0.000,0.000,0
2026-01-31 13:39:06,7622294,-186.000,8691.000,-6221.000,2845.000,4332.000,2170.000,0.000,0.000,0
2026-01-31 13:39:06,7622334,-206.000,9393.000,-6572.000,4988.000,4807.000,1406.000,0.000,0.000,0
2026-01-31 13:39:06,7622374,100.000,9432.000,-7745.000,5436.000,5080.000,813.000,0.000,0.000,0
2026-01-31 13:39:07,7622414,817.000,8125.000,-6631.000,6408.000,3555.000,46.000,0.000,0.000,0
2026-01-31 13:39:07,7622454,2803.000,7362.000,-5173.000,5664.000,2080.000,120.000,0.000,0.000,0
2026-01-31 13:39:07,7622494,3556.000,6997.000,-5310.000,3186.000,1526.000,302.000,0.000,0.000,0
2026-01-31 13:39:07,7622534,1021.000,4053.000,-3217.000,-678.000,725.000,-73.000,0.000,0.000,0
2026-01-31 13:39:07,7622574,-9.000,3203.000,-2643.000,-2429.000,449.000,-498.000,0.000,0.000,0
2026-01-31 13:39:07,7622614,-291.000,2735.000,-2408.000,-2793.000,214.000,-914.000,0.000,0.000,0
2026-01-31 13:39:07,7622654,-551.000,2656.000,-3186.000,-2479.000,245.000,-884.000,0.000,0.000,0
2026-01-31 13:39:07,7622694,-401.000,4889.000,-3937.000,-2632.000,104.000,-710.000,0.000,0.000,0
2026-01-31 13:39:07,7622734,-13.000,5346.000,-4646.000,33.000,-278.000,-31.000,0.000,0.000,0
2026-01-31 13:39:07,7622774,849.000,6863.000,-5240.000,3750.000,-899.000,923.000,0.000,0.000,0
2026-01-31 13:39:07,7622814,1508.000,9464.000,-6073.000,6300.000,-1768.000,1241.000,0.000,0.000,0
2026-01-31 13:39:07,7622854,2095.000,10631.000,-7723.000,4136.000,-1354.000,996.000,0.000,0.000,0
2026-01-31 13:39:07,7622894,3136.000,6541.000,-8996.000,4335.000,-642.000,494.000,0.000,0.000,0
2026-01-31 13:39:07,7622934,3452.000,4328.000,-8314.000,1784.000,360.000,36.000,0.000,0.000,0
2026-01-31 13:39:07,7622974,3329.000,3616.000,-8331.000,1422.000,1551.000,-271.000,0.000,0.000,0
2026-01-31 13:39:07,7623014,2437.000,3362.000,-6374.000,2258.000,1994.000,160.000,0.000,0.000,0
2026-01-31 13:39:07,7623054,1825.000,3121.000,-3800.000,868.000,1752.000,1121.000,0.000,0.000,0
2026-01-31 13:39:07,7623094,1241.000,2404.000,-2688.000,-1975.000,1143.000,1929.000,0.000,0.000,0
2026-01-31 13:39:07,7623134,715.000,2455.000,-3172.000,-3453.000,482.000,2046.000,0.000,0.000,0
2026-01-31 13:39:07,7623174,638.000,3255.000,-3921.000,-3838.000,282.000,1718.000,0.000,0.000,0
2026-01-31 13:39:07,7623214,858.000,3947.000,-6037.000,-3977.000,827.000,1229.000,0.000,0.000,0
2026-01-31 13:39:07,7623254,1364.000,5454.000,-7451.000,-2285.000,1141.000,692.000,0.000,0.000,0
2026-01-31 13:39:07,7623294,2265.000,5412.000,-7547.000,-1441.000,1568.000,-123.000,0.000,0.000,0
2026-01-31 13:39:07,7623334,2875.000,6595.000,-8670.000,951.000,2244.000,-1763.000,0.000,0.000,0
2026-01-31 13:39:07,7623374,2747.000,6472.000,-9236.000,1997.000,2563.000,-2726.000,0.000,0.000,0
2026-01-31 13:39:08,7623414,3652.000,6295.000,-6864.000,2287.000,1299.000,-3186.000,0.000,0.000,0
2026-01-31 13:39:08,7623454,5174.000,5743.000,-5672.000,72.000,-209.000,-2370.000,0.000,0.000,0
2026-01-31 13:39:08,7623494,5074.000,5546.000,-5707.000,-481.000,-732.000,-1018.000,0.000,0.000,0
2026-01-31 13:39:08,7623534,2956.000,3878.000,-3521.000,-837.000,-1075.000,-329.000,0.000,0.000,0
2026-01-31 13:39:08,7623574,1319.000,2860.000,-2201.000,-2264.000,-979.000,308.000,0.000,0.000,0
2026-01-31 13:39:08,7623614,470.000,2337.000,-2355.000,-2538.000,-776.000,272.000,0.000,0.000,0
2026-01-31 13:39:08,7623654,120.000,2481.000,-2616.000,-1804.000,-687.000,14.000,0.000,0.000,0
2026-01-31 13:39:08,7623694,264.000,3515.000,-4186.000,-1993.000,-442.000,-128.000,0.000,0.000,0
2026-01-31 13:39:08,7623734,774.000,4780.000,-4444.000,1537.000,-771.000,113.000,0.000,0.000,0
2026-01-31 13:39:08,7623774,2092.000,6790.000,-4539.000,4190.000,-1104.000,513.000,0.000,0.000,0
2026-01-31 13:39:08,7623814,3228.000,8652.000,-6590.000,5841.000,-1187.000,726.000,0.000,0.000,0
2026-01-31 13:39:08,7623854,2694.000,10137.000,-7710.000,5414.000,-938.000,49.000,0.000,0.000,0
2026-01-31 13:39:08,7623894,2262.000,8554.000,-10054.000,3657.000,-799.000,-503.000,0.000,0.000,0
2026-01-31 13:39:08,7623934,2667.000,6148.000,-9001.000,-1687.000,-759.000,-757.000,0.000,0.000,0
2026-01-31 13:39:08,7623974,2621.000,4885.000,-9242.000,-4248.000,-111.000,-1428.000,0.000,0.000,0
2026-01-31 13:39:08,7624014,2616.000,4376.000,-8342.000,-2992.000,772.000,-1658.000,0.000,0.000,0
2026-01-31 13:39:08,7624054,2233.000,3323.000,-4902.000,-2116.000,815.000,-1019.000,0.000,0.000,0
2026-01-31 13:39:08,7624094,1886.000,2689.000,-2687.000,-3698.000,98.000,-132.000,0.000,0.000,0
2026-01-31 13:39:08,7624134,1323.000,2213.000,-1985.000,-5078.000,-399.000,771.000,0.000,0.000,0
2026-01-31 13:39:08,7624174,945.000,2556.000,-2518.000,-5338.000,-539.000,1204.000,0.000,0.000,0
2026-01-31 13:39:08,7624214,699.000,3436.000,-3576.000,-4554.000,-257.000,1553.000,0.000,0.000,0
2026-01-31 13:39:08,7624254,952.000,5421.000,-5133.000,-2975.000,220.000,1866.000,0.000,0.000,0
2026-01-31 13:39:08,7624294,1336.000,6552.000,-6472.000,-230.000,1248.000,2194.000,0.000,0.000,0
2026-01-31 13:39:08,7624334,2337.000,7406.000,-8159.000,3082.000,1951.000,1373.000,0.000,0.000,0
2026-01-31 13:39:08,7624374,2293.000,7948.000,-6840.000,4356.000,2203.000,176.000,0.000,0.000,0
2026-01-31 13:39:09,7624414,1690.000,8067.000,-7268.000,1750.000,2497.000,-786.000,0.000,0.000,0
2026-01-31 13:39:09,7624454,2292.000,8045.000,-4143.000,-836.000,867.000,-2242.000,0.000,0.000,0
2026-01-31 13:39:09,7624494,4438.000,7384.000,-4670.000,-2666.000,-583.000,-1649.000,0.000,0.000,0
2026-01-31 13:39:09,7624534,5360.000,6739.000,-4789.000,-1306.000,-969.000,-449.000,0.000,0.000,0
2026-01-31 13:39:09,7624574,3369.000,4041.000,-2874.000,-299.000,-853.000,-102.000,0.000,0.000,0
2026-01-31 13:39:09,7624614,1526.000,3385.000,-2145.000,-147.000,-501.000,182.000,0.000,0.000,0
2026-01-31 13:39:09,7624654,644.000,2884.000,-1831.000,-329.000,-195.000,78.000,0.000,0.000,0
2026-01-31 13:39:09,7624694,145.000,2904.000,-1881.000,210.000,-97.000,-36.000,0.000,0.000,0
2026-01-31 13:39:09,7624734,161.000,3724.000,-2515.000,804.000,-144.000,-154.000,0.000,0.000,0
2026-01-31 13:39:09,7624774,1008.000,5134.000,-3102.000,2185.000,-362.000,-297.000,0.000,0.000,0
2026-01-31 13:39:09,7624814,1242.000,8177.000,-4707.000,2644.000,-506.000,-389.000,0.000,0.000,0
2026-01-31 13:39:09,7624854,1297.000,9491.000,-5580.000,2586.000,-1192.000,-558.000,0.000,0.000,0
2026-01-31 13:39:09,7624894,1157.000,9679.000,-5403.000,1500.000,-1506.000,-812.000,0.000,0.000,0
2026-01-31 13:39:09,7624934,1242.000,9820.000,-6951.000,414.000,-1049.000,-1579.000,0.000,0.000,0
2026-01-31 13:39:09,7624974,2223.000,7403.000,-7499.000,1013.000,-1255.000,-1264.000,0.000,0.000,0
2026-01-31 13:39:09,7625014,2942.000,5830.000,-7625.000,-258.000,-712.000,-1310.000,0.000,0.000,0
2026-01-31 13:39:09,7625054,3427.000,5251.000,-8229.000,-1184.000,611.000,-1106.000,0.000,0.000,0
2026-01-31 13:39:09,7625094,2811.000,4432.000,-7007.000,-797.000,1506.000,-200.000,0.000,0.000,0
2026-01-31 13:39:09,7625134,2044.000,3950.000,-4587.000,181.000,1296.000,968.000,0.000,0.000,0
2026-01-31 13:39:09,7625174,1263.000,3639.000,-2822.000,-412.000,568.000,1982.000,0.000,0.000,0
2026-01-31 13:39:09,7625214,513.000,2999.000,-2444.000,-1702.000,25.000,2240.000,0.000,0.000,0
2026-01-31 13:39:09,7625254,236.000,3292.000,-3002.000,-1938.000,168.000,1791.000,0.000,0.000,0
2026-01-31 13:39:09,7625294,341.000,4783.000,-4729.000,-1028.000,648.000,1279.000,0.000,0.000,0
2026-01-31 13:39:09,7625334,539.000,5840.000,-6015.000,97.000,1137.000,912.000,0.000,0.000,0
2026-01-31 13:39:09,7625374,1260.000,6662.000,-7387.000,1031.000,1668.000,359.000,0.000,0.000,0
2026-01-31 13:39:10,7625414,1676.000,7162.000,-7696.000,1513.000,1623.000,-486.000,0.000,0.000,0
2026-01-31 13:39:10,7625454,2369.000,7888.000,-7092.000,1455.000,1346.000,-1077.000,0.000,0.000,0
2026-01-31 13:39:10,7625494,2652.000,8389.000,-7744.000,1786.000,1384.000,-1170.000,0.000,0.000,0
2026-01-31 13:39:10,7625534,3325.000,7932.000,-6115.000,1607.000,207.000,-1063.000,0.000,0.000,0
2026-01-31 13:39:10,7625574,4501.000,6140.000,-4093.000,-87.000,-1320.000,-515.000,0.000,0.000,0
2026-01-31 13:39:10,7625614,3608.000,4122.000,-4001.000,-706.000,-893.000,423.000,0.000,0.000,0
2026-01-31 13:39:10,7625654,2025.000,2813.000,-3496.000,-159.000,-443.000,491.000,0.000,0.000,0
2026-01-31 13:39:10,7625694,1262.000,2512.000,-3087.000,479.000,-153.000,449.000,0.000,0.000,0
2026-01-31 13:39:10,7625734,873.000,2557.000,-3055.000,856.000,-50.000,372.000,0.000,0.000,0
2026-01-31 13:39:10,7625774,817.000,2994.000,-2937.000,1291.000,-76.000,296.000,0.000,0.000,0
2026-01-31 13:39:10,7625816,991.000,4240.000,-3546.000,1451.000,-146.000,422.000,0.000,0.000,0
2026-01-31 13:39:10,7625854,1192.000,5484.000,-4576.000,2006.000,-283.000,559.000,0.000,0.000,0
2026-01-31 13:39:10,7625894,1176.000,7360.000,-5675.000,2389.000,-745.000,865.000,0.000,0.000,0
2026-01-31 13:39:10,7625934,1610.000,9204.000,-6828.000,2576.000,-1592.000,810.000,0.000,0.000,0
2026-01-31 13:39:10,7625974,1855.000,9056.000,-7907.000,384.000,-1985.000,48.000,0.000,0.000,0
2026-01-31 13:39:10,7626014,2321.000,7652.000,-8699.000,1276.000,-1717.000,-1015.000,0.000,0.000,0
2026-01-31 13:39:10,7626054,2853.000,5547.000,-7559.000,-527.000,-1570.000,-505.000,0.000,0.000,0
2026-01-31 13:39:10,7626094,3219.000,4247.000,-7869.000,-2048.000,-497.000,-932.000,0.000,0.000,0
2026-01-31 13:39:10,7626134,3144.000,3810.000,-7665.000,-1680.000,627.000,-498.000,0.000,0.000,0
2026-01-31 13:39:10,7626174,2890.000,3711.000,-6350.000,-813.000,970.000,55.000,0.000,0.000,0
2026-01-31 13:39:10,7626214,2475.000,3418.000,-3636.000,-871.000,643.000,861.000,0.000,0.000,0
2026-01-31 13:39:10,7626254,1815.000,3116.000,-2523.000,-2053.000,556.000,1295.000,0.000,0.000,0
2026-01-31 13:39:10,7626294,1060.000,2849.000,-2770.000,-2990.000,764.000,1389.000,0.000,0.000,0
2026-01-31 13:39:10,7626334,807.000,3526.000,-3696.000,-2598.000,1173.000,1215.000,0.000,0.000,0
2026-01-31 13:39:10,7626374,912.000,4704.000,-5763.000,-1114.000,1934.000,809.000,0.000,0.000,0
2026-01-31 13:39:11,7626414,1114.000,6247.000,-7053.000,1709.000,2260.000,539.000,0.000,0.000,0
2026-01-31 13:39:11,7626454,1679.000,6700.000,-7711.000,2031.000,2098.000,-99.000,0.000,0.000,0
2026-01-31 13:39:11,7626494,1931.000,7031.000,-7031.000,1324.000,1543.000,-779.000,0.000,0.000,0
2026-01-31 13:39:11,7626534,2335.000,7824.000,-8097.000,766.000,1368.000,-1100.000,0.000,0.000,0
2026-01-31 13:39:11,7626574,3449.000,7747.000,-7749.000,999.000,387.000,-1234.000,0.000,0.000,0
2026-01-31 13:39:11,7626614,4980.000,6697.000,-5182.000,-257.000,-1459.000,-1169.000,0.000,0.000,0
2026-01-31 13:39:11,7626654,5365.000,5796.000,-4966.000,-1493.000,-1720.000,-752.000,0.000,0.000,0
2026-01-31 13:39:11,7626694,3939.000,3615.000,-3920.000,-2656.000,-1488.000,-539.000,0.000,0.000,0
2026-01-31 13:39:11,7626734,2236.000,2802.000,-2930.000,-1802.000,-910.000,-523.000,0.000,0.000,0
2026-01-31 13:39:11,7626774,1244.000,2732.000,-2560.000,-1253.000,-597.000,-554.000,0.000,0.000,0
2026-01-31 13:39:11,7626814,648.000,2724.000,-2451.000,331.000,222.000,-489.000,0.000,0.000,0
2026-01-31 13:39:11,7626854,747.000,3648.000,-2442.000,1424.000,337.000,-168.000,0.000,0.000,0
2026-01-31 13:39:11,7626894,1113.000,4810.000,-4205.000,2687.000,408.000,421.000,0.000,0.000,0
2026-01-31 13:39:11,7626934,978.000,7014.000,-5837.000,5581.000,-331.000,1441.000,0.000,0.000,0
2026-01-31 13:39:11,7626974,1581.000,8583.000,-6006.000,5528.000,-1580.000,1802.000,0.000,0.000,0
2026-01-31 13:39:11,7627014,2288.000,8712.000,-7360.000,3537.000,-1779.000,1177.000,0.000,0.000,0
2026-01-31 13:39:11,7627054,2288.000,8248.000,-9195.000,1275.000,-1177.000,-616.000,0.000,0.000,0
2026-01-31 13:39:11,7627094,2844.000,7118.000,-8038.000,1106.000,-1215.000,-1245.000,0.000,0.000,0
2026-01-31 13:39:11,7627134,2959.000,4876.000,-6893.000,-1823.000,-928.000,-1684.000,0.000,0.000,0
2026-01-31 13:39:11,7627174,3552.000,3533.000,-7853.000,-3375.000,1200.000,-2172.000,0.000,0.000,0
2026-01-31 13:39:11,7627214,3445.000,3307.000,-6629.000,-1537.000,2069.000,-1582.000,0.000,0.000,0
2026-01-31 13:39:11,7627254,2902.000,3272.000,-4403.000,-231.000,2225.000,-291.000,0.000,0.000,0
2026-01-31 13:39:11,7627294,2099.000,3215.000,-3088.000,-533.000,1975.000,744.000,0.000,0.000,0
2026-01-31 13:39:11,7627334,1208.000,2997.000,-3201.000,-1965.000,1836.000,1340.000,0.000,0.000,0
2026-01-31 13:39:11,7627374,691.000,2836.000,-3981.000,-2302.000,1879.000,1503.000,0.000,0.000,0
2026-01-31 13:39:12,7627414,677.000,3586.000,-4972.000,-723.000,1959.000,1481.000,0.000,0.000,0
2026-01-31 13:39:12,7627454,759.000,4399.000,-6292.000,1135.000,2041.000,1464.000,0.000,0.000,0
2026-01-31 13:39:12,7627496,1637.000,5788.000,-7682.000,2924.000,1944.000,1328.000,0.000,0.000,0
2026-01-31 13:39:12,7627536,2684.000,6445.000,-7881.000,2508.000,1432.000,94.000,0.000,0.000,0
2026-01-31 13:39:12,7627574,2741.000,7447.000,-8499.000,1193.000,1242.000,-659.000,0.000,0.000,0
2026-01-31 13:39:12,7627614,3390.000,7521.000,-7997.000,665.000,350.000,-1161.000,0.000,0.000,0
2026-01-31 13:39:12,7627654,4611.000,6257.000,-5841.000,-1111.000,-1153.000,-1470.000,0.000,0.000,0
2026-01-31 13:39:12,7627694,6026.000,5408.000,-5149.000,-2575.000,-1842.000,-1121.000,0.000,0.000,0
2026-01-31 13:39:12,7627734,5139.000,3953.000,-4309.000,-2488.000,-1696.000,-777.000,0.000,0.000,0
2026-01-31 13:39:12,7627774,3243.000,3147.000,-3187.000,-1926.000,-1132.000,-689.000,0.000,0.000,0
2026-01-31 13:39:12,7627817,1730.000,2850.000,-2995.000,-1506.000,-520.000,-534.000,0.000,0.000,0
2026-01-31 13:39:12,7627854,911.000,2592.000,-2617.000,-663.000,-266.000,-633.000,0.000,0.000,0
2026-01-31 13:39:12,7627894,637.000,2891.000,-2963.000,313.000,32.000,-684.000,0.000,0.000,0
2026-01-31 13:39:12,7627934,657.000,4127.000,-3367.000,875.000,-13.000,-524.000,0.000,0.000,0
2026-01-31 13:39:12,7627974,1033.000,6143.000,-4642.000,1806.000,-503.000,123.000,0.000,0.000,0
2026-01-31 13:39:12,7628014,1364.000,7319.000,-5675.000,1806.000,-1071.000,560.000,0.000,0.000,0
2026-01-31 13:39:12,7628054,2479.000,8484.000,-6747.000,2472.000,-1735.000,789.000,0.000,0.000,0
2026-01-31 13:39:12,7628094,2414.000,8651.000,-7633.000,947.000,-1469.000,-144.000,0.000,0.000,0
2026-01-31 13:39:12,7628134,2654.000,8897.000,-7965.000,2137.000,-1232.000,-1179.000,0.000,0.000,0
2026-01-31 13:39:12,7628174,2621.000,5896.000,-6456.000,-635.000,-1297.000,-1074.000,0.000,0.000,0
2026-01-31 13:39:12,7628214,2900.000,4973.000,-7012.000,-2911.000,-469.000,-1595.000,0.000,0.000,0
2026-01-31 13:39:12,7628254,3081.000,3798.000,-7492.000,-3024.000,806.000,-1286.000,0.000,0.000,0
2026-01-31 13:39:12,7628294,2954.000,3159.000,-5281.000,-658.000,1389.000,-634.000,0.000,0.000,0
2026-01-31 13:39:12,7628334,2417.000,3565.000,-3584.000,459.000,1002.000,799.000,0.000,0.000,0
2026-01-31 13:39:12,7628374,1662.000,3307.000,-2969.000,-1018.000,719.000,1456.000,0.000,0.000,0
2026-01-31 13:39:13,7628414,828.000,3342.000,-3492.000,-2594.000,785.000,1552.000,0.000,0.000,0
2026-01-31 13:39:13,7628454,369.000,3729.000,-4289.000,-2608.000,1094.000,1137.000,0.000,0.000,0
2026-01-31 13:39:13,7628494,233.000,4656.000,-5447.000,-1018.000,1413.000,661.000,0.000,0.000,0
2026-01-31 13:39:13,7628534,502.000,5979.000,-6681.000,753.000,1727.000,397.000,0.000,0.000,0
2026-01-31 13:39:13,7628574,1242.000,6947.000,-7869.000,1519.000,1677.000,102.000,0.000,0.000,0
2026-01-31 13:39:13,7628614,2064.000,7290.000,-7009.000,1405.000,956.000,-299.000,0.000,0.000,0
2026-01-31 13:39:13,7628654,3116.000,8437.000,-8142.000,1541.000,758.000,-238.000,0.000,0.000,0
2026-01-31 13:39:13,7628694,4580.000,7258.000,-6010.000,694.000,-1007.000,-189.000,0.000,0.000,0
2026-01-31 13:39:13,7628734,5580.000,6171.000,-5585.000,-1594.000,-1907.000,-244.000,0.000,0.000,0
2026-01-31 13:39:13,7628774,5283.000,4733.000,-5074.000,-2671.000,-1666.000,-334.000,0.000,0.000,0
2026-01-31 13:39:13,7628814,3538.000,3275.000,-3422.000,-2018.000,-1111.000,-429.000,0.000,0.000,0
2026-01-31 13:39:13,7628854,1937.000,3247.000,-2877.000,-791.000,-455.000,-367.000,0.000,0.000,0
2026-01-31 13:39:13,7628894,994.000,3002.000,-2669.000,-280.000,-155.000,-422.000,0.000,0.000,0
2026-01-31 13:39:13,7628934,602.000,3167.000,-2280.000,230.000,114.000,-360.000,0.000,0.000,0
2026-01-31 13:39:13,7628974,556.000,4208.000,-3165.000,301.000,221.000,-243.000,0.000,0.000,0
2026-01-31 13:39:13,7629014,608.000,5192.000,-3399.000,348.000,-141.000,32.000,0.000,0.000,0
2026-01-31 13:39:13,7629054,565.000,6424.000,-4287.000,1060.000,-694.000,253.000,0.000,0.000,0
2026-01-31 13:39:13,7629094,859.000,8131.000,-5412.000,1456.000,-1052.000,263.000,0.000,0.000,0
2026-01-31 13:39:13,7629134,1987.000,8264.000,-6125.000,1104.000,-1916.000,-502.000,0.000,0.000,0
2026-01-31 13:39:13,7629174,1680.000,9064.000,-7267.000,1604.000,-1176.000,-1158.000,0.000,0.000,0
2026-01-31 13:39:13,7629214,2480.000,7883.000,-6724.000,1409.000,-1448.000,-935.000,0.000,0.000,0
2026-01-31 13:39:13,7629254,2883.000,6062.000,-6563.000,-1231.000,-885.000,-1029.000,0.000,0.000,0
2026-01-31 13:39:13,7629294,2987.000,5082.000,-7592.000,-2550.000,379.000,-775.000,0.000,0.000,0
2026-01-31 13:39:13,7629334,2643.000,4077.000,-6920.000,-1047.000,1186.000,-192.000,0.000,0.000,0
2026-01-31 13:39:13,7629374,2304.000,3859.000,-5016.000,-75.000,1239.000,451.000,0.000,0.000,0
2026-01-31 13:39:14,7629414,1847.000,3774.000,-3180.000,-559.000,823.000,840.000,0.000,0.000,0
2026-01-31 13:39:14,7629454,1277.000,3310.000,-2828.000,-1906.000,704.000,954.000,0.000,0.000,0
2026-01-31 13:39:14,7629498,460.000,3559.000,-3851.000,-2480.000,1045.000,792.000,0.000,0.000,0
2026-01-31 13:39:14,7629534,327.000,4653.000,-4850.000,-926.000,1373.000,531.000,0.000,0.000,0
2026-01-31 13:39:14,7629574,392.000,5675.000,-5644.000,-66.000,1739.000,380.000,0.000,0.000,0
2026-01-31 13:39:14,7629614,1032.000,6983.000,-7229.000,369.000,1990.000,205.000,0.000,0.000,0
2026-01-31 13:39:14,7629654,1213.000,7236.000,-6905.000,673.000,1599.000,-214.000,0.000,0.000,0
2026-01-31 13:39:14,7629694,1835.000,7795.000,-6748.000,1192.000,1096.000,-397.000,0.000,0.000,0
2026-01-31 13:39:14,7629734,2076.000,8564.000,-7475.000,2322.000,789.000,-139.000,0.000,0.000,0
2026-01-31 13:39:14,7629774,3515.000,7963.000,-5753.000,1772.000,-563.000,-100.000,0.000,0.000,0
2026-01-31 13:39:14,7629816,5486.000,7127.000,-4528.000,-244.000,-1896.000,98.000,0.000,0.000,0
2026-01-31 13:39:14,7629854,4825.000,4580.000,-3969.000,-1580.000,-1388.000,169.000,0.000,0.000,0
2026-01-31 13:39:14,7629894,2732.000,3250.000,-3026.000,-1396.000,-595.000,-140.000,0.000,0.000,0
2026-01-31 13:39:14,7629934,1320.000,3451.000,-2581.000,-474.000,-43.000,-359.000,0.000,0.000,0
2026-01-31 13:39:14,7629974,652.000,3067.000,-2159.000,-373.000,206.000,-561.000,0.000,0.000,0
2026-01-31 13:39:14,7630014,396.000,3633.000,-2340.000,266.000,429.000,-374.000,0.000,0.000,0
2026-01-31 13:39:14,7630054,737.000,4937.000,-2824.000,650.000,286.000,-105.000,0.000,0.000,0
2026-01-31 13:39:14,7630094,1100.000,6092.000,-3496.000,792.000,-15.000,215.000,0.000,0.000,0
2026-01-31 13:39:14,7630134,1320.000,7642.000,-4213.000,1582.000,-378.000,372.000,0.000,0.000,0
2026-01-31 13:39:14,7630174,1751.000,8558.000,-5392.000,2172.000,-778.000,-105.000,0.000,0.000,0
2026-01-31 13:39:14,7630214,1972.000,8340.000,-5573.000,1063.000,-936.000,-1026.000,0.000,0.000,0
2026-01-31 13:39:14,7630254,1697.000,9221.000,-7206.000,1172.000,-602.000,-1429.000,0.000,0.000,0
2026-01-31 13:39:14,7630294,3359.000,6726.000,-6901.000,-320.000,-386.000,-1620.000,0.000,0.000,0
2026-01-31 13:39:14,7630334,3602.000,6105.000,-7866.000,-1591.000,358.000,-1332.000,0.000,0.000,0
2026-01-31 13:39:14,7630374,3503.000,5140.000,-7721.000,-1497.000,946.000,-556.000,0.000,0.000,0
2026-01-31 13:39:15,7630414,3183.000,4716.000,-5901.000,-373.000,1131.000,-103.000,0.000,0.000,0
2026-01-31 13:39:15,7630454,2475.000,4206.000,-3240.000,-1024.000,769.000,185.000,0.000,0.000,0
2026-01-31 13:39:15,7630494,1569.000,3667.000,-2304.000,-2866.000,707.000,421.000,0.000,0.000,0
2026-01-31 13:39:15,7630534,687.000,3240.000,-2707.000,-4057.000,996.000,554.000,0.000,0.000,0
2026-01-31 13:39:15,7630574,315.000,3301.000,-3457.000,-2981.000,1257.000,524.000,0.000,0.000,0
2026-01-31 13:39:15,7630614,219.000,5331.000,-4603.000,-1165.000,1499.000,453.000,0.000,0.000,0
2026-01-31 13:39:15,7630654,718.000,6784.000,-5588.000,1096.000,1700.000,363.000,0.000,0.000,0
2026-01-31 13:39:15,7630694,1229.000,7918.000,-6499.000,1825.000,1540.000,-29.000,0.000,0.000,0
2026-01-31 13:39:15,7630734,1666.000,8355.000,-5813.000,1560.000,965.000,-104.000,0.000,0.000,0
2026-01-31 13:39:15,7630774,2067.000,8858.000,-6565.000,1783.000,797.000,171.000,0.000,0.000,0
2026-01-31 13:39:15,7630814,2741.000,8918.000,-6387.000,2728.000,121.000,465.000,0.000,0.000,0
2026-01-31 13:39:15,7630854,4371.000,7431.000,-4569.000,1669.000,-1202.000,425.000,0.000,0.000,0
2026-01-31 13:39:15,7630894,5939.000,5906.000,-4285.000,330.000,-1377.000,94.000,0.000,0.000,0
2026-01-31 13:39:15,7630934,5448.000,4491.000,-3721.000,-627.000,-634.000,-370.000,0.000,0.000,0
2026-01-31 13:39:15,7630974,3243.000,3586.000,-2802.000,-229.000,380.000,-669.000,0.000,0.000,0
2026-01-31 13:39:15,7631014,811.000,3731.000,-1980.000,409.000,781.000,-669.000,0.000,0.000,0
2026-01-31 13:39:15,7631054,271.000,3537.000,-1883.000,-78.000,768.000,-636.000,0.000,0.000,0
2026-01-31 13:39:15,7631094,364.000,4185.000,-2016.000,-29.000,586.000,-424.000,0.000,0.000,0
2026-01-31 13:39:15,7631134,909.000,5193.000,-2726.000,113.000,160.000,-69.000,0.000,0.000,0
2026-01-31 13:39:15,7631174,1186.000,6963.000,-3912.000,662.000,-189.000,176.000,0.000,0.000,0
2026-01-31 13:39:15,7631214,1303.000,7860.000,-4721.000,1128.000,-647.000,-25.000,0.000,0.000,0
2026-01-31 13:39:15,7631254,1747.000,8504.000,-5569.000,1754.000,-1044.000,-476.000,0.000,0.000,0
2026-01-31 13:39:15,7631294,1783.000,8800.000,-6581.000,2204.000,-863.000,-1105.000,0.000,0.000,0
2026-01-31 13:39:15,7631334,2092.000,9299.000,-8156.000,3565.000,-739.000,-1226.000,0.000,0.000,0
2026-01-31 13:39:15,7631374,3072.000,7057.000,-6993.000,1653.000,-874.000,-1150.000,0.000,0.000,0
2026-01-31 13:39:16,7631414,2856.000,5788.000,-7773.000,-1240.000,-47.000,-779.000,0.000,0.000,0
2026-01-31 13:39:16,7631454,2625.000,4681.000,-7192.000,-1287.000,487.000,-232.000,0.000,0.000,0
2026-01-31 13:39:16,7631494,2458.000,3835.000,-5248.000,-694.000,440.000,341.000,0.000,0.000,0
2026-01-31 13:39:16,7631535,1820.000,3241.000,-2920.000,-1268.000,17.000,697.000,0.000,0.000,0
2026-01-31 13:39:16,7631575,1083.000,2948.000,-2392.000,-2520.000,-119.000,922.000,0.000,0.000,0
2026-01-31 13:39:16,7631616,643.000,3033.000,-3163.000,-3023.000,-40.000,1063.000,0.000,0.000,0
2026-01-31 13:39:16,7631654,663.000,3789.000,-4147.000,-1946.000,339.000,1054.000,0.000,0.000,0
2026-01-31 13:39:16,7631694,818.000,4868.000,-5061.000,-751.000,990.000,926.000,0.000,0.000,0
2026-01-31 13:39:16,7631734,1098.000,6352.000,-6464.000,550.000,1658.000,584.000,0.000,0.000,0
2026-01-31 13:39:16,7631774,1480.000,7256.000,-7159.000,1460.000,2022.000,-144.000,0.000,0.000,0
2026-01-31 13:39:16,7631817,1894.000,7642.000,-6784.000,1460.000,2072.000,-1141.000,0.000,0.000,0
2026-01-31 13:39:16,7631855,1624.000,8644.000,-7481.000,2839.000,2336.000,-1576.000,0.000,0.000,0
2026-01-31 13:39:16,7631894,2814.000,8869.000,-5472.000,2482.000,963.000,-1803.000,0.000,0.000,0
2026-01-31 13:39:16,7631934,4371.000,7289.000,-4617.000,-515.000,-1070.000,-941.000,0.000,0.000,0
2026-01-31 13:39:16,7631974,4388.000,6236.000,-5117.000,-1772.000,-1418.000,98.000,0.000,0.000,0
2026-01-31 13:39:16,7632014,2928.000,3507.000,-3816.000,-2080.000,-1245.000,379.000,0.000,0.000,0
2026-01-31 13:39:16,7632054,1389.000,2950.000,-3005.000,-1252.000,-942.000,414.000,0.000,0.000,0
2026-01-31 13:39:16,7632094,555.000,2684.000,-2585.000,-1022.000,-759.000,322.000,0.000,0.000,0
2026-01-31 13:39:16,7632134,188.000,2598.000,-2543.000,-148.000,-641.000,263.000,0.000,0.000,0
2026-01-31 13:39:16,7632174,371.000,4131.000,-3279.000,673.000,-711.000,492.000,0.000,0.000,0
2026-01-31 13:39:16,7632214,906.000,5443.000,-4091.000,1715.000,-994.000,814.000,0.000,0.000,0
2026-01-31 13:39:16,7632254,992.000,7537.000,-5282.000,2587.000,-1467.000,1255.000,0.000,0.000,0
2026-01-31 13:39:16,7632294,1331.000,8878.000,-5458.000,2455.000,-2365.000,1445.000,0.000,0.000,0
2026-01-31 13:39:16,7632334,1974.000,9356.000,-6606.000,1069.000,-2507.000,1002.000,0.000,0.000,0
2026-01-31 13:39:16,7632374,2310.000,9775.000,-8744.000,1781.000,-1924.000,32.000,0.000,0.000,0
2026-01-31 13:39:17,7632414,3062.000,7588.000,-7520.000,410.000,-1544.000,-685.000,0.000,0.000,0
2026-01-31 13:39:17,7632454,2794.000,6004.000,-7590.000,-2170.000,-505.000,-1378.000,0.000,0.000,0
2026-01-31 13:39:17,7632494,2517.000,4898.000,-7764.000,-2466.000,220.000,-1147.000,0.000,0.000,0
2026-01-31 13:39:17,7632534,1678.000,4546.000,-6495.000,-1570.000,545.000,-443.000,0.000,0.000,0
2026-01-31 13:39:17,7632574,485.000,4804.000,-4710.000,-1339.000,373.000,-175.000,0.000,0.000,0
2026-01-31 13:39:17,7632614,-1127.000,4570.000,-3275.000,-3313.000,-1776.000,-855.000,0.000,0.000,0
2026-01-31 13:39:17,7632654,-1509.000,4840.000,-3798.000,-4605.000,-2484.000,-1589.000,0.000,0.000,0
2026-01-31 13:39:17,7632694,-1176.000,5115.000,-4446.000,-5494.000,-2778.000,-2466.000,0.000,0.000,0
2026-01-31 13:39:17,7632734,-909.000,4788.000,-4904.000,-4611.000,-2541.000,-3171.000,0.000,0.000,0
2026-01-31 13:39:17,7632774,-465.000,5725.000,-5802.000,-2161.000,-2119.000,-3247.000,0.000,0.000,0
2026-01-31 13:39:17,7632814,70.000,6424.000,-5831.000,-361.000,-1643.000,-2845.000,0.000,0.000,0
2026-01-31 13:39:17,7632854,417.000,7058.000,-4860.000,685.000,-1234.000,-2454.000,0.000,0.000,0
2026-01-31 13:39:17,7632894,260.000,7532.000,-5343.000,12.000,-491.000,-1707.000,0.000,0.000,0
2026-01-31 13:39:17,7632934,153.000,8124.000,-5532.000,908.000,82.000,-489.000,0.000,0.000,0
2026-01-31 13:39:17,7632974,1260.000,8280.000,-4704.000,2014.000,-834.000,415.000,0.000,0.000,0
2026-01-31 13:39:17,7633014,1008.000,8566.000,-4821.000,1296.000,-628.000,736.000,0.000,0.000,0
2026-01-31 13:39:17,7633054,-244.000,6586.000,-3676.000,61.000,-494.000,385.000,0.000,0.000,0
2026-01-31 13:39:17,7633094,-1287.000,4994.000,-2691.000,-179.000,-460.000,-240.000,0.000,0.000,0
2026-01-31 13:39:17,7633134,-1794.000,4642.000,-1990.000,-402.000,-627.000,-784.000,0.000,0.000,0
2026-01-31 13:39:17,7633174,-2152.000,4501.000,-1778.000,-790.000,-784.000,-1204.000,0.000,0.000,0
2026-01-31 13:39:17,7633214,-2075.000,5254.000,-1842.000,-376.000,-1041.000,-1397.000,0.000,0.000,0
2026-01-31 13:39:17,7633254,-2048.000,5558.000,-1603.000,-331.000,-1325.000,-1536.000,0.000,0.000,0
2026-01-31 13:39:17,7633294,-2316.000,5838.000,-2622.000,-43.000,-1344.000,-1327.000,0.000,0.000,0
2026-01-31 13:39:17,7633334,-2191.000,7526.000,-4023.000,899.000,-1201.000,-896.000,0.000,0.000,0
2026-01-31 13:39:17,7633374,-2347.000,7851.000,-4569.000,1370.000,-713.000,-684.000,0.000,0.000,0
2026-01-31 13:39:18,7633414,-2670.000,9395.000,-6391.000,1837.000,24.000,130.000,0.000,0.000,0
2026-01-31 13:39:18,7633454,-2570.000,8590.000,-6956.000,1424.000,167.000,1049.000,0.000,0.000,0
2026-01-31 13:39:18,7633496,-2398.000,7342.000,-5692.000,1393.000,-63.000,1380.000,0.000,0.000,0
2026-01-31 13:39:18,7633535,-2127.000,6581.000,-5919.000,247.000,148.000,1463.000,0.000,0.000,0
2026-01-31 13:39:18,7633574,-2197.000,5706.000,-5933.000,-748.000,417.000,1572.000,0.000,0.000,0
2026-01-31 13:39:18,7633614,-1751.000,4729.000,-4413.000,-814.000,300.000,1522.000,0.000,0.000,0
2026-01-31 13:39:18,7633654,-1517.000,4152.000,-3201.000,-480.000,13.000,1247.000,0.000,0.000,0
2026-01-31 13:39:18,7633694,-1622.000,4666.000,-3128.000,-584.000,-331.000,1033.000,0.000,0.000,0
2026-01-31 13:39:18,7633734,-1909.000,4686.000,-3273.000,-1060.000,-406.000,745.000,0.000,0.000,0
2026-01-31 13:39:18,7633774,-2245.000,5157.000,-3865.000,-1573.000,-98.000,260.000,0.000,0.000,0
2026-01-31 13:39:18,7633815,-2456.000,6122.000,-4434.000,-1066.000,60.000,139.000,0.000,0.000,0
2026-01-31 13:39:18,7633854,-1910.000,7031.000,-4787.000,-524.000,205.000,200.000,0.000,0.000,0
2026-01-31 13:39:18,7633894,-1833.000,7608.000,-4665.000,-461.000,305.000,357.000,0.000,0.000,0
2026-01-31 13:39:18,7633934,-1952.000,8256.000,-5537.000,-781.000,594.000,542.000,0.000,0.000,0
2026-01-31 13:39:18,7633974,-1052.000,8931.000,-6218.000,303.000,326.000,722.000,0.000,0.000,0
2026-01-31 13:39:18,7634014,311.000,8322.000,-4746.000,1221.000,-793.000,448.000,0.000,0.000,0
2026-01-31 13:39:18,7634054,1241.000,7595.000,-4748.000,621.000,-705.000,869.000,0.000,0.000,0
2026-01-31 13:39:18,7634094,1115.000,6348.000,-4363.000,1628.000,11.000,1673.000,0.000,0.000,0
2026-01-31 13:39:18,7634134,255.000,3547.000,-2608.000,3797.000,224.000,2560.000,0.000,0.000,0
2026-01-31 13:39:18,7634174,-134.000,4000.000,-2505.000,3898.000,506.000,2897.000,0.000,0.000,0
2026-01-31 13:39:18,7634214,-659.000,3882.000,-2727.000,2666.000,675.000,2817.000,0.000,0.000,0
2026-01-31 13:39:18,7634254,-1150.000,4606.000,-3477.000,2589.000,745.000,2575.000,0.000,0.000,0
2026-01-31 13:39:18,7634294,-1463.000,5635.000,-3653.000,3124.000,474.000,1970.000,0.000,0.000,0
2026-01-31 13:39:18,7634334,-1507.000,6745.000,-4216.000,2810.000,87.000,1298.000,0.000,0.000,0
2026-01-31 13:39:18,7634374,-1404.000,8637.000,-6143.000,3172.000,-469.000,745.000,0.000,0.000,0
2026-01-31 13:39:19,7634414,-441.000,9135.000,-6769.000,2764.000,-1518.000,584.000,0.000,0.000,0
2026-01-31 13:39:19,7634454,20.000,9432.000,-7835.000,1359.000,-1512.000,89.000,0.000,0.000,0
2026-01-31 13:39:19,7634494,647.000,7442.000,-7692.000,1940.000,-1182.000,-248.000,0.000,0.000,0
2026-01-31 13:39:19,7634534,488.000,5670.000,-6592.000,-1806.000,-819.000,-248.000,0.000,0.000,0
2026-01-31 13:39:19,7634574,486.000,4820.000,-7594.000,-3582.000,213.000,-266.000,0.000,0.000,0
2026-01-31 13:39:19,7634614,592.000,3817.000,-7556.000,-2980.000,1279.000,39.000,0.000,0.000,0
2026-01-31 13:39:19,7634654,688.000,3087.000,-5716.000,-1225.000,1666.000,329.000,0.000,0.000,0
2026-01-31 13:39:19,7634694,712.000,3486.000,-4455.000,-129.000,1455.000,590.000,0.000,0.000,0
2026-01-31 13:39:19,7634734,510.000,3756.000,-3654.000,-903.000,928.000,560.000,0.000,0.000,0
2026-01-31 13:39:19,7634774,-137.000,3434.000,-3218.000,-2069.000,815.000,348.000,0.000,0.000,0
2026-01-31 13:39:19,7634814,-637.000,3972.000,-4356.000,-1875.000,1148.000,39.000,0.000,0.000,0
2026-01-31 13:39:19,7634854,-846.000,4670.000,-5103.000,-1028.000,1195.000,-137.000,0.000,0.000,0
2026-01-31 13:39:19,7634894,-957.000,5771.000,-5808.000,-449.000,1222.000,-157.000,0.000,0.000,0
2026-01-31 13:39:19,7634934,-254.000,7115.000,-7707.000,674.000,1445.000,-32.000,0.000,0.000,0
2026-01-31 13:39:19,7634974,564.000,7281.000,-7489.000,676.000,1075.000,170.000,0.000,0.000,0
2026-01-31 13:39:19,7635014,1519.000,7953.000,-7833.000,2345.000,615.000,631.000,0.000,0.000,0
2026-01-31 13:39:19,7635054,1874.000,7578.000,-6789.000,1341.000,-955.000,1107.000,0.000,0.000,0
2026-01-31 13:39:19,7635094,3003.000,7172.000,-6246.000,-999.000,-1937.000,1092.000,0.000,0.000,0
2026-01-31 13:39:19,7635134,3108.000,5856.000,-5739.000,-1529.000,-1382.000,824.000,0.000,0.000,0
2026-01-31 13:39:19,7635174,1777.000,4335.000,-3733.000,-120.000,-694.000,488.000,0.000,0.000,0
2026-01-31 13:39:19,7635214,639.000,3906.000,-2450.000,147.000,-118.000,88.000,0.000,0.000,0
2026-01-31 13:39:19,7635254,116.000,3245.000,-2324.000,-549.000,324.000,-381.000,0.000,0.000,0
2026-01-31 13:39:19,7635294,-101.000,3316.000,-2961.000,72.000,776.000,-865.000,0.000,0.000,0
2026-01-31 13:39:19,7635334,124.000,4574.000,-3651.000,726.000,827.000,-1236.000,0.000,0.000,0
2026-01-31 13:39:19,7635374,89.000,5654.000,-4122.000,1089.000,721.000,-1298.000,0.000,0.000,0
2026-01-31 13:39:20,7635414,-258.000,7271.000,-4986.000,1644.000,367.000,-1045.000,0.000,0.000,0
2026-01-31 13:39:20,7635454,-238.000,8269.000,-6029.000,1913.000,-375.000,-570.000,0.000,0.000,0
2026-01-31 13:39:20,7635494,-303.000,9079.000,-7023.000,1812.000,-777.000,-252.000,0.000,0.000,0
2026-01-31 13:39:20,7635534,-342.000,9856.000,-8627.000,1621.000,-789.000,-529.000,0.000,0.000,0
2026-01-31 13:39:20,7635574,1067.000,7618.000,-7717.000,1142.000,-1105.000,-409.000,0.000,0.000,0
2026-01-31 13:39:20,7635614,1417.000,5826.000,-8006.000,-2110.000,-432.000,-961.000,0.000,0.000,0
2026-01-31 13:39:20,7635654,1286.000,4245.000,-7602.000,-2689.000,748.000,-581.000,0.000,0.000,0
2026-01-31 13:39:20,7635694,1077.000,3534.000,-5583.000,-1095.000,883.000,-25.000,0.000,0.000,0
2026-01-31 13:39:20,7635734,800.000,3424.000,-3723.000,-680.000,469.000,554.000,0.000,0.000,0
2026-01-31 13:39:20,7635774,479.000,3119.000,-2763.000,-1532.000,-3.000,887.000,0.000,0.000,0
2026-01-31 13:39:20,7635817,48.000,3050.000,-2698.000,-2662.000,-28.000,953.000,0.000,0.000,0
2026-01-31 13:39:20,7635854,-694.000,3399.000,-3715.000,-2792.000,463.000,816.000,0.000,0.000,0
2026-01-31 13:39:20,7635894,-853.000,4327.000,-4680.000,-1732.000,828.000,635.000,0.000,0.000,0
2026-01-31 13:39:20,7635934,-715.000,5845.000,-5665.000,-156.000,1176.000,745.000,0.000,0.000,0
2026-01-31 13:39:20,7635974,-14.000,7211.000,-7229.000,1116.000,1362.000,753.000,0.000,0.000,0
2026-01-31 13:39:20,7636014,555.000,7672.000,-6983.000,1744.000,941.000,618.000,0.000,0.000,0
2026-01-31 13:39:20,7636054,1322.000,8597.000,-7631.000,2059.000,822.000,639.000,0.000,0.000,0
2026-01-31 13:39:20,7636094,2466.000,8315.000,-6519.000,1373.000,-788.000,611.000,0.000,0.000,0
2026-01-31 13:39:20,7636134,4116.000,7121.000,-6342.000,-155.000,-1691.000,110.000,0.000,0.000,0
2026-01-31 13:39:20,7636174,4245.000,6114.000,-6226.000,-644.000,-1079.000,-368.000,0.000,0.000,0
2026-01-31 13:39:20,7636214,2541.000,4249.000,-3895.000,61.000,-392.000,-695.000,0.000,0.000,0
2026-01-31 13:39:20,7636254,1142.000,4018.000,-2815.000,447.000,124.000,-691.000,0.000,0.000,0
2026-01-31 13:39:20,7636294,303.000,3559.000,-2152.000,-376.000,305.000,-723.000,0.000,0.000,0
2026-01-31 13:39:20,7636334,-99.000,3131.000,-2146.000,-987.000,501.000,-791.000,0.000,0.000,0
2026-01-31 13:39:20,7636374,-362.000,3913.000,-2804.000,-402.000,576.000,-746.000,0.000,0.000,0
2026-01-31 13:39:21,7636414,-442.000,4903.000,-3227.000,-36.000,306.000,-817.000,0.000,0.000,0
2026-01-31 13:39:21,7636454,-691.000,6804.000,-4929.000,529.000,-163.000,-802.000,0.000,0.000,0
2026-01-31 13:39:21,7636494,-177.000,7366.000,-6144.000,1517.000,-563.000,-659.000,0.000,0.000,0
2026-01-31 13:39:21,7636534,-64.000,7953.000,-6821.000,2324.000,-724.000,-672.000,0.000,0.000,0
2026-01-31 13:39:21,7636574,-165.000,8764.000,-7952.000,2487.000,-760.000,-526.000,0.000,0.000,0
2026-01-31 13:39:21,7636614,1212.000,8371.000,-8208.000,2258.000,-821.000,-271.000,0.000,0.000,0
2026-01-31 13:39:21,7636654,2102.000,6785.000,-7376.000,-239.000,-590.000,-282.000,0.000,0.000,0
2026-01-31 13:39:21,7636694,2364.000,5788.000,-7739.000,-1861.000,108.000,-174.000,0.000,0.000,0
2026-01-31 13:39:21,7636734,2029.000,4519.000,-7130.000,-1315.000,1047.000,58.000,0.000,0.000,0
2026-01-31 13:39:21,7636774,1541.000,4185.000,-5387.000,-45.000,1417.000,252.000,0.000,0.000,0
2026-01-31 13:39:21,7636814,638.000,3726.000,-2723.000,-699.000,1236.000,430.000,0.000,0.000,0
2026-01-31 13:39:21,7636854,-83.000,3628.000,-2831.000,-1832.000,1220.000,258.000,0.000,0.000,0
2026-01-31 13:39:21,7636894,-641.000,3475.000,-3528.000,-2282.000,1290.000,29.000,0.000,0.000,0
2026-01-31 13:39:21,7636934,-715.000,4081.000,-4397.000,-1439.000,1423.000,-156.000,0.000,0.000,0
2026-01-31 13:39:21,7636974,-807.000,4917.000,-5101.000,-544.000,1475.000,-229.000,0.000,0.000,0
2026-01-31 13:39:21,7637014,-348.000,6322.000,-6370.000,-87.000,1451.000,-248.000,0.000,0.000,0
2026-01-31 13:39:21,7637054,336.000,6959.000,-6826.000,-206.000,1291.000,-508.000,0.000,0.000,0
2026-01-31 13:39:21,7637094,658.000,7492.000,-6611.000,-60.000,1117.000,-872.000,0.000,0.000,0
2026-01-31 13:39:21,7637134,879.000,8552.000,-7736.000,494.000,1281.000,-720.000,0.000,0.000,0
2026-01-31 13:39:21,7637174,1686.000,8590.000,-7130.000,1260.000,424.000,-403.000,0.000,0.000,0
2026-01-31 13:39:21,7637214,4173.000,7865.000,-6514.000,-41.000,-1194.000,-46.000,0.000,0.000,0
2026-01-31 13:39:21,7637254,3940.000,5846.000,-5402.000,-143.000,-873.000,-146.000,0.000,0.000,0
2026-01-31 13:39:21,7637294,1964.000,4365.000,-3324.000,301.000,-325.000,-262.000,0.000,0.000,0
2026-01-31 13:39:21,7637334,665.000,3863.000,-2710.000,159.000,120.000,-383.000,0.000,0.000,0
2026-01-31 13:39:21,7637374,-120.000,3205.000,-2370.000,-362.000,331.000,-470.000,0.000,0.000,0
2026-01-31 13:39:22,7637414,-534.000,3208.000,-2489.000,58.000,366.000,-396.000,0.000,0.000,0
2026-01-31 13:39:22,7637454,-754.000,4026.000,-2838.000,704.000,222.000,-206.000,0.000,0.000,0
2026-01-31 13:39:22,7637494,-557.000,5096.000,-3435.000,733.000,-104.000,-40.000,0.000,0.000,0
2026-01-31 13:39:22,7637536,-607.000,6095.000,-4303.000,1030.000,-535.000,288.000,0.000,0.000,0
2026-01-31 13:39:22,7637583,-68.000,7617.000,-6396.000,1939.000,-1082.000,544.000,0.000,0.000,0
2026-01-31 13:39:22,7637614,715.000,8626.000,-6190.000,1439.000,-1497.000,-262.000,0.000,0.000,0
2026-01-31 13:39:22,7637654,116.000,9260.000,-7537.000,1156.000,-959.000,-1225.000,0.000,0.000,0
2026-01-31 13:39:22,7637694,1226.000,7833.000,-7344.000,1047.000,-1121.000,-1113.000,0.000,0.000,0
2026-01-31 13:39:22,7637734,1983.000,6306.000,-8159.000,-1371.000,-397.000,-1211.000,0.000,0.000,0
2026-01-31 13:39:22,7637774,2325.000,5538.000,-8604.000,-1738.000,451.000,-864.000,0.000,0.000,0
2026-01-31 13:39:22,7637816,2136.000,4679.000,-7404.000,-719.000,969.000,-104.000,0.000,0.000,0
2026-01-31 13:39:22,7637854,1990.000,4607.000,-5192.000,-261.000,802.000,458.000,0.000,0.000,0
2026-01-31 13:39:22,7637894,1211.000,4034.000,-3128.000,-1343.000,589.000,793.000,0.000,0.000,0
2026-01-31 13:39:22,7637934,192.000,3485.000,-2457.000,-2835.000,707.000,748.000,0.000,0.000,0
2026-01-31 13:39:22,7637974,-726.000,3529.000,-3181.000,-2936.000,1029.000,357.000,0.000,0.000,0
2026-01-31 13:39:22,7638014,-1002.000,4039.000,-3809.000,-1173.000,1259.000,71.000,0.000,0.000,0
2026-01-31 13:39:22,7638054,-938.000,5606.000,-5134.000,-234.000,1397.000,59.000,0.000,0.000,0
2026-01-31 13:39:22,7638094,-289.000,6865.000,-6293.000,194.000,1396.000,163.000,0.000,0.000,0
2026-01-31 13:39:22,7638134,-13.000,7706.000,-6786.000,690.000,1008.000,-30.000,0.000,0.000,0
2026-01-31 13:39:22,7638174,381.000,8536.000,-6927.000,595.000,507.000,-227.000,0.000,0.000,0
2026-01-31 13:39:22,7638214,1166.000,9063.000,-6987.000,-71.000,270.000,-492.000,0.000,0.000,0
2026-01-31 13:39:22,7638254,2097.000,8405.000,-5750.000,-914.000,-655.000,-728.000,0.000,0.000,0
2026-01-31 13:39:22,7638294,3939.000,7478.000,-5123.000,-2050.000,-1676.000,-839.000,0.000,0.000,0
2026-01-31 13:39:22,7638334,3831.000,6058.000,-5482.000,-1848.000,-861.000,-662.000,0.000,0.000,0
2026-01-31 13:39:22,7638374,1995.000,3943.000,-3944.000,-1088.000,-395.000,-512.000,0.000,0.000,0
2026-01-31 13:39:23,7638414,-27.000,4140.000,-2847.000,2294.000,670.000,280.000,0.000,0.000,0
2026-01-31 13:39:23,7638454,-727.000,3698.000,-2218.000,1425.000,664.000,388.000,0.000,0.000,0
2026-01-31 13:39:23,7638494,-929.000,3978.000,-2600.000,1267.000,520.000,375.000,0.000,0.000,0
2026-01-31 13:39:23,7638534,-875.000,4988.000,-3238.000,976.000,125.000,286.000,0.000,0.000,0
2026-01-31 13:39:23,7638574,-526.000,5793.000,-3515.000,727.000,-406.000,99.000,0.000,0.000,0
2026-01-31 13:39:23,7638614,-387.000,6923.000,-4603.000,997.000,-792.000,38.000,0.000,0.000,0
2026-01-31 13:39:23,7638654,249.000,7816.000,-5638.000,1419.000,-1141.000,145.000,0.000,0.000,0
2026-01-31 13:39:23,7638694,1082.000,7959.000,-6346.000,1708.000,-1148.000,-18.000,0.000,0.000,0
2026-01-31 13:39:23,7638734,894.000,8392.000,-7316.000,1773.000,-870.000,-160.000,0.000,0.000,0
2026-01-31 13:39:23,7638774,364.000,7921.000,-6932.000,2899.000,-702.000,73.000,0.000,0.000,0
2026-01-31 13:39:23,7638814,551.000,6630.000,-6552.000,1151.000,-452.000,86.000,0.000,0.000,0
2026-01-31 13:39:23,7638854,1107.000,5930.000,-7931.000,-1056.000,118.000,106.000,0.000,0.000,0
2026-01-31 13:39:23,7638894,1527.000,4483.000,-7587.000,-858.000,737.000,163.000,0.000,0.000,0
2026-01-31 13:39:23,7638934,1550.000,4423.000,-5486.000,263.000,823.000,114.000,0.000,0.000,0
2026-01-31 13:39:23,7638974,1008.000,4510.000,-3976.000,-362.000,466.000,-132.000,0.000,0.000,0
2026-01-31 13:39:23,7639014,-138.000,4015.000,-3252.000,-2006.000,13.000,-407.000,0.000,0.000,0
2026-01-31 13:39:23,7639054,-1031.000,3928.000,-3101.000,-3082.000,-347.000,-730.000,0.000,0.000,0
2026-01-31 13:39:23,7639094,-1557.000,4204.000,-4134.000,-2820.000,-356.000,-1011.000,0.000,0.000,0
2026-01-31 13:39:23,7639134,-1411.000,5020.000,-5722.000,-2357.000,-756.000,-1459.000,0.000,0.000,0
2026-01-31 13:39:23,7639174,-481.000,6564.000,-6385.000,-1316.000,-425.000,-1345.000,0.000,0.000,0
2026-01-31 13:39:23,7639214,458.000,6830.000,-6100.000,-610.000,-90.000,-1284.000,0.000,0.000,0
