datetime_local,uptime_ms,acc_x,acc_y,acc_z,gyro_x,gyro_y,gyro_z,speed_mps,turn_rate_deg_s,gps_valid
2026-01-31 11:56:02,1437734,-884.000,-2216.000,7573.000,426.000,57.000,-303.000,0.000,0.000,0
2026-01-31 11:56:02,1437774,-920.000,-2216.000,7823.000,1049.000,-55.000,-710.000,0.000,0.000,0
2026-01-31 11:56:02,1437817,-636.000,-1505.000,7335.000,458.000,52.000,-810.000,0.000,0.000,0
2026-01-31 11:56:02,1437856,-887.000,-2016.000,7858.000,-723.000,68.000,-439.000,0.000,0.000,0
2026-01-31 11:56:02,1437894,-601.000,-1896.000,7940.000,-267.000,-369.000,-365.000,0.000,0.000,0
2026-01-31 11:56:02,1437934,-660.000,-1812.000,7857.000,143.000,-227.000,-507.000,0.000,0.000,0
2026-01-31 11:56:02,1437974,-653.000,-1977.000,8389.000,409.000,-545.000,-648.000,0.000,0.000,0
2026-01-31 11:56:02,1438014,-657.000,-1802.000,8267.000,-87.000,-488.000,-421.000,0.000,0.000,0
2026-01-31 11:56:02,1438054,-868.000,-1959.000,8467.000,-387.000,-419.000,-194.000,0.000,0.000,0
2026-01-31 11:56:02,1438094,-232.000,-1934.000,8490.000,655.000,-687.000,-470.000,0.000,0.000,0
2026-01-31 11:56:02,1438134,-3778.000,2523.000,8752.000,-819.000,-116.000,-1487.000,0.000,0.000,0
2026-01-31 11:56:02,1438174,-1504.000,-825.000,8334.000,-2444.000,-2750.000,-1529.000,0.000,0.000,0
2026-01-31 11:56:02,1438214,1485.000,-915.000,8864.000,-2772.000,-4273.000,-2872.000,0.000,0.000,0
2026-01-31 11:56:02,1438254,2452.000,-471.000,8114.000,-4579.000,-3773.000,-3273.000,0.000,0.000,0
2026-01-31 11:56:02,1438294,3634.000,-3974.000,8624.000,-5187.000,-3016.000,-2947.000,0.000,0.000,0
2026-01-31 11:56:02,1438334,3661.000,-2916.000,8277.000,-1795.000,-1473.000,-1953.000,0.000,0.000,0
2026-01-31 11:56:02,1438374,3393.000,-3739.000,8028.000,-1799.000,-117.000,-663.000,0.000,0.000,0
2026-01-31 11:56:03,1438414,2710.000,-3083.000,7291.000,-1286.000,295.000,-325.000,0.000,0.000,0
2026-01-31 11:56:03,1438454,2667.000,-3806.000,6617.000,-2001.000,299.000,-255.000,0.000,0.000,0
2026-01-31 11:56:03,1438494,2252.000,-3371.000,6506.000,-1717.000,282.000,-157.000,0.000,0.000,0
2026-01-31 11:56:03,1438534,2533.000,-4121.000,6235.000,-2076.000,28.000,-30.000,0.000,0.000,0
2026-01-31 11:56:03,1438574,2194.000,-4066.000,5918.000,-1163.000,202.000,-115.000,0.000,0.000,0
2026-01-31 11:56:03,1438614,1961.000,-4361.000,6023.000,-1115.000,-31.000,-70.000,0.000,0.000,0
2026-01-31 11:56:03,1438654,2640.000,-5030.000,6525.000,-644.000,-138.000,-323.000,0.000,0.000,0
2026-01-31 11:56:03,1438694,2223.000,-4673.000,6927.000,-508.000,46.000,-61.000,0.000,0.000,0
2026-01-31 11:56:03,1438734,2812.000,-4324.000,7576.000,-535.000,12.000,24.000,0.000,0.000,0
2026-01-31 11:56:03,1438774,2233.000,-5238.000,7428.000,-1283.000,733.000,22.000,0.000,0.000,0
2026-01-31 11:56:03,1438814,2078.000,-4597.000,7857.000,50.000,773.000,21.000,0.000,0.000,0
2026-01-31 11:56:03,1438854,1813.000,-3676.000,8639.000,174.000,464.000,-152.000,0.000,0.000,0
2026-01-31 11:56:03,1438894,1704.000,-4549.000,8170.000,-195.000,262.000,-1205.000,0.000,0.000,0
2026-01-31 11:56:03,1438934,1489.000,-3582.000,7554.000,-22.000,235.000,-2056.000,0.000,0.000,0
2026-01-31 11:56:03,1438974,1770.000,-3529.000,7804.000,-611.000,183.000,-1667.000,0.000,0.000,0
2026-01-31 11:56:03,1439014,2008.000,-3530.000,7323.000,-349.000,229.000,-791.000,0.000,0.000,0
2026-01-31 11:56:03,1439054,2175.000,-3877.000,7013.000,-167.000,367.000,-211.000,0.000,0.000,0
2026-01-31 11:56:03,1439094,2128.000,-3986.000,6340.000,273.000,584.000,-333.000,0.000,0.000,0
2026-01-31 11:56:03,1439134,1453.000,-4456.000,6064.000,577.000,400.000,-191.000,0.000,0.000,0
2026-01-31 11:56:03,1439174,1362.000,-3775.000,6049.000,453.000,65.000,173.000,0.000,0.000,0
2026-01-31 11:56:03,1439214,1357.000,-4101.000,6419.000,-1004.000,25.000,584.000,0.000,0.000,0
2026-01-31 11:56:03,1439254,1226.000,-4471.000,6583.000,-973.000,-48.000,447.000,0.000,0.000,0
2026-01-31 11:56:03,1439294,1498.000,-4552.000,7155.000,-181.000,-239.000,280.000,0.000,0.000,0
2026-01-31 11:56:03,1439334,1771.000,-3554.000,7581.000,-317.000,-179.000,52.000,0.000,0.000,0
2026-01-31 11:56:03,1439374,1538.000,-5558.000,7265.000,-1732.000,40.000,-559.000,0.000,0.000,0
2026-01-31 11:56:04,1439414,2107.000,-3949.000,7699.000,-650.000,-36.000,-472.000,0.000,0.000,0
2026-01-31 11:56:04,1439455,2283.000,-5194.000,8154.000,-1277.000,171.000,-273.000,0.000,0.000,0
2026-01-31 11:56:04,1439494,2812.000,-4628.000,7893.000,-1135.000,210.000,-1121.000,0.000,0.000,0
2026-01-31 11:56:04,1439534,4321.000,-4444.000,7740.000,-928.000,340.000,-974.000,0.000,0.000,0
2026-01-31 11:56:04,1439574,3881.000,-3485.000,6821.000,-157.000,1137.000,205.000,0.000,0.000,0
2026-01-31 11:56:04,1439614,3094.000,-4724.000,6239.000,376.000,1438.000,1090.000,0.000,0.000,0
2026-01-31 11:56:04,1439654,2886.000,-4323.000,5875.000,1355.000,982.000,1190.000,0.000,0.000,0
2026-01-31 11:56:04,1439694,2743.000,-3710.000,5716.000,1359.000,469.000,1213.000,0.000,0.000,0
2026-01-31 11:56:04,1439735,2214.000,-3716.000,5383.000,220.000,135.000,1454.000,0.000,0.000,0
2026-01-31 11:56:04,1439774,2154.000,-4531.000,5365.000,392.000,-250.000,1519.000,0.000,0.000,0
2026-01-31 11:56:04,1439814,2234.000,-3821.000,5985.000,973.000,-592.000,1403.000,0.000,0.000,0
2026-01-31 11:56:04,1439854,2923.000,-4453.000,6442.000,400.000,-538.000,1258.000,0.000,0.000,0
2026-01-31 11:56:04,1439894,2234.000,-5411.000,6560.000,564.000,-178.000,913.000,0.000,0.000,0
2026-01-31 11:56:04,1439934,2444.000,-4278.000,7343.000,1204.000,-195.000,713.000,0.000,0.000,0
2026-01-31 11:56:04,1439974,2277.000,-5070.000,7919.000,-116.000,-205.000,787.000,0.000,0.000,0
2026-01-31 11:56:04,1440014,2641.000,-5149.000,8199.000,356.000,-203.000,561.000,0.000,0.000,0
2026-01-31 11:56:04,1440054,1926.000,-3928.000,9098.000,537.000,-277.000,336.000,0.000,0.000,0
2026-01-31 11:56:04,1440094,1402.000,-4348.000,8934.000,-48.000,-653.000,-460.000,0.000,0.000,0
2026-01-31 11:56:04,1440134,766.000,-3798.000,7688.000,386.000,-647.000,-987.000,0.000,0.000,0
2026-01-31 11:56:04,1440174,1001.000,-3304.000,7755.000,463.000,-686.000,-572.000,0.000,0.000,0
2026-01-31 11:56:04,1440214,1692.000,-2993.000,7738.000,264.000,-639.000,234.000,0.000,0.000,0
2026-01-31 11:56:04,1440254,1838.000,-3456.000,7311.000,65.000,-465.000,635.000,0.000,0.000,0
2026-01-31 11:56:04,1440294,1307.000,-3288.000,6268.000,802.000,-345.000,212.000,0.000,0.000,0
2026-01-31 11:56:04,1440334,750.000,-3456.000,6277.000,294.000,-477.000,124.000,0.000,0.000,0
2026-01-31 11:56:04,1440374,992.000,-3858.000,6265.000,-43.000,-794.000,149.000,0.000,0.000,0
2026-01-31 11:56:05,1440414,1473.000,-4220.000,6471.000,84.000,-824.000,285.000,0.000,0.000,0
2026-01-31 11:56:05,1440454,1679.000,-4257.000,6990.000,532.000,-668.000,451.000,0.000,0.000,0
2026-01-31 11:56:05,1440494,1839.000,-4397.000,7179.000,393.000,-451.000,698.000,0.000,0.000,0
2026-01-31 11:56:05,1440534,1507.000,-4415.000,7360.000,185.000,-468.000,627.000,0.000,0.000,0
2026-01-31 11:56:05,1440574,1830.000,-4738.000,7448.000,-118.000,-666.000,344.000,0.000,0.000,0
2026-01-31 11:56:05,1440614,1922.000,-4161.000,7525.000,-338.000,-762.000,178.000,0.000,0.000,0
2026-01-31 11:56:05,1440654,2555.000,-4579.000,7866.000,-806.000,-944.000,298.000,0.000,0.000,0
2026-01-31 11:56:05,1440694,2767.000,-4248.000,8440.000,-168.000,-717.000,-145.000,0.000,0.000,0
2026-01-31 11:56:05,1440734,2717.000,-3773.000,8129.000,-519.000,-736.000,-673.000,0.000,0.000,0
2026-01-31 11:56:05,1440774,3071.000,-4069.000,7603.000,-18.000,-264.000,196.000,0.000,0.000,0
2026-01-31 11:56:05,1440814,2838.000,-3475.000,7406.000,375.000,451.000,1211.000,0.000,0.000,0
2026-01-31 11:56:05,1440854,2879.000,-3577.000,7131.000,-89.000,600.000,1612.000,0.000,0.000,0
2026-01-31 11:56:05,1440894,2679.000,-3969.000,6246.000,100.000,620.000,1591.000,0.000,0.000,0
2026-01-31 11:56:05,1440934,2066.000,-3463.000,5862.000,576.000,434.000,1345.000,0.000,0.000,0
2026-01-31 11:56:05,1440974,1598.000,-3368.000,5631.000,77.000,115.000,1071.000,0.000,0.000,0
2026-01-31 11:56:05,1441014,1754.000,-3925.000,5632.000,100.000,-143.000,898.000,0.000,0.000,0
2026-01-31 11:56:05,1441054,2038.000,-4241.000,6360.000,456.000,-291.000,780.000,0.000,0.000,0
2026-01-31 11:56:05,1441094,2482.000,-4446.000,6530.000,708.000,89.000,474.000,0.000,0.000,0
2026-01-31 11:56:05,1441134,2022.000,-4699.000,6830.000,565.000,218.000,426.000,0.000,0.000,0
2026-01-31 11:56:05,1441174,2354.000,-5064.000,7346.000,381.000,43.000,232.000,0.000,0.000,0
2026-01-31 11:56:05,1441214,2267.000,-5061.000,7698.000,206.000,12.000,77.000,0.000,0.000,0
2026-01-31 11:56:05,1441254,2590.000,-5163.000,7921.000,-45.000,136.000,-140.000,0.000,0.000,0
2026-01-31 11:56:05,1441294,1655.000,-4917.000,8253.000,-221.000,433.000,-401.000,0.000,0.000,0
2026-01-31 11:56:05,1441334,1534.000,-4826.000,8824.000,-267.000,-65.000,-901.000,0.000,0.000,0
2026-01-31 11:56:05,1441374,1193.000,-3799.000,8453.000,-462.000,90.000,-1114.000,0.000,0.000,0
2026-01-31 11:56:06,1441414,587.000,-3768.000,7736.000,-898.000,307.000,-785.000,0.000,0.000,0
2026-01-31 11:56:06,1441454,1677.000,-2973.000,7768.000,-276.000,196.000,-144.000,0.000,0.000,0
2026-01-31 11:56:06,1441494,1671.000,-3276.000,7247.000,-56.000,375.000,-287.000,0.000,0.000,0
2026-01-31 11:56:06,1441534,1173.000,-3146.000,6361.000,342.000,389.000,-806.000,0.000,0.000,0
2026-01-31 11:56:06,1441574,962.000,-3875.000,6077.000,289.000,160.000,-1274.000,0.000,0.000,0
2026-01-31 11:56:06,1441614,898.000,-3836.000,6264.000,486.000,-75.000,-1211.000,0.000,0.000,0
2026-01-31 11:56:06,1441654,1327.000,-3912.000,6387.000,0.000,-162.000,-708.000,0.000,0.000,0
2026-01-31 11:56:06,1441694,1469.000,-4524.000,6875.000,-58.000,-80.000,-340.000,0.000,0.000,0
2026-01-31 11:56:06,1441736,1385.000,-3934.000,7019.000,134.000,89.000,-317.000,0.000,0.000,0
2026-01-31 11:56:06,1441774,1214.000,-4943.000,7175.000,-432.000,265.000,-403.000,0.000,0.000,0
2026-01-31 11:56:06,1441814,1215.000,-4826.000,7267.000,205.000,243.000,-451.000,0.000,0.000,0
2026-01-31 11:56:06,1441854,1624.000,-4286.000,7618.000,-263.000,159.000,-511.000,0.000,0.000,0
2026-01-31 11:56:06,1441894,2117.000,-4874.000,7695.000,-838.000,21.000,-305.000,0.000,0.000,0
2026-01-31 11:56:06,1441934,2605.000,-5148.000,7678.000,35.000,110.000,-185.000,0.000,0.000,0
2026-01-31 11:56:06,1441974,2485.000,-3738.000,8263.000,492.000,10.000,-394.000,0.000,0.000,0
2026-01-31 11:56:06,1442014,2424.000,-2768.000,8023.000,-942.000,-438.000,-946.000,0.000,0.000,0
2026-01-31 11:56:06,1442054,3369.000,-3870.000,7434.000,-1309.000,-685.000,-885.000,0.000,0.000,0
2026-01-31 11:56:06,1442094,3163.000,-3762.000,7499.000,364.000,-91.000,26.000,0.000,0.000,0
2026-01-31 11:56:06,1442134,2778.000,-3069.000,7514.000,523.000,433.000,702.000,0.000,0.000,0
2026-01-31 11:56:06,1442174,2524.000,-3957.000,6838.000,72.000,587.000,730.000,0.000,0.000,0
2026-01-31 11:56:06,1442214,1981.000,-3683.000,6037.000,571.000,355.000,593.000,0.000,0.000,0
2026-01-31 11:56:06,1442254,1948.000,-3933.000,5753.000,11.000,138.000,568.000,0.000,0.000,0
2026-01-31 11:56:06,1442294,2229.000,-4493.000,5841.000,320.000,-58.000,815.000,0.000,0.000,0
2026-01-31 11:56:06,1442334,2513.000,-3695.000,6254.000,602.000,-110.000,1200.000,0.000,0.000,0
2026-01-31 11:56:06,1442374,2251.000,-4295.000,6357.000,-12.000,7.000,1119.000,0.000,0.000,0
2026-01-31 11:56:07,1442414,1812.000,-4833.000,6632.000,332.000,-209.000,740.000,0.000,0.000,0
2026-01-31 11:56:07,1442454,2071.000,-4310.000,7276.000,646.000,-411.000,477.000,0.000,0.000,0
2026-01-31 11:56:07,1442494,2112.000,-3964.000,8088.000,-540.000,-223.000,319.000,0.000,0.000,0
2026-01-31 11:56:07,1442534,2309.000,-5342.000,8139.000,-1171.000,58.000,-86.000,0.000,0.000,0
2026-01-31 11:56:07,1442574,1739.000,-4612.000,8670.000,158.000,364.000,-512.000,0.000,0.000,0
2026-01-31 11:56:07,1442614,954.000,-4050.000,8814.000,-364.000,-92.000,-1302.000,0.000,0.000,0
2026-01-31 11:56:07,1442654,1512.000,-4516.000,7983.000,-392.000,-173.000,-1164.000,0.000,0.000,0
2026-01-31 11:56:07,1442694,1985.000,-3205.000,8082.000,277.000,103.000,-192.000,0.000,0.000,0
2026-01-31 11:56:07,1442734,2029.000,-3493.000,7784.000,-247.000,357.000,174.000,0.000,0.000,0
2026-01-31 11:56:07,1442774,1530.000,-3310.000,6589.000,118.000,297.000,14.000,0.000,0.000,0
2026-01-31 11:56:07,1442814,826.000,-3819.000,6033.000,237.000,-2.000,-736.000,0.000,0.000,0
2026-01-31 11:56:07,1442854,557.000,-3421.000,5929.000,750.000,-339.000,-1151.000,0.000,0.000,0
2026-01-31 11:56:07,1442894,947.000,-3383.000,6315.000,260.000,-519.000,-936.000,0.000,0.000,0
2026-01-31 11:56:07,1442934,1571.000,-4122.000,6634.000,-139.000,-353.000,-594.000,0.000,0.000,0
2026-01-31 11:56:07,1442974,1608.000,-4051.000,6756.000,372.000,-46.000,-359.000,0.000,0.000,0
2026-01-31 11:56:07,1443014,1281.000,-4380.000,7294.000,478.000,90.000,-321.000,0.000,0.000,0
2026-01-31 11:56:07,1443054,1434.000,-4180.000,7572.000,619.000,-35.000,-241.000,0.000,0.000,0
2026-01-31 11:56:07,1443094,1394.000,-4053.000,7528.000,-432.000,48.000,-340.000,0.000,0.000,0
2026-01-31 11:56:07,1443134,1663.000,-4644.000,7739.000,-1106.000,-198.000,-613.000,0.000,0.000,0
2026-01-31 11:56:07,1443174,2780.000,-4679.000,8179.000,-592.000,-525.000,-586.000,0.000,0.000,0
2026-01-31 11:56:07,1443214,3292.000,-4574.000,8406.000,-570.000,-280.000,-664.000,0.000,0.000,0
2026-01-31 11:56:07,1443254,3029.000,-4079.000,8696.000,-1189.000,-312.000,-975.000,0.000,0.000,0
2026-01-31 11:56:07,1443294,3683.000,-3795.000,8217.000,-1185.000,-75.000,-419.000,0.000,0.000,0
2026-01-31 11:56:07,1443334,3394.000,-2915.000,7245.000,-1694.000,988.000,1011.000,0.000,0.000,0
2026-01-31 11:56:07,1443374,3198.000,-3906.000,6534.000,-1779.000,1453.000,1601.000,0.000,0.000,0
2026-01-31 11:56:08,1443414,2640.000,-2799.000,5884.000,-64.000,1086.000,925.000,0.000,0.000,0
2026-01-31 11:56:08,1443454,2189.000,-3647.000,5538.000,-482.000,649.000,252.000,0.000,0.000,0
2026-01-31 11:56:08,1443494,2111.000,-5109.000,5257.000,608.000,188.000,-293.000,0.000,0.000,0
2026-01-31 11:56:08,1443534,1950.000,-3468.000,5650.000,1859.000,59.000,90.000,0.000,0.000,0
2026-01-31 11:56:08,1443574,2204.000,-4763.000,6064.000,-110.000,30.000,631.000,0.000,0.000,0
2026-01-31 11:56:08,1443614,2671.000,-5255.000,6016.000,702.000,-22.000,1029.000,0.000,0.000,0
2026-01-31 11:56:08,1443654,2262.000,-4316.000,6294.000,561.000,17.000,1116.000,0.000,0.000,0
2026-01-31 11:56:08,1443694,2075.000,-5449.000,6576.000,-223.000,-67.000,828.000,0.000,0.000,0
2026-01-31 11:56:08,1443735,2032.000,-5058.000,6878.000,586.000,-277.000,569.000,0.000,0.000,0
2026-01-31 11:56:08,1443774,2408.000,-4914.000,7795.000,100.000,-202.000,-197.000,0.000,0.000,0
2026-01-31 11:56:08,1443814,1997.000,-5146.000,8040.000,194.000,97.000,-358.000,0.000,0.000,0
2026-01-31 11:56:08,1443854,1781.000,-4579.000,8693.000,752.000,-269.000,-593.000,0.000,0.000,0
2026-01-31 11:56:08,1443894,1237.000,-3983.000,8259.000,438.000,-363.000,-1162.000,0.000,0.000,0
2026-01-31 11:56:08,1443934,1227.000,-5134.000,7147.000,753.000,-340.000,-1469.000,0.000,0.000,0
2026-01-31 11:56:08,1443974,1551.000,-3798.000,7163.000,3099.000,-121.000,-971.000,0.000,0.000,0
2026-01-31 11:56:08,1444014,2316.000,-2111.000,7490.000,3546.000,-188.000,-48.000,0.000,0.000,0
2026-01-31 11:56:08,1444054,3240.000,-3487.000,6199.000,3523.000,148.000,565.000,0.000,0.000,0
2026-01-31 11:56:08,1444094,2715.000,-4135.000,4984.000,6155.000,755.000,716.000,0.000,0.000,0
2026-01-31 11:56:08,1444134,1436.000,-3111.000,4983.000,10000.000,875.000,497.000,0.000,0.000,0
2026-01-31 11:56:08,1444174,1544.000,-662.000,5686.000,12420.000,561.000,695.000,0.000,0.000,0
2026-01-31 11:56:08,1444214,1252.000,881.000,6535.000,12834.000,739.000,1064.000,0.000,0.000,0
2026-01-31 11:56:08,1444254,1989.000,1764.000,6920.000,12910.000,794.000,1259.000,0.000,0.000,0
2026-01-31 11:56:08,1444294,1495.000,3105.000,6944.000,13416.000,1202.000,1319.000,0.000,0.000,0
2026-01-31 11:56:08,1444334,1721.000,4945.000,6971.000,13530.000,1312.000,1796.000,0.000,0.000,0
2026-01-31 11:56:08,1444374,1989.000,6913.000,7408.000,12845.000,1917.000,2626.000,0.000,0.000,0
2026-01-31 11:56:09,1444414,1940.000,7810.000,6184.000,11908.000,3025.000,3512.000,0.000,0.000,0
2026-01-31 11:56:09,1444454,1918.000,9549.000,4944.000,11481.000,4276.000,4324.000,0.000,0.000,0
2026-01-31 11:56:09,1444494,2386.000,11500.000,5771.000,9909.000,5392.000,4637.000,0.000,0.000,0
2026-01-31 11:56:09,1444534,2354.000,10029.000,3965.000,7396.000,6417.000,3728.000,0.000,0.000,0
2026-01-31 11:56:09,1444574,1447.000,7737.000,3220.000,5934.000,6604.000,1001.000,0.000,0.000,0
2026-01-31 11:56:09,1444614,1527.000,7469.000,2233.000,5838.000,6146.000,-49.000,0.000,0.000,0
2026-01-31 11:56:09,1444654,1394.000,6641.000,1989.000,4502.000,5644.000,-594.000,0.000,0.000,0
2026-01-31 11:56:09,1444694,1181.000,5569.000,2056.000,3167.000,5167.000,-857.000,0.000,0.000,0
2026-01-31 11:56:09,1444734,736.000,4270.000,1849.000,3118.000,4529.000,-904.000,0.000,0.000,0
2026-01-31 11:56:09,1444774,482.000,4957.000,1335.000,4082.000,3741.000,-748.000,0.000,0.000,0
2026-01-31 11:56:09,1444814,480.000,5246.000,1595.000,4208.000,3116.000,-193.000,0.000,0.000,0
2026-01-31 11:56:09,1444854,636.000,6861.000,1868.000,5247.000,2727.000,571.000,0.000,0.000,0
2026-01-31 11:56:09,1444894,707.000,7941.000,1133.000,4599.000,2621.000,974.000,0.000,0.000,0
2026-01-31 11:56:09,1444934,24.000,9153.000,1208.000,5538.000,2697.000,607.000,0.000,0.000,0
2026-01-31 11:56:09,1444974,205.000,10617.000,-410.000,5811.000,1958.000,356.000,0.000,0.000,0
2026-01-31 11:56:09,1445014,-477.000,10046.000,-1476.000,6175.000,1779.000,146.000,0.000,0.000,0
2026-01-31 11:56:09,1445054,-622.000,11734.000,-2399.000,6389.000,1075.000,344.000,0.000,0.000,0
2026-01-31 11:56:09,1445094,-697.000,10789.000,-2734.000,4726.000,173.000,514.000,0.000,0.000,0
2026-01-31 11:56:09,1445134,-276.000,10006.000,-3130.000,2787.000,-1015.000,368.000,0.000,0.000,0
2026-01-31 11:56:09,1445174,519.000,9814.000,-3887.000,46.000,-1610.000,632.000,0.000,0.000,0
2026-01-31 11:56:09,1445214,1153.000,8360.000,-4012.000,-1469.000,-1623.000,850.000,0.000,0.000,0
2026-01-31 11:56:09,1445254,1307.000,7277.000,-2966.000,-1868.000,-1696.000,586.000,0.000,0.000,0
2026-01-31 11:56:09,1445294,1010.000,5775.000,-1154.000,-3169.000,-1936.000,215.000,0.000,0.000,0
2026-01-31 11:56:09,1445334,960.000,4896.000,-674.000,-4288.000,-2226.000,-157.000,0.000,0.000,0
2026-01-31 11:56:09,1445374,839.000,4867.000,-1774.000,-4441.000,-1872.000,-167.000,0.000,0.000,0
2026-01-31 11:56:10,1445414,793.000,5748.000,-1273.000,-2873.000,-1557.000,315.000,0.000,0.000,0
2026-01-31 11:56:10,1445455,1138.000,6633.000,-1071.000,-2047.000,-1213.000,999.000,0.000,0.000,0
2026-01-31 11:56:10,1445494,1965.000,7857.000,-1742.000,-255.000,-467.000,1258.000,0.000,0.000,0
2026-01-31 11:56:10,1445534,2289.000,8150.000,-1554.000,648.000,408.000,1573.000,0.000,0.000,0
2026-01-31 11:56:10,1445574,3081.000,8609.000,-1333.000,2748.000,927.000,1793.000,0.000,0.000,0
2026-01-31 11:56:10,1445614,3386.000,9078.000,-1495.000,5169.000,1690.000,1921.000,0.000,0.000,0
2026-01-31 11:56:10,1445654,3220.000,9710.000,-2246.000,4961.000,2516.000,1960.000,0.000,0.000,0
2026-01-31 11:56:10,1445694,2980.000,8260.000,-1551.000,2100.000,2388.000,1310.000,0.000,0.000,0
2026-01-31 11:56:10,1445735,3587.000,7282.000,-2129.000,16.000,1512.000,671.000,0.000,0.000,0
2026-01-31 11:56:10,1445774,3062.000,5981.000,-1803.000,-25.000,1292.000,378.000,0.000,0.000,0
2026-01-31 11:56:10,1445814,1984.000,5230.000,-1131.000,1430.000,1170.000,-55.000,0.000,0.000,0
2026-01-31 11:56:10,1445854,1175.000,5056.000,-790.000,2370.000,1055.000,-537.000,0.000,0.000,0
2026-01-31 11:56:10,1445894,755.000,5470.000,-1112.000,2129.000,1122.000,-817.000,0.000,0.000,0
2026-01-31 11:56:10,1445934,597.000,6284.000,-1530.000,1982.000,1364.000,-815.000,0.000,0.000,0
2026-01-31 11:56:10,1445974,698.000,7054.000,-1602.000,2194.000,1365.000,-617.000,0.000,0.000,0
2026-01-31 11:56:10,1446014,973.000,8055.000,-1479.000,2838.000,1057.000,-552.000,0.000,0.000,0
2026-01-31 11:56:10,1446054,1352.000,8949.000,-1626.000,2404.000,153.000,-662.000,0.000,0.000,0
2026-01-31 11:56:10,1446094,2004.000,10285.000,-2754.000,1249.000,-677.000,-627.000,0.000,0.000,0
2026-01-31 11:56:10,1446134,1720.000,9454.000,-3082.000,-1415.000,-778.000,-503.000,0.000,0.000,0
2026-01-31 11:56:10,1446174,1158.000,9646.000,-3429.000,-26.000,-926.000,-457.000,0.000,0.000,0
2026-01-31 11:56:10,1446214,1397.000,10321.000,-3173.000,879.000,-1205.000,-362.000,0.000,0.000,0
2026-01-31 11:56:10,1446254,1438.000,8733.000,-3390.000,-1778.000,-1617.000,-432.000,0.000,0.000,0
2026-01-31 11:56:10,1446294,1828.000,9181.000,-4229.000,-3161.000,-1342.000,-186.000,0.000,0.000,0
2026-01-31 11:56:10,1446334,2054.000,8063.000,-4156.000,-4476.000,-798.000,151.000,0.000,0.000,0
2026-01-31 11:56:10,1446374,1662.000,6547.000,-2950.000,-4569.000,-862.000,-192.000,0.000,0.000,0
2026-01-31 11:56:11,1446414,1380.000,5963.000,-2195.000,-3605.000,-1564.000,-871.000,0.000,0.000,0
2026-01-31 11:56:11,1446454,1061.000,5032.000,-1664.000,-2945.000,-2071.000,-1318.000,0.000,0.000,0
2026-01-31 11:56:11,1446494,478.000,4542.000,-1467.000,-1750.000,-2021.000,-1330.000,0.000,0.000,0
2026-01-31 11:56:11,1446534,454.000,5352.000,-1740.000,-736.000,-1779.000,-880.000,0.000,0.000,0
2026-01-31 11:56:11,1446574,351.000,6168.000,-1628.000,-525.000,-1401.000,-92.000,0.000,0.000,0
2026-01-31 11:56:11,1446614,635.000,7465.000,-2114.000,-497.000,-704.000,648.000,0.000,0.000,0
2026-01-31 11:56:11,1446654,1456.000,8570.000,-2476.000,-534.000,1.000,1506.000,0.000,0.000,0
2026-01-31 11:56:11,1446694,1672.000,8837.000,-1686.000,345.000,576.000,1802.000,0.000,0.000,0
2026-01-31 11:56:11,1446734,2755.000,9564.000,-1804.000,1789.000,752.000,1816.000,0.000,0.000,0
2026-01-31 11:56:11,1446774,2669.000,10246.000,-2753.000,3079.000,1410.000,1710.000,0.000,0.000,0
2026-01-31 11:56:11,1446814,2354.000,8605.000,-1564.000,2011.000,1057.000,712.000,0.000,0.000,0
2026-01-31 11:56:11,1446854,2873.000,7729.000,-1439.000,1436.000,386.000,-423.000,0.000,0.000,0
2026-01-31 11:56:11,1446894,2569.000,6535.000,-1752.000,848.000,626.000,-853.000,0.000,0.000,0
2026-01-31 11:56:11,1446934,1795.000,5656.000,-1178.000,1524.000,902.000,-883.000,0.000,0.000,0
2026-01-31 11:56:11,1446974,1159.000,5349.000,-823.000,2316.000,970.000,-985.000,0.000,0.000,0
2026-01-31 11:56:11,1447014,704.000,5464.000,-1031.000,2277.000,1062.000,-1132.000,0.000,0.000,0
2026-01-31 11:56:11,1447054,257.000,6142.000,-1078.000,1926.000,1113.000,-1078.000,0.000,0.000,0
2026-01-31 11:56:11,1447094,135.000,6694.000,-1321.000,1410.000,1005.000,-737.000,0.000,0.000,0
2026-01-31 11:56:11,1447134,260.000,7454.000,-1754.000,897.000,907.000,-374.000,0.000,0.000,0
2026-01-31 11:56:11,1447174,389.000,8338.000,-1803.000,946.000,536.000,-87.000,0.000,0.000,0
2026-01-31 11:56:11,1447214,557.000,8824.000,-2223.000,704.000,-59.000,-68.000,0.000,0.000,0
2026-01-31 11:56:11,1447254,670.000,9934.000,-3344.000,241.000,-503.000,-125.000,0.000,0.000,0
2026-01-31 11:56:11,1447294,601.000,10480.000,-4012.000,-433.000,-625.000,94.000,0.000,0.000,0
2026-01-31 11:56:11,1447334,671.000,10084.000,-3706.000,-501.000,-957.000,258.000,0.000,0.000,0
2026-01-31 11:56:11,1447374,643.000,8958.000,-3158.000,-1032.000,-1811.000,166.000,0.000,0.000,0
2026-01-31 11:56:12,1447414,964.000,8987.000,-3916.000,-2159.000,-2390.000,82.000,0.000,0.000,0
2026-01-31 11:56:12,1447454,1556.000,8657.000,-4244.000,-3955.000,-2048.000,295.000,0.000,0.000,0
2026-01-31 11:56:12,1447494,1729.000,6848.000,-3420.000,-4652.000,-1479.000,60.000,0.000,0.000,0
2026-01-31 11:56:12,1447534,1387.000,5682.000,-2439.000,-3317.000,-1405.000,-806.000,0.000,0.000,0
2026-01-31 11:56:12,1447574,1105.000,5122.000,-1529.000,-1922.000,-1626.000,-1531.000,0.000,0.000,0
2026-01-31 11:56:12,1447614,752.000,4826.000,-1213.000,-757.000,-1464.000,-1974.000,0.000,0.000,0
2026-01-31 11:56:12,1447654,64.000,5294.000,-1628.000,471.000,-822.000,-1907.000,0.000,0.000,0
2026-01-31 11:56:12,1447694,-252.000,6241.000,-1770.000,944.000,-293.000,-1302.000,0.000,0.000,0
2026-01-31 11:56:12,1447736,-24.000,7483.000,-1734.000,713.000,200.000,-473.000,0.000,0.000,0
2026-01-31 11:56:12,1447774,513.000,8513.000,-2282.000,-100.000,915.000,401.000,0.000,0.000,0
2026-01-31 11:56:12,1447814,289.000,8108.000,-2078.000,317.000,1440.000,829.000,0.000,0.000,0
2026-01-31 11:56:12,1447854,750.000,8991.000,-2119.000,2577.000,1475.000,1033.000,0.000,0.000,0
2026-01-31 11:56:12,1447894,1088.000,10103.000,-3341.000,5001.000,1964.000,1546.000,0.000,0.000,0
2026-01-31 11:56:12,1447934,1052.000,9951.000,-2698.000,4154.000,1725.000,1009.000,0.000,0.000,0
2026-01-31 11:56:12,1447974,1702.000,8709.000,-2298.000,1246.000,981.000,24.000,0.000,0.000,0
2026-01-31 11:56:12,1448014,2283.000,8237.000,-2735.000,-63.000,872.000,-633.000,0.000,0.000,0
2026-01-31 11:56:12,1448054,1796.000,5988.000,-1628.000,271.000,1139.000,-1018.000,0.000,0.000,0
2026-01-31 11:56:12,1448094,1071.000,5689.000,-778.000,1452.000,1036.000,-1209.000,0.000,0.000,0
2026-01-31 11:56:12,1448134,448.000,5057.000,-834.000,522.000,1106.000,-1371.000,0.000,0.000,0
2026-01-31 11:56:12,1448174,42.000,5004.000,-1486.000,-1.000,1485.000,-1334.000,0.000,0.000,0
2026-01-31 11:56:12,1448214,-393.000,6140.000,-1765.000,359.000,1790.000,-813.000,0.000,0.000,0
2026-01-31 11:56:12,1448254,-602.000,6723.000,-1678.000,666.000,1712.000,-132.000,0.000,0.000,0
2026-01-31 11:56:12,1448294,-832.000,7463.000,-1889.000,1232.000,1213.000,262.000,0.000,0.000,0
2026-01-31 11:56:12,1448334,-819.000,9292.000,-2616.000,1235.000,327.000,424.000,0.000,0.000,0
2026-01-31 11:56:12,1448374,-575.000,10040.000,-3190.000,-245.000,-570.000,398.000,0.000,0.000,0
2026-01-31 11:56:13,1448414,-404.000,10194.000,-4302.000,-950.000,-964.000,29.000,0.000,0.000,0
2026-01-31 11:56:13,1448454,-245.000,10031.000,-4201.000,60.000,-1241.000,-10.000,0.000,0.000,0
2026-01-31 11:56:13,1448494,151.000,8853.000,-3613.000,-410.000,-1800.000,-163.000,0.000,0.000,0
2026-01-31 11:56:13,1448534,619.000,8997.000,-4496.000,-1043.000,-1830.000,86.000,0.000,0.000,0
2026-01-31 11:56:13,1448574,1103.000,7807.000,-4249.000,-1963.000,-1461.000,538.000,0.000,0.000,0
2026-01-31 11:56:13,1448614,1322.000,6318.000,-3202.000,-1482.000,-1292.000,434.000,0.000,0.000,0
2026-01-31 11:56:13,1448654,1033.000,5994.000,-2497.000,-783.000,-1539.000,-88.000,0.000,0.000,0
2026-01-31 11:56:13,1448694,345.000,4891.000,-1606.000,-1205.000,-1879.000,-498.000,0.000,0.000,0
2026-01-31 11:56:13,1448734,-206.000,4827.000,-1746.000,-914.000,-1858.000,-683.000,0.000,0.000,0
2026-01-31 11:56:13,1448774,-383.000,5419.000,-2147.000,-1035.000,-1518.000,-573.000,0.000,0.000,0
2026-01-31 11:56:13,1448814,-445.000,6030.000,-2534.000,-546.000,-697.000,72.000,0.000,0.000,0
2026-01-31 11:56:13,1448854,-244.000,7916.000,-2687.000,427.000,-93.000,448.000,0.000,0.000,0
2026-01-31 11:56:13,1448894,228.000,8391.000,-2877.000,150.000,401.000,612.000,0.000,0.000,0
2026-01-31 11:56:13,1448934,248.000,8263.000,-3223.000,1536.000,744.000,477.000,0.000,0.000,0
2026-01-31 11:56:13,1448974,1086.000,9374.000,-3727.000,3162.000,969.000,724.000,0.000,0.000,0
2026-01-31 11:56:13,1449014,923.000,9782.000,-4342.000,3481.000,1572.000,1106.000,0.000,0.000,0
2026-01-31 11:56:13,1449054,1438.000,8961.000,-3487.000,1812.000,1076.000,498.000,0.000,0.000,0
2026-01-31 11:56:13,1449094,1980.000,7819.000,-3229.000,642.000,717.000,-415.000,0.000,0.000,0
2026-01-31 11:56:13,1449134,1968.000,7130.000,-2957.000,394.000,741.000,-945.000,0.000,0.000,0
2026-01-31 11:56:13,1449174,1237.000,5798.000,-1930.000,836.000,977.000,-1170.000,0.000,0.000,0
2026-01-31 11:56:13,1449214,19.000,6066.000,-1462.000,976.000,1099.000,-1284.000,0.000,0.000,0
2026-01-31 11:56:13,1449254,-379.000,5553.000,-1414.000,12.000,1229.000,-1454.000,0.000,0.000,0
2026-01-31 11:56:13,1449294,-571.000,5910.000,-2024.000,17.000,1494.000,-1513.000,0.000,0.000,0
2026-01-31 11:56:13,1449334,-723.000,6855.000,-2217.000,104.000,1669.000,-1471.000,0.000,0.000,0
2026-01-31 11:56:13,1449374,-726.000,7637.000,-2486.000,298.000,1561.000,-1364.000,0.000,0.000,0
2026-01-31 11:56:14,1449414,-929.000,7730.000,-2546.000,575.000,1045.000,-1407.000,0.000,0.000,0
2026-01-31 11:56:14,1449455,-1216.000,8520.000,-3457.000,931.000,516.000,-1396.000,0.000,0.000,0
2026-01-31 11:56:14,1449494,-1351.000,8959.000,-3972.000,211.000,166.000,-1077.000,0.000,0.000,0
2026-01-31 11:56:14,1449534,-1578.000,8522.000,-3746.000,-420.000,-90.000,-714.000,0.000,0.000,0
2026-01-31 11:56:14,1449574,-1862.000,8982.000,-5039.000,501.000,-379.000,-317.000,0.000,0.000,0
2026-01-31 11:56:14,1449614,-1508.000,8938.000,-5266.000,-254.000,-1249.000,639.000,0.000,0.000,0
2026-01-31 11:56:14,1449654,-759.000,8417.000,-5359.000,-2042.000,-1537.000,1251.000,0.000,0.000,0
2026-01-31 11:56:14,1449694,-27.000,6122.000,-4176.000,-2719.000,-1316.000,1823.000,0.000,0.000,0
2026-01-31 11:56:14,1449735,456.000,4876.000,-3579.000,-142.000,-827.000,1688.000,0.000,0.000,0
2026-01-31 11:56:14,1449774,484.000,4565.000,-2808.000,961.000,-680.000,1287.000,0.000,0.000,0
2026-01-31 11:56:14,1449814,586.000,4108.000,-1518.000,410.000,-520.000,1219.000,0.000,0.000,0
2026-01-31 11:56:14,1449854,674.000,3779.000,-1985.000,-293.000,46.000,1614.000,0.000,0.000,0
2026-01-31 11:56:14,1449894,868.000,5080.000,-2819.000,316.000,935.000,2000.000,0.000,0.000,0
2026-01-31 11:56:14,1449934,1008.000,5645.000,-2660.000,-289.000,1500.000,2734.000,0.000,0.000,0
2026-01-31 11:56:14,1449974,1893.000,6971.000,-3591.000,-255.000,2776.000,3985.000,0.000,0.000,0
2026-01-31 11:56:14,1450014,3569.000,9681.000,-4737.000,260.000,3570.000,4409.000,0.000,0.000,0
2026-01-31 11:56:14,1450054,4763.000,9059.000,-2266.000,-2777.000,3448.000,5185.000,0.000,0.000,0
2026-01-31 11:56:14,1450094,6692.000,11067.000,-5252.000,-3131.000,2686.000,5214.000,0.000,0.000,0
2026-01-31 11:56:14,1450134,6267.000,10519.000,-3333.000,-4746.000,2192.000,5001.000,0.000,0.000,0
2026-01-31 11:56:14,1450174,5014.000,6284.000,-1062.000,-5002.000,548.000,3337.000,0.000,0.000,0
2026-01-31 11:56:14,1450214,4245.000,6465.000,-1252.000,-3316.000,-540.000,1760.000,0.000,0.000,0
2026-01-31 11:56:14,1450254,3447.000,5933.000,-1428.000,-3093.000,395.000,1432.000,0.000,0.000,0
2026-01-31 11:56:14,1450294,2297.000,4592.000,-1288.000,-1915.000,1776.000,1188.000,0.000,0.000,0
2026-01-31 11:56:14,1450334,1385.000,3819.000,-376.000,337.000,2369.000,801.000,0.000,0.000,0
2026-01-31 11:56:14,1450374,1164.000,4769.000,-480.000,3497.000,2508.000,-268.000,0.000,0.000,0
2026-01-31 11:56:15,1450414,1537.000,5843.000,-712.000,4165.000,2586.000,-605.000,0.000,0.000,0
2026-01-31 11:56:15,1450454,2142.000,6658.000,-825.000,4354.000,2575.000,-863.000,0.000,0.000,0
2026-01-31 11:56:15,1450494,2478.000,7655.000,-1089.000,5020.000,2084.000,-1218.000,0.000,0.000,0
2026-01-31 11:56:15,1450534,3017.000,9115.000,-1234.000,5141.000,1065.000,-1310.000,0.000,0.000,0
2026-01-31 11:56:15,1450574,3686.000,10161.000,-1961.000,3537.000,-285.000,-1384.000,0.000,0.000,0
2026-01-31 11:56:15,1450614,3634.000,10250.000,-2989.000,1432.000,-978.000,-1506.000,0.000,0.000,0
2026-01-31 11:56:15,1450654,3915.000,10821.000,-3112.000,1507.000,-910.000,-1628.000,0.000,0.000,0
2026-01-31 11:56:15,1450694,3323.000,9438.000,-3529.000,-162.000,-1283.000,-1472.000,0.000,0.000,0
2026-01-31 11:56:15,1450734,3918.000,9945.000,-3791.000,-1405.000,-2307.000,-1737.000,0.000,0.000,0
2026-01-31 11:56:15,1450774,3962.000,7371.000,-4748.000,-3794.000,-2483.000,-1068.000,0.000,0.000,0
2026-01-31 11:56:15,1450814,3069.000,6214.000,-3540.000,-222.000,-2653.000,-1781.000,0.000,0.000,0
2026-01-31 11:56:15,1450854,2171.000,5810.000,-2651.000,321.000,-3469.000,-2397.000,0.000,0.000,0
2026-01-31 11:56:15,1450894,1460.000,4138.000,-2555.000,895.000,-3852.000,-3157.000,0.000,0.000,0
2026-01-31 11:56:15,1450934,1060.000,4018.000,-3395.000,2867.000,-3772.000,-3603.000,0.000,0.000,0
2026-01-31 11:56:15,1450974,644.000,4915.000,-3313.000,4962.000,-3396.000,-3657.000,0.000,0.000,0
2026-01-31 11:56:15,1451014,117.000,5106.000,-4542.000,5158.000,-2853.000,-3630.000,0.000,0.000,0
2026-01-31 11:56:15,1451054,-18.000,7170.000,-5795.000,5497.000,-2406.000,-3609.000,0.000,0.000,0
2026-01-31 11:56:15,1451094,615.000,7679.000,-5561.000,1459.000,-2250.000,-3549.000,0.000,0.000,0
2026-01-31 11:56:15,1451134,7.000,7237.000,-5584.000,-185.000,-1847.000,-3579.000,0.000,0.000,0
2026-01-31 11:56:15,1451174,316.000,7732.000,-5185.000,-508.000,-1606.000,-2899.000,0.000,0.000,0
2026-01-31 11:56:15,1451214,-366.000,7529.000,-5523.000,-341.000,-736.000,-2019.000,0.000,0.000,0
2026-01-31 11:56:15,1451254,-489.000,7591.000,-4571.000,-295.000,-959.000,-1518.000,0.000,0.000,0
2026-01-31 11:56:15,1451294,-201.000,6948.000,-3798.000,-1132.000,-1429.000,-1448.000,0.000,0.000,0
2026-01-31 11:56:15,1451334,94.000,6536.000,-3739.000,-1133.000,-1230.000,-1291.000,0.000,0.000,0
2026-01-31 11:56:15,1451374,-302.000,5125.000,-3093.000,-1442.000,-551.000,-1210.000,0.000,0.000,0
2026-01-31 11:56:16,1451414,-1078.000,4490.000,-2254.000,-755.000,13.000,-1175.000,0.000,0.000,0
2026-01-31 11:56:16,1451454,-1522.000,4503.000,-1688.000,-387.000,-39.000,-1301.000,0.000,0.000,0
2026-01-31 11:56:16,1451494,-1942.000,5091.000,-2365.000,-107.000,14.000,-1282.000,0.000,0.000,0
2026-01-31 11:56:16,1451534,-2566.000,5793.000,-2610.000,-791.000,236.000,-1186.000,0.000,0.000,0
2026-01-31 11:56:16,1451574,-2989.000,6257.000,-3154.000,-216.000,386.000,-1063.000,0.000,0.000,0
2026-01-31 11:56:16,1451614,-3185.000,6962.000,-3520.000,847.000,86.000,-961.000,0.000,0.000,0
2026-01-31 11:56:16,1451654,-3111.000,7508.000,-3416.000,680.000,-327.000,-867.000,0.000,0.000,0
2026-01-31 11:56:16,1451694,-3052.000,7473.000,-4014.000,-13.000,-321.000,-759.000,0.000,0.000,0
2026-01-31 11:56:16,1451736,-3262.000,7353.000,-4693.000,-56.000,-46.000,-527.000,0.000,0.000,0
2026-01-31 11:56:16,1451774,-3777.000,6869.000,-5471.000,728.000,301.000,176.000,0.000,0.000,0
2026-01-31 11:56:16,1451814,-3181.000,7509.000,-5790.000,1986.000,115.000,1355.000,0.000,0.000,0
2026-01-31 11:56:16,1451854,-2770.000,6796.000,-4912.000,596.000,-494.000,2135.000,0.000,0.000,0
2026-01-31 11:56:16,1451894,-2302.000,6498.000,-5858.000,-418.000,-471.000,2740.000,0.000,0.000,0
2026-01-31 11:56:16,1451934,-1819.000,5493.000,-4875.000,-1077.000,-279.000,3039.000,0.000,0.000,0
2026-01-31 11:56:16,1451974,-1376.000,5399.000,-3889.000,57.000,-267.000,2625.000,0.000,0.000,0
2026-01-31 11:56:16,1452014,-1455.000,5219.000,-2932.000,41.000,-495.000,2128.000,0.000,0.000,0
2026-01-31 11:56:16,1452054,-1660.000,5091.000,-2689.000,-431.000,-649.000,1768.000,0.000,0.000,0
2026-01-31 11:56:16,1452094,-1730.000,5242.000,-3130.000,-701.000,-516.000,1583.000,0.000,0.000,0
2026-01-31 11:56:16,1452134,-1796.000,5480.000,-3500.000,-807.000,-131.000,1386.000,0.000,0.000,0
2026-01-31 11:56:16,1452174,-1947.000,6247.000,-4139.000,-562.000,325.000,1163.000,0.000,0.000,0
2026-01-31 11:56:16,1452214,-1752.000,7635.000,-5120.000,-308.000,626.000,1111.000,0.000,0.000,0
2026-01-31 11:56:16,1452254,-1110.000,7618.000,-4967.000,-430.000,738.000,1039.000,0.000,0.000,0
2026-01-31 11:56:16,1452294,-419.000,8608.000,-5669.000,2236.000,1384.000,1213.000,0.000,0.000,0
2026-01-31 11:56:16,1452334,-154.000,8924.000,-5709.000,3097.000,1331.000,1142.000,0.000,0.000,0
2026-01-31 11:56:16,1452374,776.000,8072.000,-4662.000,1247.000,780.000,158.000,0.000,0.000,0
2026-01-31 11:56:17,1452414,875.000,6597.000,-4646.000,1467.000,778.000,-1334.000,0.000,0.000,0
2026-01-31 11:56:17,1452454,701.000,6475.000,-4343.000,2182.000,902.000,-2006.000,0.000,0.000,0
2026-01-31 11:56:17,1452494,352.000,6417.000,-3071.000,1893.000,876.000,-1793.000,0.000,0.000,0
2026-01-31 11:56:17,1452534,47.000,5783.000,-2518.000,330.000,782.000,-1407.000,0.000,0.000,0
2026-01-31 11:56:17,1452574,-402.000,4962.000,-2537.000,-873.000,829.000,-1311.000,0.000,0.000,0
2026-01-31 11:56:17,1452614,-643.000,4730.000,-2992.000,-1416.000,985.000,-1232.000,0.000,0.000,0
2026-01-31 11:56:17,1452654,-1155.000,4797.000,-2999.000,-823.000,1244.000,-991.000,0.000,0.000,0
2026-01-31 11:56:17,1452694,-1377.000,6077.000,-3696.000,-600.000,1168.000,-588.000,0.000,0.000,0
2026-01-31 11:56:17,1452734,-1839.000,6867.000,-3948.000,-129.000,781.000,-356.000,0.000,0.000,0
2026-01-31 11:56:17,1452774,-2041.000,7542.000,-4436.000,-11.000,193.000,-163.000,0.000,0.000,0
2026-01-31 11:56:17,1452814,-1978.000,8373.000,-5127.000,-347.000,-120.000,84.000,0.000,0.000,0
2026-01-31 11:56:17,1452854,-1642.000,9701.000,-6671.000,-194.000,33.000,470.000,0.000,0.000,0
2026-01-31 11:56:17,1452894,-919.000,10186.000,-6545.000,-587.000,6.000,1006.000,0.000,0.000,0
2026-01-31 11:56:17,1452934,-572.000,7905.000,-4295.000,-2497.000,-736.000,1250.000,0.000,0.000,0
2026-01-31 11:56:17,1452974,-488.000,6506.000,-4536.000,-2102.000,-1349.000,916.000,0.000,0.000,0
2026-01-31 11:56:17,1453014,-341.000,6769.000,-5010.000,-1171.000,-1371.000,1143.000,0.000,0.000,0
2026-01-31 11:56:17,1453054,-139.000,5691.000,-4128.000,-1102.000,-926.000,1457.000,0.000,0.000,0
2026-01-31 11:56:17,1453094,-238.000,5288.000,-3465.000,-703.000,-620.000,1328.000,0.000,0.000,0
2026-01-31 11:56:17,1453134,-456.000,5101.000,-3195.000,-873.000,-757.000,1041.000,0.000,0.000,0
2026-01-31 11:56:17,1453174,-780.000,5507.000,-3116.000,-1348.000,-699.000,734.000,0.000,0.000,0
2026-01-31 11:56:17,1453214,-911.000,5344.000,-2682.000,-2271.000,-505.000,560.000,0.000,0.000,0
2026-01-31 11:56:17,1453254,-998.000,5173.000,-3020.000,-1786.000,-168.000,340.000,0.000,0.000,0
2026-01-31 11:56:17,1453294,-986.000,6561.000,-3722.000,-298.000,249.000,382.000,0.000,0.000,0
2026-01-31 11:56:17,1453334,-467.000,7896.000,-3955.000,-320.000,635.000,831.000,0.000,0.000,0
2026-01-31 11:56:17,1453374,-45.000,8287.000,-4203.000,22.000,1048.000,1027.000,0.000,0.000,0
2026-01-31 11:56:18,1453414,681.000,8987.000,-3982.000,329.000,985.000,1073.000,0.000,0.000,0
2026-01-31 11:56:18,1453454,1055.000,9462.000,-4795.000,1042.000,1741.000,1410.000,0.000,0.000,0
2026-01-31 11:56:18,1453494,949.000,8304.000,-3174.000,-119.000,1666.000,1121.000,0.000,0.000,0
2026-01-31 11:56:18,1453534,1231.000,7321.000,-2864.000,-1063.000,976.000,426.000,0.000,0.000,0
2026-01-31 11:56:18,1453574,1793.000,7050.000,-3203.000,-672.000,666.000,43.000,0.000,0.000,0
2026-01-31 11:56:18,1453614,1589.000,5606.000,-2584.000,86.000,839.000,-348.000,0.000,0.000,0
2026-01-31 11:56:18,1453654,770.000,5342.000,-2190.000,1626.000,890.000,-723.000,0.000,0.000,0
2026-01-31 11:56:18,1453694,246.000,5299.000,-1732.000,1912.000,575.000,-938.000,0.000,0.000,0
2026-01-31 11:56:18,1453736,2.000,5354.000,-2232.000,1254.000,491.000,-909.000,0.000,0.000,0
2026-01-31 11:56:18,1453774,-209.000,5619.000,-2531.000,781.000,653.000,-788.000,0.000,0.000,0
2026-01-31 11:56:18,1453814,-278.000,6251.000,-2630.000,799.000,797.000,-544.000,0.000,0.000,0
2026-01-31 11:56:18,1453854,-680.000,6966.000,-3120.000,1817.000,512.000,-463.000,0.000,0.000,0
2026-01-31 11:56:18,1453894,-623.000,8422.000,-3351.000,2066.000,-190.000,-363.000,0.000,0.000,0
2026-01-31 11:56:18,1453934,-310.000,9264.000,-4322.000,478.000,-722.000,-12.000,0.000,0.000,0
2026-01-31 11:56:18,1453974,-204.000,8776.000,-5309.000,-556.000,-938.000,367.000,0.000,0.000,0
2026-01-31 11:56:18,1454014,182.000,9584.000,-6036.000,1026.000,-1019.000,1066.000,0.000,0.000,0
2026-01-31 11:56:18,1454054,174.000,8480.000,-4791.000,1185.000,-1683.000,1471.000,0.000,0.000,0
2026-01-31 11:56:18,1454094,595.000,8846.000,-5674.000,-213.000,-2177.000,1655.000,0.000,0.000,0
2026-01-31 11:56:18,1454134,887.000,8272.000,-6010.000,-2878.000,-1884.000,2077.000,0.000,0.000,0
2026-01-31 11:56:18,1454174,1242.000,6477.000,-4640.000,-4159.000,-1466.000,2054.000,0.000,0.000,0
2026-01-31 11:56:18,1454214,953.000,5533.000,-2891.000,-3286.000,-1346.000,986.000,0.000,0.000,0
2026-01-31 11:56:18,1454254,143.000,4141.000,-2322.000,-1611.000,-1627.000,336.000,0.000,0.000,0
2026-01-31 11:56:18,1454294,-268.000,4210.000,-2352.000,-328.000,-1869.000,4.000,0.000,0.000,0
2026-01-31 11:56:18,1454334,-249.000,4828.000,-2812.000,394.000,-1848.000,121.000,0.000,0.000,0
2026-01-31 11:56:18,1454374,-106.000,5411.000,-3127.000,472.000,-1509.000,467.000,0.000,0.000,0
2026-01-31 11:56:19,1454414,306.000,7102.000,-3287.000,744.000,-1030.000,764.000,0.000,0.000,0
2026-01-31 11:56:19,1454454,952.000,7648.000,-3826.000,-67.000,-584.000,992.000,0.000,0.000,0
2026-01-31 11:56:19,1454494,838.000,7387.000,-3765.000,717.000,2.000,937.000,0.000,0.000,0
2026-01-31 11:56:19,1454534,1048.000,8439.000,-3787.000,1656.000,358.000,961.000,0.000,0.000,0
2026-01-31 11:56:19,1454574,1115.000,8064.000,-4961.000,1693.000,1318.000,1381.000,0.000,0.000,0
2026-01-31 11:56:19,1454614,947.000,7954.000,-4297.000,3018.000,692.000,1379.000,0.000,0.000,0
2026-01-31 11:56:19,1454654,1433.000,7659.000,-4466.000,1831.000,-351.000,737.000,0.000,0.000,0
2026-01-31 11:56:19,1454694,1711.000,7042.000,-5320.000,-83.000,-703.000,333.000,0.000,0.000,0
2026-01-31 11:56:19,1454734,1680.000,6169.000,-4935.000,-1092.000,-633.000,175.000,0.000,0.000,0
2026-01-31 11:56:19,1454774,1156.000,5196.000,-3616.000,-246.000,-989.000,-36.000,0.000,0.000,0
2026-01-31 11:56:19,1454814,580.000,5075.000,-3441.000,1385.000,-1765.000,-560.000,0.000,0.000,0
2026-01-31 11:56:19,1454854,64.000,5514.000,-3697.000,1630.000,-2293.000,-861.000,0.000,0.000,0
2026-01-31 11:56:19,1454894,0.000,5810.000,-3456.000,1047.000,-2568.000,-933.000,0.000,0.000,0
2026-01-31 11:56:19,1454934,-49.000,6206.000,-3355.000,1161.000,-2613.000,-953.000,0.000,0.000,0
2026-01-31 11:56:19,1454974,-260.000,6860.000,-3604.000,1003.000,-2697.000,-1069.000,0.000,0.000,0
2026-01-31 11:56:19,1455014,-433.000,7449.000,-3523.000,425.000,-3003.000,-1421.000,0.000,0.000,0
2026-01-31 11:56:19,1455054,-249.000,8350.000,-4407.000,149.000,-2861.000,-1706.000,0.000,0.000,0
2026-01-31 11:56:19,1455094,-44.000,8680.000,-4754.000,-801.000,-2333.000,-1744.000,0.000,0.000,0
2026-01-31 11:56:19,1455134,-46.000,8951.000,-5230.000,-921.000,-1497.000,-1058.000,0.000,0.000,0
2026-01-31 11:56:19,1455174,-300.000,8137.000,-6026.000,-1445.000,-470.000,-469.000,0.000,0.000,0
2026-01-31 11:56:19,1455214,-367.000,7814.000,-6852.000,-2448.000,717.000,-168.000,0.000,0.000,0
2026-01-31 11:56:19,1455254,-426.000,6205.000,-5992.000,-3865.000,1491.000,-227.000,0.000,0.000,0
2026-01-31 11:56:19,1455294,-515.000,5095.000,-4710.000,-2295.000,1657.000,-384.000,0.000,0.000,0
2026-01-31 11:56:19,1455334,-914.000,4787.000,-3656.000,-318.000,1273.000,-671.000,0.000,0.000,0
2026-01-31 11:56:19,1455374,-1707.000,4484.000,-3179.000,0.000,824.000,-999.000,0.000,0.000,0
2026-01-31 11:56:20,1455414,-1919.000,5053.000,-3347.000,-1019.000,703.000,-1067.000,0.000,0.000,0
2026-01-31 11:56:20,1455454,-1705.000,5292.000,-3191.000,-1542.000,950.000,-861.000,0.000,0.000,0
2026-01-31 11:56:20,1455494,-1761.000,5538.000,-3608.000,-965.000,1361.000,-908.000,0.000,0.000,0
2026-01-31 11:56:20,1455534,-1795.000,6884.000,-4053.000,33.000,1590.000,-753.000,0.000,0.000,0
2026-01-31 11:56:20,1455574,-2166.000,7192.000,-4327.000,523.000,1672.000,-682.000,0.000,0.000,0
2026-01-31 11:56:20,1455614,-1582.000,8729.000,-5532.000,1076.000,1537.000,-570.000,0.000,0.000,0
2026-01-31 11:56:20,1455654,-869.000,9461.000,-6380.000,782.000,1986.000,73.000,0.000,0.000,0
2026-01-31 11:56:20,1455694,-485.000,8145.000,-4439.000,-103.000,1222.000,-264.000,0.000,0.000,0
2026-01-31 11:56:20,1455735,-204.000,7499.000,-4334.000,-217.000,298.000,-973.000,0.000,0.000,0
2026-01-31 11:56:20,1455774,-82.000,6760.000,-4128.000,-208.000,658.000,-1014.000,0.000,0.000,0
2026-01-31 11:56:20,1455814,-448.000,5867.000,-2477.000,251.000,1039.000,-903.000,0.000,0.000,0
2026-01-31 11:56:20,1455854,-1068.000,5104.000,-1744.000,639.000,913.000,-1168.000,0.000,0.000,0
2026-01-31 11:56:20,1455894,-1430.000,5143.000,-1940.000,318.000,723.000,-1277.000,0.000,0.000,0
2026-01-31 11:56:20,1455934,-1665.000,5002.000,-2217.000,36.000,615.000,-1088.000,0.000,0.000,0
2026-01-31 11:56:20,1455974,-1645.000,5256.000,-2317.000,437.000,414.000,-705.000,0.000,0.000,0
2026-01-31 11:56:20,1456014,-1759.000,6662.000,-2957.000,1012.000,308.000,-100.000,0.000,0.000,0
2026-01-31 11:56:20,1456054,-1827.000,7581.000,-3423.000,224.000,49.000,341.000,0.000,0.000,0
2026-01-31 11:56:20,1456094,-1650.000,7817.000,-4010.000,-492.000,-92.000,493.000,0.000,0.000,0
2026-01-31 11:56:20,1456134,-1544.000,7672.000,-4661.000,339.000,-8.000,454.000,0.000,0.000,0
2026-01-31 11:56:20,1456174,-1762.000,8120.000,-4981.000,1362.000,24.000,370.000,0.000,0.000,0
2026-01-31 11:56:20,1456214,-1991.000,8170.000,-4325.000,1521.000,-486.000,1267.000,0.000,0.000,0
2026-01-31 11:56:20,1456254,-1761.000,8608.000,-5775.000,-324.000,-509.000,1845.000,0.000,0.000,0
2026-01-31 11:56:20,1456294,-934.000,8916.000,-6364.000,-2522.000,-282.000,2174.000,0.000,0.000,0
2026-01-31 11:56:20,1456334,112.000,6594.000,-5000.000,-3531.000,-65.000,1851.000,0.000,0.000,0
2026-01-31 11:56:20,1456374,254.000,5829.000,-4314.000,-1434.000,63.000,602.000,0.000,0.000,0
2026-01-31 11:56:21,1456414,-391.000,5134.000,-3128.000,-582.000,-270.000,-548.000,0.000,0.000,0
2026-01-31 11:56:21,1456454,-909.000,4295.000,-2195.000,-290.000,-663.000,-1214.000,0.000,0.000,0
2026-01-31 11:56:21,1456494,-1191.000,4755.000,-2915.000,-170.000,-588.000,-1423.000,0.000,0.000,0
2026-01-31 11:56:21,1456534,-1548.000,5223.000,-3181.000,-346.000,-211.000,-1304.000,0.000,0.000,0
2026-01-31 11:56:21,1456574,-1537.000,7149.000,-3514.000,254.000,146.000,-1053.000,0.000,0.000,0
2026-01-31 11:56:21,1456614,-1212.000,7979.000,-4494.000,-720.000,609.000,-701.000,0.000,0.000,0
2026-01-31 11:56:21,1456654,-1500.000,7374.000,-4135.000,-262.000,986.000,-604.000,0.000,0.000,0
2026-01-31 11:56:21,1456694,-924.000,8989.000,-4790.000,786.000,1115.000,-465.000,0.000,0.000,0
2026-01-31 11:56:21,1456734,-371.000,9459.000,-5692.000,55.000,1908.000,119.000,0.000,0.000,0
2026-01-31 11:56:21,1456774,-285.000,7723.000,-3892.000,-682.000,1646.000,-133.000,0.000,0.000,0
2026-01-31 11:56:21,1456814,233.000,7229.000,-3682.000,-505.000,935.000,-993.000,0.000,0.000,0
2026-01-31 11:56:21,1456854,179.000,6960.000,-4635.000,-837.000,1389.000,-1013.000,0.000,0.000,0
2026-01-31 11:56:21,1456894,-32.000,6042.000,-3607.000,-1044.000,2077.000,-852.000,0.000,0.000,0
2026-01-31 11:56:21,1456934,-1093.000,4336.000,-2148.000,31.000,2309.000,-973.000,0.000,0.000,0
2026-01-31 11:56:21,1456974,-1294.000,5359.000,-2346.000,1537.000,2030.000,-959.000,0.000,0.000,0
2026-01-31 11:56:21,1457014,-1054.000,4549.000,-2446.000,493.000,2083.000,-822.000,0.000,0.000,0
2026-01-31 11:56:21,1457054,-1190.000,4512.000,-2487.000,1851.000,2365.000,-350.000,0.000,0.000,0
2026-01-31 11:56:21,1457094,-1321.000,6654.000,-3415.000,3223.000,2322.000,278.000,0.000,0.000,0
2026-01-31 11:56:21,1457134,-1523.000,6960.000,-3942.000,3621.000,1946.000,927.000,0.000,0.000,0
2026-01-31 11:56:21,1457174,-1219.000,8504.000,-4824.000,3759.000,1607.000,1206.000,0.000,0.000,0
2026-01-31 11:56:21,1457214,-1107.000,8200.000,-5589.000,2279.000,1536.000,1165.000,0.000,0.000,0
2026-01-31 11:56:21,1457254,-1080.000,9032.000,-7314.000,2229.000,1721.000,1523.000,0.000,0.000,0
2026-01-31 11:56:21,1457294,-984.000,8833.000,-7006.000,810.000,1171.000,2011.000,0.000,0.000,0
2026-01-31 11:56:21,1457334,-803.000,6983.000,-6466.000,-189.000,53.000,2029.000,0.000,0.000,0
2026-01-31 11:56:21,1457374,-290.000,6356.000,-6351.000,-1425.000,-894.000,2570.000,0.000,0.000,0
2026-01-31 11:56:22,1457414,644.000,4452.000,-5416.000,-130.000,-845.000,2611.000,0.000,0.000,0
2026-01-31 11:56:22,1457454,1128.000,6480.000,-6466.000,1819.000,-863.000,1372.000,0.000,0.000,0
2026-01-31 11:56:22,1457494,612.000,4673.000,-3941.000,-1460.000,-1835.000,-57.000,0.000,0.000,0
2026-01-31 11:56:22,1457534,-289.000,4544.000,-4391.000,-951.000,-1946.000,-1503.000,0.000,0.000,0
2026-01-31 11:56:22,1457574,-777.000,4490.000,-4908.000,-1002.000,-2164.000,-2625.000,0.000,0.000,0
2026-01-31 11:56:22,1457614,-854.000,4465.000,-5021.000,-1028.000,-2408.000,-3293.000,0.000,0.000,0
2026-01-31 11:56:22,1457654,-777.000,5853.000,-5374.000,-203.000,-2279.000,-3412.000,0.000,0.000,0
2026-01-31 11:56:22,1457694,-356.000,5896.000,-5683.000,-1325.000,-2060.000,-3169.000,0.000,0.000,0
2026-01-31 11:56:22,1457736,-763.000,7015.000,-5151.000,-606.000,-1201.000,-2290.000,0.000,0.000,0
2026-01-31 11:56:22,1457774,-1000.000,7183.000,-5853.000,-692.000,-794.000,-1510.000,0.000,0.000,0
2026-01-31 11:56:22,1457814,-969.000,7563.000,-5932.000,-371.000,-185.000,-770.000,0.000,0.000,0
2026-01-31 11:56:22,1457854,-548.000,6688.000,-4487.000,-593.000,-230.000,-854.000,0.000,0.000,0
2026-01-31 11:56:22,1457894,-73.000,6273.000,-4835.000,-506.000,53.000,-1011.000,0.000,0.000,0
2026-01-31 11:56:22,1457934,133.000,5677.000,-4603.000,2.000,803.000,-855.000,0.000,0.000,0
2026-01-31 11:56:22,1457974,-714.000,5378.000,-3061.000,822.000,1437.000,-909.000,0.000,0.000,0
2026-01-31 11:56:22,1458014,-1866.000,5284.000,-2645.000,220.000,1317.000,-1120.000,0.000,0.000,0
2026-01-31 11:56:22,1458054,-2521.000,4897.000,-2815.000,-740.000,840.000,-1332.000,0.000,0.000,0
2026-01-31 11:56:22,1458094,-3068.000,4562.000,-3385.000,-439.000,369.000,-1717.000,0.000,0.000,0
2026-01-31 11:56:22,1458134,-3086.000,5506.000,-3176.000,1170.000,-566.000,-1742.000,0.000,0.000,0
2026-01-31 11:56:22,1458174,-3267.000,6251.000,-4022.000,1166.000,-920.000,-1384.000,0.000,0.000,0
2026-01-31 11:56:22,1458214,-3282.000,7251.000,-4610.000,333.000,-1250.000,-702.000,0.000,0.000,0
2026-01-31 11:56:22,1458254,-2778.000,7512.000,-4364.000,-978.000,-1496.000,-96.000,0.000,0.000,0
2026-01-31 11:56:22,1458294,-2520.000,7098.000,-6477.000,-1311.000,-1064.000,479.000,0.000,0.000,0
2026-01-31 11:56:22,1458334,-2862.000,7114.000,-6426.000,632.000,-697.000,1167.000,0.000,0.000,0
2026-01-31 11:56:22,1458374,-2972.000,6544.000,-5354.000,1482.000,-669.000,1916.000,0.000,0.000,0
2026-01-31 11:56:23,1458414,-2869.000,6911.000,-6692.000,889.000,-442.000,2551.000,0.000,0.000,0
2026-01-31 11:56:23,1458454,-2461.000,7038.000,-7057.000,-469.000,-303.000,3051.000,0.000,0.000,0
2026-01-31 11:56:23,1458494,-1303.000,5878.000,-4524.000,-1423.000,-473.000,2624.000,0.000,0.000,0
2026-01-31 11:56:23,1458534,-1194.000,5446.000,-3573.000,-2069.000,-1026.000,1635.000,0.000,0.000,0
2026-01-31 11:56:23,1458574,-1653.000,4821.000,-2762.000,-2317.000,-1515.000,693.000,0.000,0.000,0
2026-01-31 11:56:23,1458614,-1878.000,4129.000,-2411.000,-2023.000,-1478.000,129.000,0.000,0.000,0
2026-01-31 11:56:23,1458654,-2397.000,4603.000,-3215.000,-888.000,-758.000,-112.000,0.000,0.000,0
2026-01-31 11:56:23,1458694,-2870.000,5503.000,-3491.000,-961.000,-172.000,-51.000,0.000,0.000,0
2026-01-31 11:56:23,1458734,-2484.000,6508.000,-4475.000,-1227.000,351.000,193.000,0.000,0.000,0
2026-01-31 11:56:23,1458774,-1798.000,6988.000,-4574.000,-764.000,739.000,239.000,0.000,0.000,0
2026-01-31 11:56:23,1458814,-1380.000,7609.000,-4557.000,-246.000,1062.000,145.000,0.000,0.000,0
2026-01-31 11:56:23,1458854,-907.000,9243.000,-5509.000,-605.000,1680.000,91.000,0.000,0.000,0
2026-01-31 11:56:23,1458894,-657.000,7306.000,-3531.000,-1681.000,2175.000,6.000,0.000,0.000,0
2026-01-31 11:56:23,1458934,-364.000,6871.000,-3785.000,-686.000,1736.000,-685.000,0.000,0.000,0
2026-01-31 11:56:23,1458974,-538.000,6422.000,-4194.000,196.000,1815.000,-704.000,0.000,0.000,0
2026-01-31 11:56:23,1459014,-885.000,5549.000,-3615.000,695.000,2079.000,-649.000,0.000,0.000,0
2026-01-31 11:56:23,1459054,-1421.000,5369.000,-3276.000,1081.000,2169.000,-676.000,0.000,0.000,0
2026-01-31 11:56:23,1459094,-1971.000,4682.000,-2227.000,949.000,1748.000,-618.000,0.000,0.000,0
2026-01-31 11:56:23,1459134,-2342.000,4877.000,-2639.000,1478.000,1275.000,-692.000,0.000,0.000,0
2026-01-31 11:56:23,1459174,-2535.000,5805.000,-3305.000,1119.000,1033.000,-571.000,0.000,0.000,0
2026-01-31 11:56:23,1459214,-2463.000,6148.000,-3923.000,623.000,1048.000,-344.000,0.000,0.000,0
2026-01-31 11:56:23,1459254,-2116.000,7514.000,-3667.000,1181.000,715.000,-167.000,0.000,0.000,0
2026-01-31 11:56:23,1459294,-1986.000,8362.000,-4314.000,657.000,46.000,92.000,0.000,0.000,0
2026-01-31 11:56:23,1459334,-2084.000,8532.000,-4837.000,-536.000,-210.000,307.000,0.000,0.000,0
2026-01-31 11:56:23,1459374,-2149.000,8417.000,-5713.000,-594.000,-187.000,597.000,0.000,0.000,0
2026-01-31 11:56:24,1459415,-1942.000,8442.000,-5642.000,-13.000,-270.000,1082.000,0.000,0.000,0
2026-01-31 11:56:24,1459454,-1807.000,7411.000,-4732.000,-880.000,-672.000,1370.000,0.000,0.000,0
2026-01-31 11:56:24,1459494,-1720.000,7497.000,-5941.000,-1282.000,-861.000,1466.000,0.000,0.000,0
2026-01-31 11:56:24,1459534,-1299.000,6733.000,-5556.000,-1670.000,-1164.000,1594.000,0.000,0.000,0
2026-01-31 11:56:24,1459574,-832.000,6245.000,-4610.000,-1104.000,-1243.000,1492.000,0.000,0.000,0
2026-01-31 11:56:24,1459614,-612.000,5973.000,-3920.000,-719.000,-1494.000,1203.000,0.000,0.000,0
2026-01-31 11:56:24,1459654,-1268.000,5142.000,-2748.000,-1337.000,-2019.000,624.000,0.000,0.000,0
2026-01-31 11:56:24,1459694,-1675.000,4999.000,-3039.000,-1359.000,-2079.000,271.000,0.000,0.000,0
2026-01-31 11:56:24,1459735,-1659.000,5264.000,-2900.000,-1137.000,-2012.000,68.000,0.000,0.000,0
2026-01-31 11:56:24,1459774,-1892.000,5366.000,-2668.000,-666.000,-1646.000,-14.000,0.000,0.000,0
2026-01-31 11:56:24,1459814,-1988.000,6704.000,-3912.000,-313.000,-1050.000,-68.000,0.000,0.000,0
2026-01-31 11:56:24,1459854,-1630.000,7129.000,-3993.000,-588.000,-526.000,61.000,0.000,0.000,0
2026-01-31 11:56:24,1459894,-1598.000,7678.000,-3827.000,155.000,-109.000,-31.000,0.000,0.000,0
2026-01-31 11:56:24,1459934,-932.000,8831.000,-4828.000,346.000,239.000,-186.000,0.000,0.000,0
2026-01-31 11:56:24,1459974,-779.000,8821.000,-5161.000,1205.000,1039.000,-139.000,0.000,0.000,0
2026-01-31 11:56:24,1460014,-823.000,7655.000,-3826.000,2078.000,785.000,-588.000,0.000,0.000,0
2026-01-31 11:56:24,1460054,-21.000,7936.000,-4545.000,1049.000,132.000,-873.000,0.000,0.000,0
2026-01-31 11:56:24,1460094,395.000,6961.000,-3931.000,-175.000,191.000,-589.000,0.000,0.000,0
2026-01-31 11:56:24,1460134,-15.000,6027.000,-2864.000,164.000,452.000,-535.000,0.000,0.000,0
2026-01-31 11:56:24,1460174,-948.000,5417.000,-2374.000,709.000,447.000,-721.000,0.000,0.000,0
2026-01-31 11:56:24,1460214,-1716.000,5661.000,-2690.000,818.000,441.000,-879.000,0.000,0.000,0
2026-01-31 11:56:24,1460254,-2235.000,5562.000,-2559.000,408.000,291.000,-933.000,0.000,0.000,0
2026-01-31 11:56:24,1460294,-2447.000,6173.000,-2488.000,615.000,-17.000,-967.000,0.000,0.000,0
2026-01-31 11:56:24,1460334,-2893.000,6888.000,-2657.000,225.000,-485.000,-894.000,0.000,0.000,0
2026-01-31 11:56:24,1460374,-3343.000,7230.000,-3351.000,592.000,-968.000,-954.000,0.000,0.000,0
2026-01-31 11:56:25,1460414,-3793.000,8369.000,-4045.000,568.000,-2055.000,-1099.000,0.000,0.000,0
2026-01-31 11:56:25,1460454,-3887.000,7982.000,-4688.000,-527.000,-2490.000,-1228.000,0.000,0.000,0
2026-01-31 11:56:25,1460494,-4371.000,7783.000,-5489.000,347.000,-2639.000,-1211.000,0.000,0.000,0
2026-01-31 11:56:25,1460534,-4119.000,7377.000,-5658.000,802.000,-3079.000,-671.000,0.000,0.000,0
2026-01-31 11:56:25,1460574,-4042.000,6434.000,-5560.000,191.000,-3647.000,-122.000,0.000,0.000,0
2026-01-31 11:56:25,1460614,-3555.000,6818.000,-6285.000,412.000,-3680.000,571.000,0.000,0.000,0
2026-01-31 11:56:25,1460654,-2671.000,7230.000,-5470.000,-425.000,-3569.000,1001.000,0.000,0.000,0
2026-01-31 11:56:25,1460694,-2119.000,6147.000,-3824.000,-1848.000,-3234.000,974.000,0.000,0.000,0
2026-01-31 11:56:25,1460734,-2273.000,4725.000,-2886.000,-2501.000,-3059.000,366.000,0.000,0.000,0
2026-01-31 11:56:25,1460774,-1943.000,4913.000,-1164.000,-655.000,-3024.000,-121.000,0.000,0.000,0
2026-01-31 11:56:25,1460814,-2749.000,3446.000,-1698.000,-429.000,-2126.000,-517.000,0.000,0.000,0
2026-01-31 11:56:25,1460854,-2775.000,4628.000,-1868.000,563.000,-1535.000,-278.000,0.000,0.000,0
2026-01-31 11:56:25,1460894,-3700.000,4934.000,-2572.000,-824.000,-1104.000,265.000,0.000,0.000,0
2026-01-31 11:56:25,1460934,-3816.000,5365.000,-3513.000,135.000,-903.000,936.000,0.000,0.000,0
2026-01-31 11:56:25,1460974,-3509.000,6348.000,-2683.000,2321.000,-1081.000,1178.000,0.000,0.000,0
2026-01-31 11:56:25,1461014,-3354.000,8042.000,-3222.000,1599.000,-1301.000,1893.000,0.000,0.000,0
2026-01-31 11:56:25,1461054,-2991.000,8345.000,-3895.000,1411.000,-870.000,2509.000,0.000,0.000,0
2026-01-31 11:56:25,1461094,-2289.000,9517.000,-2648.000,3395.000,501.000,2275.000,0.000,0.000,0
2026-01-31 11:56:25,1461134,-2016.000,9725.000,-1798.000,2852.000,1344.000,1721.000,0.000,0.000,0
2026-01-31 11:56:25,1461174,-1159.000,7728.000,-3108.000,443.000,1811.000,1260.000,0.000,0.000,0
2026-01-31 11:56:25,1461214,-1181.000,7493.000,-5581.000,1066.000,2912.000,913.000,0.000,0.000,0
2026-01-31 11:56:25,1461254,-2077.000,4889.000,-3812.000,-1416.000,2520.000,614.000,0.000,0.000,0
2026-01-31 11:56:25,1461294,-2900.000,5008.000,-2802.000,192.000,1685.000,177.000,0.000,0.000,0
2026-01-31 11:56:25,1461334,-2382.000,5284.000,-1857.000,-794.000,787.000,248.000,0.000,0.000,0
2026-01-31 11:56:25,1461374,-2168.000,5007.000,-1806.000,-2205.000,383.000,338.000,0.000,0.000,0
2026-01-31 11:56:26,1461415,-1594.000,5972.000,-1593.000,-1136.000,343.000,346.000,0.000,0.000,0
2026-01-31 11:56:26,1461454,-1272.000,6760.000,-1680.000,-1076.000,763.000,648.000,0.000,0.000,0
2026-01-31 11:56:26,1461494,-613.000,7607.000,-1817.000,-1877.000,724.000,1599.000,0.000,0.000,0
2026-01-31 11:56:26,1461534,143.000,8378.000,-1755.000,-2731.000,667.000,2712.000,0.000,0.000,0
2026-01-31 11:56:26,1461574,1141.000,8604.000,-1860.000,-3969.000,963.000,3821.000,0.000,0.000,0
2026-01-31 11:56:26,1461614,1815.000,9278.000,-2091.000,-6680.000,2330.000,5916.000,0.000,0.000,0
2026-01-31 11:56:26,1461654,2268.000,9215.000,-2366.000,-9410.000,3130.000,8214.000,0.000,0.000,0
2026-01-31 11:56:26,1461694,2737.000,7596.000,-2673.000,-9935.000,2891.000,10783.000,0.000,0.000,0
2026-01-31 11:56:26,1461736,3346.000,6727.000,-2582.000,-8425.000,1764.000,12769.000,0.000,0.000,0
2026-01-31 11:56:26,1461774,5114.000,7075.000,-1709.000,-7742.000,-245.000,14792.000,0.000,0.000,0
2026-01-31 11:56:26,1461814,6145.000,7701.000,-1603.000,-7698.000,-2705.000,14429.000,0.000,0.000,0
2026-01-31 11:56:26,1461854,5656.000,5029.000,-486.000,-7006.000,-5813.000,12513.000,0.000,0.000,0
2026-01-31 11:56:26,1461894,6245.000,6039.000,-748.000,-2472.000,-8571.000,8633.000,0.000,0.000,0
2026-01-31 11:56:26,1461934,5910.000,6346.000,-723.000,2188.000,-9321.000,5728.000,0.000,0.000,0
2026-01-31 11:56:26,1461974,6322.000,8388.000,-1938.000,2199.000,-9687.000,2534.000,0.000,0.000,0
2026-01-31 11:56:26,1462014,7381.000,8630.000,1617.000,-579.000,-10475.000,694.000,0.000,0.000,0
2026-01-31 11:56:26,1462054,8105.000,7814.000,-737.000,-151.000,-10585.000,-1764.000,0.000,0.000,0
2026-01-31 11:56:26,1462094,9157.000,8241.000,-1351.000,356.000,-8663.000,-3742.000,0.000,0.000,0
2026-01-31 11:56:26,1462134,9469.000,9373.000,-321.000,-2039.000,-6207.000,-5940.000,0.000,0.000,0
2026-01-31 11:56:26,1462174,9019.000,7275.000,-610.000,-3683.000,-4614.000,-7313.000,0.000,0.000,0
2026-01-31 11:56:26,1462214,9504.000,8057.000,-2411.000,-3832.000,-3153.000,-6214.000,0.000,0.000,0
2026-01-31 11:56:26,1462254,6969.000,3001.000,-2628.000,-7143.000,-663.000,-6769.000,0.000,0.000,0
2026-01-31 11:56:26,1462294,3799.000,3066.000,-3145.000,-6454.000,703.000,-6311.000,0.000,0.000,0
2026-01-31 11:56:26,1462334,1868.000,3116.000,-2472.000,-4883.000,424.000,-3911.000,0.000,0.000,0
2026-01-31 11:56:26,1462374,2063.000,5125.000,-2328.000,-5031.000,-1113.000,-1513.000,0.000,0.000,0
2026-01-31 11:56:27,1462414,291.000,4056.000,-525.000,-4358.000,-1407.000,-1750.000,0.000,0.000,0
2026-01-31 11:56:27,1462454,1581.000,5533.000,-762.000,-3259.000,-2118.000,-1786.000,0.000,0.000,0
2026-01-31 11:56:27,1462494,1002.000,4317.000,-1179.000,-2740.000,-1703.000,-1914.000,0.000,0.000,0
2026-01-31 11:56:27,1462534,3488.000,7097.000,365.000,-560.000,-2119.000,-1810.000,0.000,0.000,0
2026-01-31 11:56:27,1462574,4372.000,6921.000,-885.000,-349.000,-1403.000,-1360.000,0.000,0.000,0
2026-01-31 11:56:27,1462614,7019.000,6567.000,-813.000,-1099.000,-1099.000,-586.000,0.000,0.000,0
2026-01-31 11:56:27,1462654,7246.000,7597.000,-975.000,1223.000,1045.000,736.000,0.000,0.000,0
2026-01-31 11:56:27,1462694,7053.000,8669.000,588.000,-607.000,-714.000,2432.000,0.000,0.000,0
2026-01-31 11:56:27,1462734,1654.000,5868.000,-254.000,-1329.000,-2541.000,3398.000,0.000,0.000,0
2026-01-31 11:56:27,1462774,1611.000,9489.000,-745.000,9399.000,-5811.000,2852.000,0.000,0.000,0
2026-01-31 11:56:27,1462814,-6519.000,9595.000,-5020.000,5839.000,-5809.000,3894.000,0.000,0.000,0
2026-01-31 11:56:27,1462854,-5581.000,6387.000,-11947.000,11769.000,-10218.000,4504.000,0.000,0.000,0
2026-01-31 11:56:27,1462894,-8275.000,10615.000,-10910.000,1002.000,-11144.000,6040.000,0.000,0.000,0
2026-01-31 11:56:27,1462934,-3730.000,7445.000,-8211.000,-8815.000,-16036.000,8408.000,0.000,0.000,0
2026-01-31 11:56:27,1462974,2084.000,5515.000,-5483.000,-12533.000,-14544.000,7081.000,0.000,0.000,0
2026-01-31 11:56:27,1463014,4483.000,2241.000,-46.000,-16683.000,-11131.000,7237.000,0.000,0.000,0
2026-01-31 11:56:27,1463054,9195.000,986.000,1491.000,-11367.000,-7126.000,7434.000,0.000,0.000,0
2026-01-31 11:56:27,1463094,6135.000,-3790.000,1486.000,-5574.000,-4533.000,4680.000,0.000,0.000,0
2026-01-31 11:56:27,1463134,6260.000,-5820.000,-5132.000,12216.000,-3500.000,4051.000,0.000,0.000,0
2026-01-31 11:56:27,1463174,10298.000,10197.000,-7747.000,24096.000,-74.000,5181.000,0.000,0.000,0
2026-01-31 11:56:27,1463214,9731.000,7921.000,-7849.000,19569.000,5987.000,980.000,0.000,0.000,0
2026-01-31 11:56:27,1463254,6266.000,1844.000,-7585.000,26935.000,8591.000,-5040.000,0.000,0.000,0
2026-01-31 11:56:27,1463294,7208.000,2710.000,-20580.000,32754.000,6385.000,-11704.000,0.000,0.000,0
2026-01-31 11:56:27,1463334,1341.000,-3293.000,-16581.000,32754.000,-1029.000,-15554.000,0.000,0.000,0
2026-01-31 11:56:27,1463374,4420.000,-1064.000,-7805.000,32754.000,-5407.000,-14690.000,0.000,0.000,0
2026-01-31 11:56:28,1463414,8105.000,-2921.000,7297.000,32754.000,-7042.000,-9893.000,0.000,0.000,0
2026-01-31 11:56:28,1463454,9461.000,1237.000,5288.000,28016.000,-6892.000,-7949.000,0.000,0.000,0
2026-01-31 11:56:28,1463494,7890.000,1163.000,8035.000,22166.000,-6738.000,-10873.000,0.000,0.000,0
2026-01-31 11:56:28,1463534,6702.000,7242.000,9457.000,16770.000,-3570.000,-15053.000,0.000,0.000,0
2026-01-31 11:56:28,1463574,8864.000,647.000,-4603.000,-2249.000,-2678.000,-10552.000,0.000,0.000,0
2026-01-31 11:56:28,1463614,7870.000,6178.000,-3105.000,-7191.000,-1509.000,-7816.000,0.000,0.000,0
2026-01-31 11:56:28,1463654,6769.000,10162.000,-4710.000,-21944.000,-2913.000,-8202.000,0.000,0.000,0
2026-01-31 11:56:28,1463694,10131.000,15841.000,-1233.000,-32735.000,-2554.000,-8333.000,0.000,0.000,0
2026-01-31 11:56:28,1463736,10445.000,14706.000,929.000,32762.000,1942.000,-11146.000,0.000,0.000,0
2026-01-31 11:56:28,1463774,12670.000,1411.000,-1083.000,32762.000,9804.000,-9082.000,0.000,0.000,0
2026-01-31 11:56:28,1463814,10447.000,1925.000,-2368.000,-23915.000,13508.000,-7412.000,0.000,0.000,0
2026-01-31 11:56:28,1463854,6630.000,4102.000,-1923.000,-9270.000,13539.000,-8228.000,0.000,0.000,0
2026-01-31 11:56:28,1463894,326.000,-10514.000,13600.000,-10215.000,9312.000,-14369.000,0.000,0.000,0
2026-01-31 11:56:28,1463934,13074.000,3392.000,5955.000,-2612.000,-2964.000,-14787.000,0.000,0.000,0
2026-01-31 11:56:28,1463974,12402.000,-4094.000,7126.000,-23583.000,3073.000,-13309.000,0.000,0.000,0
2026-01-31 11:56:28,1464014,10737.000,3210.000,15069.000,-7235.000,2126.000,-3339.000,0.000,0.000,0
2026-01-31 11:56:28,1464054,9583.000,1448.000,7633.000,-10452.000,3350.000,-3244.000,0.000,0.000,0
2026-01-31 11:56:28,1464094,5759.000,-4287.000,6961.000,-8934.000,6145.000,-10030.000,0.000,0.000,0
2026-01-31 11:56:28,1464134,958.000,-5563.000,5965.000,-6303.000,4425.000,-9087.000,0.000,0.000,0
2026-01-31 11:56:28,1464174,-2016.000,-7096.000,2641.000,-7320.000,3481.000,-4487.000,0.000,0.000,0
2026-01-31 11:56:28,1464214,-2968.000,-5296.000,3628.000,-3770.000,4480.000,812.000,0.000,0.000,0
2026-01-31 11:56:28,1464254,1760.000,-3867.000,9395.000,102.000,6487.000,7531.000,0.000,0.000,0
2026-01-31 11:56:28,1464294,11484.000,3807.000,2960.000,13949.000,18443.000,8757.000,0.000,0.000,0
2026-01-31 11:56:28,1464334,4457.000,6174.000,2105.000,27324.000,28125.000,-4050.000,0.000,0.000,0
2026-01-31 11:56:28,1464374,3881.000,6929.000,-518.000,29440.000,23594.000,-16919.000,0.000,0.000,0
2026-01-31 11:56:29,1464414,-1409.000,-529.000,-4168.000,22801.000,18368.000,-24891.000,0.000,0.000,0
2026-01-31 11:56:29,1464454,-8566.000,778.000,378.000,29054.000,11446.000,-28400.000,0.000,0.000,0
2026-01-31 11:56:29,1464494,-6859.000,3110.000,2231.000,20622.000,2770.000,-25667.000,0.000,0.000,0
2026-01-31 11:56:29,1464534,-8040.000,2430.000,6971.000,11380.000,-1497.000,-20866.000,0.000,0.000,0
2026-01-31 11:56:29,1464574,-6099.000,955.000,10308.000,4299.000,-3625.000,-13044.000,0.000,0.000,0
2026-01-31 11:56:29,1464614,-9205.000,-4785.000,8702.000,19.000,-3803.000,-7361.000,0.000,0.000,0
2026-01-31 11:56:29,1464654,-3619.000,-744.000,8402.000,-1306.000,-3544.000,-2908.000,0.000,0.000,0
2026-01-31 11:56:29,1464694,-6100.000,-5236.000,5341.000,-3952.000,2729.000,2317.000,0.000,0.000,0
2026-01-31 11:56:29,1464734,-5686.000,-3664.000,3978.000,-140.000,289.000,4617.000,0.000,0.000,0
2026-01-31 11:56:29,1464774,-5693.000,-2325.000,5463.000,-403.000,-30.000,4633.000,0.000,0.000,0
2026-01-31 11:56:29,1464814,-4933.000,-1142.000,5495.000,-5702.000,1245.000,5985.000,0.000,0.000,0
2026-01-31 11:56:29,1464854,-8413.000,-2484.000,-787.000,-19402.000,1397.000,12717.000,0.000,0.000,0
2026-01-31 11:56:29,1464894,-6321.000,-14909.000,2713.000,-16683.000,-1624.000,13123.000,0.000,0.000,0
2026-01-31 11:56:29,1464934,-3685.000,3958.000,5482.000,4186.000,-956.000,8262.000,0.000,0.000,0
2026-01-31 11:56:29,1464974,-4843.000,-5558.000,3191.000,-3183.000,-1944.000,13583.000,0.000,0.000,0
2026-01-31 11:56:29,1465014,-5368.000,-1147.000,-145.000,2725.000,2057.000,17395.000,0.000,0.000,0
2026-01-31 11:56:29,1465054,-8823.000,7817.000,-4023.000,7298.000,4579.000,20361.000,0.000,0.000,0
2026-01-31 11:56:29,1465094,-10690.000,9636.000,1915.000,10305.000,2321.000,19448.000,0.000,0.000,0
2026-01-31 11:56:29,1465134,-19287.000,29157.000,5801.000,17037.000,757.000,3596.000,0.000,0.000,0
2026-01-31 11:56:29,1465174,-14764.000,9423.000,3427.000,-2676.000,-4490.000,-4878.000,0.000,0.000,0
2026-01-31 11:56:29,1465214,-8050.000,3991.000,3516.000,-2471.000,-7608.000,-10038.000,0.000,0.000,0
2026-01-31 11:56:29,1465254,-7561.000,-2165.000,-5088.000,1742.000,-9376.000,-15569.000,0.000,0.000,0
2026-01-31 11:56:29,1465294,-5171.000,1546.000,-3232.000,10211.000,-12181.000,-16359.000,0.000,0.000,0
2026-01-31 11:56:29,1465334,549.000,1248.000,1716.000,2859.000,-14951.000,-10247.000,0.000,0.000,0
2026-01-31 11:56:29,1465374,1051.000,-5490.000,2828.000,91.000,-12065.000,-4459.000,0.000,0.000,0
2026-01-31 11:56:30,1465414,-2724.000,1542.000,2889.000,13133.000,-5975.000,-3563.000,0.000,0.000,0
2026-01-31 11:56:30,1465454,-2632.000,6841.000,5369.000,10151.000,-4756.000,1096.000,0.000,0.000,0
2026-01-31 11:56:30,1465494,-2510.000,5484.000,6396.000,3510.000,1606.000,3950.000,0.000,0.000,0
2026-01-31 11:56:30,1465534,-4837.000,5598.000,4394.000,5226.000,6219.000,4244.000,0.000,0.000,0
2026-01-31 11:56:30,1465574,-3414.000,5828.000,-756.000,11041.000,9816.000,7581.000,0.000,0.000,0
2026-01-31 11:56:30,1465614,822.000,5718.000,-461.000,9185.000,11662.000,10318.000,0.000,0.000,0
2026-01-31 11:56:30,1465654,1194.000,9629.000,-2259.000,6939.000,14207.000,14841.000,0.000,0.000,0
2026-01-31 11:56:30,1465694,598.000,10487.000,1465.000,-4288.000,14799.000,18303.000,0.000,0.000,0
2026-01-31 11:56:30,1465736,801.000,6536.000,-3725.000,-20075.000,8719.000,21426.000,0.000,0.000,0
2026-01-31 11:56:30,1465774,-1515.000,7609.000,-3800.000,-2659.000,4481.000,16878.000,0.000,0.000,0
2026-01-31 11:56:30,1465814,985.000,5045.000,1797.000,2224.000,2470.000,10269.000,0.000,0.000,0
2026-01-31 11:56:30,1465854,-708.000,11294.000,-146.000,12321.000,1676.000,4798.000,0.000,0.000,0
2026-01-31 11:56:30,1465894,-440.000,14810.000,1847.000,8929.000,-455.000,1495.000,0.000,0.000,0
2026-01-31 11:56:30,1465934,275.000,13771.000,3093.000,-750.000,-2075.000,452.000,0.000,0.000,0
2026-01-31 11:56:30,1465974,902.000,9840.000,2741.000,-4823.000,-2731.000,-2117.000,0.000,0.000,0
2026-01-31 11:56:30,1466014,1159.000,12811.000,1217.000,-4177.000,-2009.000,-3239.000,0.000,0.000,0
2026-01-31 11:56:30,1466054,1939.000,13223.000,763.000,-6360.000,-1297.000,-2457.000,0.000,0.000,0
2026-01-31 11:56:30,1466094,2165.000,12754.000,933.000,-7399.000,-785.000,-1674.000,0.000,0.000,0
2026-01-31 11:56:30,1466134,1327.000,11363.000,594.000,-9231.000,-1244.000,-920.000,0.000,0.000,0
2026-01-31 11:56:30,1466174,1346.000,7986.000,624.000,-8442.000,-1749.000,87.000,0.000,0.000,0
2026-01-31 11:56:30,1466214,2244.000,5737.000,1193.000,-6607.000,-2049.000,560.000,0.000,0.000,0
2026-01-31 11:56:30,1466254,1962.000,3557.000,2111.000,-7553.000,-1950.000,358.000,0.000,0.000,0
2026-01-31 11:56:30,1466294,2323.000,3666.000,2210.000,-9538.000,-1985.000,68.000,0.000,0.000,0
2026-01-31 11:56:30,1466334,790.000,1979.000,1701.000,-9915.000,-1203.000,290.000,0.000,0.000,0
2026-01-31 11:56:30,1466374,1945.000,4439.000,5063.000,-5534.000,-1827.000,636.000,0.000,0.000,0
2026-01-31 11:56:31,1466414,2203.000,5035.000,5622.000,-4435.000,-1433.000,468.000,0.000,0.000,0
2026-01-31 11:56:31,1466454,2571.000,6556.000,5727.000,1226.000,-366.000,-174.000,0.000,0.000,0
2026-01-31 11:56:31,1466494,2797.000,8073.000,6604.000,5772.000,808.000,-40.000,0.000,0.000,0
2026-01-31 11:56:31,1466534,2656.000,6961.000,6141.000,4945.000,1769.000,-262.000,0.000,0.000,0
2026-01-31 11:56:31,1466574,2160.000,7316.000,5106.000,8680.000,2304.000,154.000,0.000,0.000,0
2026-01-31 11:56:31,1466614,2149.000,9044.000,5155.000,10999.000,2117.000,-332.000,0.000,0.000,0
2026-01-31 11:56:31,1466654,2936.000,11280.000,6020.000,5862.000,1885.000,-579.000,0.000,0.000,0
2026-01-31 11:56:31,1466694,1781.000,7437.000,4356.000,-1463.000,2516.000,-414.000,0.000,0.000,0
2026-01-31 11:56:31,1466734,-549.000,4847.000,4096.000,962.000,2833.000,-216.000,0.000,0.000,0
2026-01-31 11:56:31,1466774,-559.000,3483.000,4250.000,6658.000,1904.000,-1481.000,0.000,0.000,0
2026-01-31 11:56:31,1466814,-979.000,2803.000,2288.000,11907.000,1496.000,-3351.000,0.000,0.000,0
2026-01-31 11:56:31,1466854,-707.000,6676.000,1728.000,15455.000,1439.000,-5070.000,0.000,0.000,0
2026-01-31 11:56:31,1466894,-1009.000,5156.000,120.000,15107.000,905.000,-5879.000,0.000,0.000,0
2026-01-31 11:56:31,1466934,-1928.000,9017.000,-1345.000,17853.000,2041.000,-6374.000,0.000,0.000,0
2026-01-31 11:56:31,1466974,714.000,9579.000,-4091.000,8582.000,1064.000,-4204.000,0.000,0.000,0
2026-01-31 11:56:31,1467014,-464.000,7460.000,-4683.000,5843.000,1145.000,-2276.000,0.000,0.000,0
2026-01-31 11:56:31,1467054,-436.000,7805.000,-6125.000,4568.000,-36.000,-1116.000,0.000,0.000,0
2026-01-31 11:56:31,1467094,-567.000,7682.000,-6081.000,1988.000,689.000,-728.000,0.000,0.000,0
2026-01-31 11:56:31,1467134,-1486.000,8423.000,-6575.000,350.000,1196.000,-61.000,0.000,0.000,0
2026-01-31 11:56:31,1467174,-2486.000,7642.000,-4135.000,-4373.000,2106.000,1382.000,0.000,0.000,0
2026-01-31 11:56:31,1467214,-1716.000,8007.000,-6399.000,-7114.000,3346.000,2486.000,0.000,0.000,0
2026-01-31 11:56:31,1467254,-1491.000,4729.000,-5900.000,-5920.000,3799.000,4203.000,0.000,0.000,0
2026-01-31 11:56:31,1467294,-1549.000,9298.000,-2587.000,-7222.000,3771.000,5327.000,0.000,0.000,0
2026-01-31 11:56:31,1467334,-146.000,7553.000,-3633.000,-12619.000,3158.000,6293.000,0.000,0.000,0
2026-01-31 11:56:31,1467374,1778.000,7479.000,991.000,-14351.000,2431.000,6624.000,0.000,0.000,0
2026-01-31 11:56:32,1467415,3269.000,6719.000,871.000,-16554.000,1104.000,5076.000,0.000,0.000,0
2026-01-31 11:56:32,1467454,3987.000,7349.000,2752.000,-14160.000,1535.000,4502.000,0.000,0.000,0
2026-01-31 11:56:32,1467494,5118.000,3067.000,3935.000,-12943.000,1855.000,3415.000,0.000,0.000,0
2026-01-31 11:56:32,1467534,2591.000,5433.000,4864.000,-8895.000,2181.000,2374.000,0.000,0.000,0
2026-01-31 11:56:32,1467574,4774.000,4573.000,5052.000,-9095.000,2109.000,3973.000,0.000,0.000,0
2026-01-31 11:56:32,1467614,4553.000,1496.000,5812.000,-4101.000,2509.000,3513.000,0.000,0.000,0
2026-01-31 11:56:32,1467654,3864.000,3978.000,5659.000,-82.000,2239.000,3293.000,0.000,0.000,0
2026-01-31 11:56:32,1467694,6193.000,3568.000,6065.000,2180.000,1620.000,3987.000,0.000,0.000,0
2026-01-31 11:56:32,1467736,5042.000,1813.000,5139.000,3608.000,2062.000,2782.000,0.000,0.000,0
2026-01-31 11:56:32,1467774,3745.000,2379.000,5306.000,9463.000,2251.000,1259.000,0.000,0.000,0
2026-01-31 11:56:32,1467814,3864.000,5701.000,3527.000,13633.000,2538.000,814.000,0.000,0.000,0
2026-01-31 11:56:32,1467854,1605.000,5927.000,2027.000,12966.000,3477.000,52.000,0.000,0.000,0
2026-01-31 11:56:32,1467894,1104.000,6575.000,741.000,13792.000,3450.000,-1987.000,0.000,0.000,0
2026-01-31 11:56:32,1467934,1166.000,6406.000,-1868.000,14442.000,2317.000,-4617.000,0.000,0.000,0
2026-01-31 11:56:32,1467974,-370.000,7564.000,-4768.000,16940.000,1166.000,-6087.000,0.000,0.000,0
2026-01-31 11:56:32,1468014,-961.000,8252.000,-4957.000,14622.000,-1817.000,-6897.000,0.000,0.000,0
2026-01-31 11:56:32,1468054,729.000,8963.000,-3949.000,11927.000,-4567.000,-6055.000,0.000,0.000,0
2026-01-31 11:56:32,1468094,-559.000,7848.000,-4167.000,7986.000,-6517.000,-4038.000,0.000,0.000,0
2026-01-31 11:56:32,1468134,-773.000,8589.000,-4184.000,1957.000,-7771.000,-1233.000,0.000,0.000,0
2026-01-31 11:56:32,1468174,1346.000,5569.000,-4666.000,-1650.000,-7742.000,1327.000,0.000,0.000,0
2026-01-31 11:56:32,1468214,1153.000,8088.000,-4124.000,-1184.000,-7675.000,3406.000,0.000,0.000,0
2026-01-31 11:56:32,1468254,2251.000,5806.000,-3958.000,-264.000,-7190.000,5355.000,0.000,0.000,0
2026-01-31 11:56:32,1468294,1855.000,2541.000,-5930.000,2101.000,-6331.000,6236.000,0.000,0.000,0
2026-01-31 11:56:32,1468334,924.000,7657.000,-3772.000,6323.000,-4974.000,6613.000,0.000,0.000,0
2026-01-31 11:56:32,1468374,212.000,4678.000,-3476.000,3658.000,-4070.000,6812.000,0.000,0.000,0
2026-01-31 11:56:33,1468414,578.000,6285.000,-4963.000,5642.000,-3690.000,5489.000,0.000,0.000,0
2026-01-31 11:56:33,1468454,-110.000,9143.000,-1042.000,4632.000,-3012.000,4008.000,0.000,0.000,0
2026-01-31 11:56:33,1468494,-705.000,5563.000,-3659.000,4459.000,-2524.000,1547.000,0.000,0.000,0
2026-01-31 11:56:33,1468534,-404.000,10721.000,-4223.000,5982.000,-1378.000,31.000,0.000,0.000,0
2026-01-31 11:56:33,1468574,30.000,8506.000,-6302.000,-826.000,-1110.000,-503.000,0.000,0.000,0
2026-01-31 11:56:33,1468614,552.000,6901.000,-6564.000,1295.000,-583.000,-1226.000,0.000,0.000,0
2026-01-31 11:56:33,1468654,655.000,10016.000,-6189.000,1649.000,-809.000,-2140.000,0.000,0.000,0
2026-01-31 11:56:33,1468694,985.000,8295.000,-8020.000,-1745.000,282.000,-2183.000,0.000,0.000,0
2026-01-31 11:56:33,1468734,976.000,6791.000,-6750.000,-255.000,1264.000,-2704.000,0.000,0.000,0
2026-01-31 11:56:33,1468774,1622.000,6113.000,-5203.000,-965.000,77.000,-2212.000,0.000,0.000,0
2026-01-31 11:56:33,1468814,2155.000,5088.000,-4520.000,396.000,452.000,-1769.000,0.000,0.000,0
2026-01-31 11:56:33,1468854,1073.000,3334.000,-4300.000,716.000,1391.000,-1458.000,0.000,0.000,0
2026-01-31 11:56:33,1468894,-39.000,2445.000,-3230.000,2038.000,1594.000,-1425.000,0.000,0.000,0
2026-01-31 11:56:33,1468934,-823.000,4432.000,-3578.000,3512.000,1602.000,-1485.000,0.000,0.000,0
2026-01-31 11:56:33,1468974,-1380.000,2806.000,-2979.000,304.000,1575.000,-1633.000,0.000,0.000,0
2026-01-31 11:56:33,1469014,-2145.000,3321.000,-4597.000,1572.000,1670.000,-1678.000,0.000,0.000,0
2026-01-31 11:56:33,1469054,-2259.000,6118.000,-5103.000,226.000,1168.000,-1117.000,0.000,0.000,0
2026-01-31 11:56:33,1469094,-2529.000,6491.000,-6251.000,500.000,260.000,-496.000,0.000,0.000,0
2026-01-31 11:56:33,1469134,-2012.000,8679.000,-7552.000,341.000,-1236.000,-10.000,0.000,0.000,0
2026-01-31 11:56:33,1469174,-1285.000,8055.000,-6553.000,-2439.000,-2499.000,176.000,0.000,0.000,0
2026-01-31 11:56:33,1469214,-2263.000,7612.000,-8562.000,-1678.000,-2439.000,257.000,0.000,0.000,0
2026-01-31 11:56:33,1469254,-2005.000,7317.000,-8267.000,-3266.000,-2615.000,1341.000,0.000,0.000,0
2026-01-31 11:56:33,1469294,-1879.000,5178.000,-8232.000,-2729.000,-2834.000,2179.000,0.000,0.000,0
2026-01-31 11:56:33,1469334,-1243.000,3462.000,-7422.000,-1438.000,-2071.000,4175.000,0.000,0.000,0
2026-01-31 11:56:33,1469374,-24.000,3812.000,-5256.000,1636.000,-1830.000,4701.000,0.000,0.000,0
2026-01-31 11:56:34,1469415,664.000,4385.000,-4400.000,-148.000,-1765.000,5198.000,0.000,0.000,0
2026-01-31 11:56:34,1469454,990.000,4863.000,-2664.000,-4324.000,-1816.000,4820.000,0.000,0.000,0
2026-01-31 11:56:34,1469494,903.000,6248.000,-3196.000,-7392.000,-1879.000,3451.000,0.000,0.000,0
2026-01-31 11:56:34,1469534,1676.000,6588.000,-2831.000,-10176.000,-2055.000,2033.000,0.000,0.000,0
2026-01-31 11:56:34,1469574,1312.000,8075.000,-1359.000,-10408.000,-1107.000,1233.000,0.000,0.000,0
2026-01-31 11:56:34,1469614,2241.000,9212.000,-2162.000,-18390.000,398.000,2238.000,0.000,0.000,0
2026-01-31 11:56:34,1469654,1813.000,7809.000,-2604.000,-19841.000,1571.000,3197.000,0.000,0.000,0
2026-01-31 11:56:34,1469694,2595.000,5518.000,2170.000,-17004.000,3584.000,4198.000,0.000,0.000,0
2026-01-31 11:56:34,1469736,4283.000,10999.000,3676.000,-11144.000,3638.000,7623.000,0.000,0.000,0
2026-01-31 11:56:34,1469774,3764.000,7321.000,2911.000,-13953.000,2893.000,10655.000,0.000,0.000,0
2026-01-31 11:56:34,1469814,4034.000,4662.000,3670.000,-9950.000,1583.000,8557.000,0.000,0.000,0
2026-01-31 11:56:34,1469854,4218.000,3862.000,3652.000,4350.000,2.000,4291.000,0.000,0.000,0
2026-01-31 11:56:34,1469894,3205.000,5949.000,1613.000,15164.000,-574.000,1648.000,0.000,0.000,0
2026-01-31 11:56:34,1469934,1662.000,7972.000,1327.000,14888.000,-206.000,1105.000,0.000,0.000,0
2026-01-31 11:56:34,1469974,916.000,6115.000,2241.000,6607.000,-25.000,1452.000,0.000,0.000,0
2026-01-31 11:56:34,1470014,740.000,4934.000,2398.000,1321.000,-509.000,1786.000,0.000,0.000,0
2026-01-31 11:56:34,1470054,1152.000,4406.000,2089.000,1047.000,-622.000,1419.000,0.000,0.000,0
2026-01-31 11:56:34,1470094,2817.000,7152.000,3576.000,4335.000,-176.000,864.000,0.000,0.000,0
2026-01-31 11:56:34,1470134,3300.000,9189.000,3629.000,4879.000,281.000,196.000,0.000,0.000,0
2026-01-31 11:56:34,1470174,3306.000,9591.000,4429.000,2016.000,160.000,-805.000,0.000,0.000,0
2026-01-31 11:56:34,1470214,3844.000,9730.000,4143.000,-272.000,-521.000,-727.000,0.000,0.000,0
2026-01-31 11:56:34,1470254,3684.000,10137.000,3830.000,-2004.000,-876.000,-411.000,0.000,0.000,0
2026-01-31 11:56:34,1470294,4087.000,11812.000,3973.000,-4699.000,-1522.000,880.000,0.000,0.000,0
2026-01-31 11:56:34,1470334,4320.000,10037.000,2280.000,-11298.000,-1926.000,2102.000,0.000,0.000,0
2026-01-31 11:56:34,1470374,4595.000,8229.000,2241.000,-16858.000,-1769.000,2334.000,0.000,0.000,0
2026-01-31 11:56:35,1470414,5618.000,7167.000,3665.000,-14377.000,-2408.000,2709.000,0.000,0.000,0
2026-01-31 11:56:35,1470454,5732.000,6050.000,3497.000,-11020.000,-2441.000,1269.000,0.000,0.000,0
2026-01-31 11:56:35,1470494,4652.000,4010.000,2679.000,-9943.000,-2055.000,49.000,0.000,0.000,0
2026-01-31 11:56:35,1470534,2685.000,1915.000,2068.000,-2447.000,-461.000,-3663.000,0.000,0.000,0
2026-01-31 11:56:35,1470574,2534.000,1807.000,2612.000,-419.000,-570.000,-3558.000,0.000,0.000,0
2026-01-31 11:56:35,1470614,3336.000,2895.000,3027.000,-274.000,-679.000,-2311.000,0.000,0.000,0
2026-01-31 11:56:35,1470654,3772.000,4182.000,3160.000,189.000,-352.000,-597.000,0.000,0.000,0
2026-01-31 11:56:35,1470694,5729.000,6169.000,5584.000,-137.000,-564.000,1094.000,0.000,0.000,0
2026-01-31 11:56:35,1470734,7082.000,5357.000,5449.000,-3716.000,-451.000,1996.000,0.000,0.000,0
2026-01-31 11:56:35,1470774,6797.000,3391.000,5459.000,-3314.000,-448.000,2100.000,0.000,0.000,0
2026-01-31 11:56:35,1470814,6982.000,3355.000,6671.000,-623.000,-1571.000,2450.000,0.000,0.000,0
2026-01-31 11:56:35,1470854,7499.000,3972.000,6630.000,-1438.000,-2641.000,3123.000,0.000,0.000,0
2026-01-31 11:56:35,1470894,8752.000,2316.000,4993.000,-5201.000,-2109.000,3003.000,0.000,0.000,0
2026-01-31 11:56:35,1470934,7915.000,1298.000,4052.000,-2062.000,-258.000,2548.000,0.000,0.000,0
2026-01-31 11:56:35,1470974,5424.000,1758.000,4776.000,646.000,1384.000,1996.000,0.000,0.000,0
2026-01-31 11:56:35,1471014,3046.000,896.000,4784.000,798.000,1739.000,1243.000,0.000,0.000,0
2026-01-31 11:56:35,1471054,2475.000,380.000,4687.000,1470.000,1490.000,620.000,0.000,0.000,0
2026-01-31 11:56:35,1471094,2198.000,517.000,4716.000,3878.000,1490.000,-345.000,0.000,0.000,0
2026-01-31 11:56:35,1471134,3012.000,2495.000,5294.000,5972.000,1058.000,-522.000,0.000,0.000,0
2026-01-31 11:56:35,1471174,3575.000,3088.000,5874.000,3713.000,1046.000,-840.000,0.000,0.000,0
2026-01-31 11:56:35,1471214,3914.000,3517.000,6473.000,2251.000,666.000,-1249.000,0.000,0.000,0
2026-01-31 11:56:35,1471254,5729.000,4564.000,7176.000,479.000,-80.000,-1124.000,0.000,0.000,0
2026-01-31 11:56:35,1471294,6427.000,3985.000,7012.000,-670.000,-85.000,-1321.000,0.000,0.000,0
2026-01-31 11:56:35,1471334,7185.000,5724.000,7497.000,2636.000,-611.000,-1136.000,0.000,0.000,0
2026-01-31 11:56:35,1471374,6551.000,7015.000,7077.000,2760.000,-808.000,-1443.000,0.000,0.000,0
2026-01-31 11:56:36,1471415,6005.000,6985.000,6451.000,265.000,-1521.000,-1812.000,0.000,0.000,0
2026-01-31 11:56:36,1471454,5880.000,6628.000,6301.000,-2362.000,-2264.000,-1619.000,0.000,0.000,0
2026-01-31 11:56:36,1471494,5898.000,5551.000,5388.000,-5096.000,-2471.000,-1621.000,0.000,0.000,0
2026-01-31 11:56:36,1471534,4455.000,2122.000,3730.000,-6666.000,-1628.000,-2468.000,0.000,0.000,0
2026-01-31 11:56:36,1471574,3198.000,259.000,2908.000,-3586.000,-987.000,-3454.000,0.000,0.000,0
2026-01-31 11:56:36,1471614,2966.000,1477.000,3652.000,-249.000,-1068.000,-3402.000,0.000,0.000,0
2026-01-31 11:56:36,1471654,3141.000,2673.000,3841.000,-1345.000,-987.000,-967.000,0.000,0.000,0
2026-01-31 11:56:36,1471694,3973.000,3320.000,4876.000,-1468.000,-578.000,383.000,0.000,0.000,0
2026-01-31 11:56:36,1471735,5520.000,4204.000,5679.000,-104.000,-225.000,1044.000,0.000,0.000,0
2026-01-31 11:56:36,1471774,6551.000,4927.000,5659.000,682.000,732.000,1534.000,0.000,0.000,0
2026-01-31 11:56:36,1471814,6496.000,4745.000,6201.000,2025.000,1756.000,1693.000,0.000,0.000,0
2026-01-31 11:56:36,1471854,7785.000,4996.000,6759.000,3972.000,1719.000,1728.000,0.000,0.000,0
2026-01-31 11:56:36,1471894,8596.000,6679.000,6891.000,3976.000,2104.000,2111.000,0.000,0.000,0
2026-01-31 11:56:36,1471934,7879.000,4467.000,5127.000,912.000,3266.000,1551.000,0.000,0.000,0
2026-01-31 11:56:36,1471974,6385.000,2673.000,4194.000,1934.000,3514.000,742.000,0.000,0.000,0
2026-01-31 11:56:36,1472014,4167.000,2426.000,3695.000,4456.000,2892.000,438.000,0.000,0.000,0
2026-01-31 11:56:36,1472054,1673.000,2769.000,3228.000,4438.000,1307.000,160.000,0.000,0.000,0
2026-01-31 11:56:36,1472094,1324.000,3104.000,3482.000,2238.000,832.000,512.000,0.000,0.000,0
2026-01-31 11:56:36,1472134,1441.000,3105.000,3578.000,1440.000,582.000,896.000,0.000,0.000,0
2026-01-31 11:56:36,1472174,1911.000,4093.000,4889.000,2442.000,86.000,711.000,0.000,0.000,0
2026-01-31 11:56:36,1472214,2510.000,5195.000,5512.000,1491.000,-183.000,-34.000,0.000,0.000,0
2026-01-31 11:56:36,1472254,2741.000,5757.000,5897.000,754.000,-381.000,-712.000,0.000,0.000,0
2026-01-31 11:56:36,1472294,3731.000,6778.000,6640.000,-49.000,-855.000,-1424.000,0.000,0.000,0
2026-01-31 11:56:36,1472334,4289.000,6923.000,6649.000,-1041.000,-1144.000,-2165.000,0.000,0.000,0
2026-01-31 11:56:36,1472374,4339.000,6923.000,6775.000,-1018.000,-1459.000,-3117.000,0.000,0.000,0
2026-01-31 11:56:37,1472414,5467.000,8665.000,6638.000,-1567.000,-2627.000,-3392.000,0.000,0.000,0
2026-01-31 11:56:37,1472454,5033.000,7714.000,5470.000,-3723.000,-2560.000,-3270.000,0.000,0.000,0
2026-01-31 11:56:37,1472494,5521.000,7877.000,5482.000,-4711.000,-2944.000,-2094.000,0.000,0.000,0
2026-01-31 11:56:37,1472534,5512.000,6636.000,4194.000,-6230.000,-2709.000,-1377.000,0.000,0.000,0
2026-01-31 11:56:37,1472574,4680.000,3849.000,3118.000,-5410.000,-1948.000,-1921.000,0.000,0.000,0
2026-01-31 11:56:37,1472614,3802.000,2654.000,2676.000,-2510.000,-1611.000,-2780.000,0.000,0.000,0
2026-01-31 11:56:37,1472654,2807.000,2341.000,2240.000,-1049.000,-1478.000,-2940.000,0.000,0.000,0
2026-01-31 11:56:37,1472694,2627.000,2533.000,2332.000,-1037.000,-1525.000,-2088.000,0.000,0.000,0
2026-01-31 11:56:37,1472734,3066.000,2910.000,2883.000,-563.000,-1488.000,-655.000,0.000,0.000,0
2026-01-31 11:56:37,1472774,3687.000,4093.000,3537.000,832.000,-1238.000,594.000,0.000,0.000,0
2026-01-31 11:56:37,1472814,6982.000,7245.000,5380.000,-1189.000,-337.000,2699.000,0.000,0.000,0
2026-01-31 11:56:37,1472854,6265.000,4507.000,5192.000,-945.000,1313.000,2781.000,0.000,0.000,0
2026-01-31 11:56:37,1472894,6496.000,4508.000,5902.000,5391.000,1633.000,2145.000,0.000,0.000,0
2026-01-31 11:56:37,1472934,7256.000,8265.000,6413.000,9094.000,1900.000,2469.000,0.000,0.000,0
2026-01-31 11:56:37,1472974,7118.000,8357.000,6213.000,4270.000,2833.000,2811.000,0.000,0.000,0
2026-01-31 11:56:37,1473014,5573.000,3994.000,4756.000,281.000,3159.000,1892.000,0.000,0.000,0
2026-01-31 11:56:37,1473054,4776.000,2371.000,4035.000,1776.000,2241.000,944.000,0.000,0.000,0
2026-01-31 11:56:37,1473094,4540.000,2990.000,4320.000,2801.000,1353.000,935.000,0.000,0.000,0
2026-01-31 11:56:37,1473134,3906.000,3025.000,3594.000,920.000,1317.000,1713.000,0.000,0.000,0
2026-01-31 11:56:37,1473174,2922.000,2181.000,3575.000,734.000,1922.000,2307.000,0.000,0.000,0
2026-01-31 11:56:37,1473214,2395.000,3336.000,4280.000,4081.000,1816.000,1451.000,0.000,0.000,0
2026-01-31 11:56:37,1473254,2083.000,4659.000,4721.000,3850.000,1135.000,728.000,0.000,0.000,0
2026-01-31 11:56:37,1473294,2202.000,5583.000,5231.000,1637.000,385.000,380.000,0.000,0.000,0
2026-01-31 11:56:37,1473334,2663.000,5677.000,5622.000,-343.000,-253.000,-223.000,0.000,0.000,0
2026-01-31 11:56:37,1473374,3469.000,6294.000,5896.000,-762.000,-641.000,-1176.000,0.000,0.000,0
2026-01-31 11:56:38,1473414,4338.000,6693.000,6013.000,-1300.000,-630.000,-1988.000,0.000,0.000,0
2026-01-31 11:56:38,1473454,4624.000,6848.000,5861.000,-1244.000,-316.000,-2319.000,0.000,0.000,0
2026-01-31 11:56:38,1473494,4953.000,8618.000,6332.000,-688.000,-681.000,-2153.000,0.000,0.000,0
2026-01-31 11:56:38,1473534,5160.000,9097.000,5985.000,-1948.000,-1366.000,-2089.000,0.000,0.000,0
2026-01-31 11:56:38,1473574,4150.000,6484.000,4807.000,-3324.000,-1995.000,-3205.000,0.000,0.000,0
2026-01-31 11:56:38,1473614,4009.000,6490.000,4193.000,-2729.000,-3186.000,-2853.000,0.000,0.000,0
2026-01-31 11:56:38,1473654,3514.000,5662.000,3365.000,-4204.000,-3143.000,-2204.000,0.000,0.000,0
2026-01-31 11:56:38,1473694,2552.000,3907.000,2860.000,-4828.000,-2844.000,-2286.000,0.000,0.000,0
2026-01-31 11:56:38,1473736,2079.000,3643.000,2796.000,-3815.000,-3069.000,-2510.000,0.000,0.000,0
2026-01-31 11:56:38,1473774,2267.000,4574.000,3134.000,-3926.000,-3375.000,-1908.000,0.000,0.000,0
2026-01-31 11:56:38,1473814,3169.000,5239.000,3831.000,-5076.000,-3451.000,-838.000,0.000,0.000,0
2026-01-31 11:56:38,1473854,3995.000,5118.000,4455.000,-4875.000,-2809.000,-292.000,0.000,0.000,0
2026-01-31 11:56:38,1473894,4587.000,5452.000,5327.000,-3117.000,-1978.000,-57.000,0.000,0.000,0
2026-01-31 11:56:38,1473934,5239.000,5456.000,6255.000,-1729.000,-1434.000,32.000,0.000,0.000,0
2026-01-31 11:56:38,1473974,4814.000,3736.000,5687.000,987.000,-494.000,199.000,0.000,0.000,0
2026-01-31 11:56:38,1474014,5493.000,4897.000,6548.000,2933.000,-726.000,864.000,0.000,0.000,0
2026-01-31 11:56:38,1474054,6196.000,5811.000,6999.000,2146.000,-522.000,2087.000,0.000,0.000,0
2026-01-31 11:56:38,1474094,6160.000,6385.000,6612.000,202.000,277.000,2831.000,0.000,0.000,0
2026-01-31 11:56:38,1474134,5771.000,4654.000,5720.000,-2641.000,1142.000,2475.000,0.000,0.000,0
2026-01-31 11:56:38,1474174,5225.000,2221.000,5021.000,-2949.000,1422.000,1010.000,0.000,0.000,0
2026-01-31 11:56:38,1474214,5033.000,1479.000,4514.000,-1022.000,986.000,-364.000,0.000,0.000,0
2026-01-31 11:56:38,1474254,4443.000,2167.000,4567.000,703.000,714.000,-811.000,0.000,0.000,0
2026-01-31 11:56:38,1474294,3621.000,2076.000,4016.000,79.000,910.000,-699.000,0.000,0.000,0
2026-01-31 11:56:38,1474334,2109.000,1484.000,3987.000,299.000,1387.000,-632.000,0.000,0.000,0
2026-01-31 11:56:38,1474374,2541.000,3219.000,5110.000,1237.000,372.000,-834.000,0.000,0.000,0
2026-01-31 11:56:39,1474414,2654.000,3568.000,6054.000,-338.000,42.000,-960.000,0.000,0.000,0
2026-01-31 11:56:39,1474454,4475.000,4325.000,7102.000,-2162.000,-636.000,-1009.000,0.000,0.000,0
2026-01-31 11:56:39,1474494,4657.000,3581.000,7298.000,-3842.000,-104.000,-1666.000,0.000,0.000,0
2026-01-31 11:56:39,1474534,4547.000,3087.000,7796.000,-2363.000,172.000,-2630.000,0.000,0.000,0
2026-01-31 11:56:39,1474574,4777.000,3596.000,7778.000,-1245.000,564.000,-3155.000,0.000,0.000,0
2026-01-31 11:56:39,1474614,4966.000,4622.000,7981.000,-930.000,495.000,-2905.000,0.000,0.000,0
2026-01-31 11:56:39,1474654,5139.000,5600.000,8389.000,-1425.000,-117.000,-2633.000,0.000,0.000,0
2026-01-31 11:56:39,1474694,5157.000,6020.000,7610.000,-2001.000,-1054.000,-2684.000,0.000,0.000,0
2026-01-31 11:56:39,1474734,5469.000,5923.000,6466.000,-2609.000,-1601.000,-2356.000,0.000,0.000,0
2026-01-31 11:56:39,1474774,5964.000,4728.000,5927.000,-4158.000,-1912.000,-1604.000,0.000,0.000,0
2026-01-31 11:56:39,1474814,5322.000,2371.000,4708.000,-3367.000,-1127.000,-1318.000,0.000,0.000,0
2026-01-31 11:56:39,1474854,3719.000,534.000,3914.000,-1188.000,-35.000,-1439.000,0.000,0.000,0
2026-01-31 11:56:39,1474894,1997.000,909.000,4508.000,355.000,204.000,-1301.000,0.000,0.000,0
2026-01-31 11:56:39,1474934,2007.000,696.000,5590.000,-913.000,-270.000,-246.000,0.000,0.000,0
2026-01-31 11:56:39,1474974,1539.000,1654.000,6344.000,-1437.000,-283.000,1168.000,0.000,0.000,0
2026-01-31 11:56:39,1475014,3082.000,3033.000,8934.000,-4162.000,-1134.000,2717.000,0.000,0.000,0
2026-01-31 11:56:39,1475054,5444.000,1613.000,10271.000,-6695.000,-1049.000,3514.000,0.000,0.000,0
2026-01-31 11:56:39,1475094,6672.000,669.000,9785.000,-4544.000,214.000,4112.000,0.000,0.000,0
2026-01-31 11:56:39,1475134,5273.000,1963.000,9498.000,-1843.000,2703.000,3831.000,0.000,0.000,0
2026-01-31 11:56:39,1475174,4595.000,1688.000,9071.000,-2892.000,2022.000,4485.000,0.000,0.000,0
2026-01-31 11:56:39,1475214,4993.000,192.000,8242.000,-2822.000,373.000,3873.000,0.000,0.000,0
2026-01-31 11:56:39,1475254,5062.000,145.000,6042.000,-2589.000,-333.000,3150.000,0.000,0.000,0
2026-01-31 11:56:39,1475294,4716.000,-401.000,5401.000,-3133.000,-920.000,3462.000,0.000,0.000,0
2026-01-31 11:56:39,1475334,5126.000,-1079.000,5556.000,-3117.000,-1656.000,3140.000,0.000,0.000,0
2026-01-31 11:56:39,1475374,5396.000,-5704.000,2946.000,-2060.000,-2087.000,2900.000,0.000,0.000,0
2026-01-31 11:56:40,1475415,3173.000,-2883.000,4194.000,6972.000,-1516.000,2264.000,0.000,0.000,0
2026-01-31 11:56:40,1475454,3839.000,2080.000,6224.000,2492.000,-1353.000,4838.000,0.000,0.000,0
2026-01-31 11:56:40,1475494,3404.000,299.000,5995.000,-4963.000,-968.000,6918.000,0.000,0.000,0
2026-01-31 11:56:40,1475534,3034.000,-596.000,6325.000,-3030.000,-1546.000,3330.000,0.000,0.000,0
2026-01-31 11:56:40,1475574,4109.000,-2035.000,6860.000,-574.000,-543.000,916.000,0.000,0.000,0
2026-01-31 11:56:40,1475614,4506.000,-2781.000,7545.000,-396.000,110.000,36.000,0.000,0.000,0
2026-01-31 11:56:40,1475654,5310.000,-4143.000,6399.000,-1635.000,734.000,702.000,0.000,0.000,0
2026-01-31 11:56:40,1475694,3489.000,-3968.000,6622.000,-2823.000,1136.000,1170.000,0.000,0.000,0
2026-01-31 11:56:40,1475735,4523.000,-3102.000,6931.000,-3986.000,-611.000,1864.000,0.000,0.000,0
2026-01-31 11:56:40,1475774,4804.000,-4648.000,6877.000,-3223.000,-1674.000,1483.000,0.000,0.000,0
2026-01-31 11:56:40,1475814,4494.000,-2574.000,5675.000,-2096.000,-2220.000,944.000,0.000,0.000,0
2026-01-31 11:56:40,1475854,6102.000,-2531.000,5991.000,-2820.000,-3200.000,1735.000,0.000,0.000,0
2026-01-31 11:56:40,1475894,4937.000,-2396.000,4620.000,-2849.000,-3710.000,929.000,0.000,0.000,0
2026-01-31 11:56:40,1475934,5482.000,-2403.000,4342.000,-5705.000,-4367.000,12.000,0.000,0.000,0
2026-01-31 11:56:40,1475974,3833.000,-5045.000,1548.000,-9370.000,-2660.000,-428.000,0.000,0.000,0
2026-01-31 11:56:40,1476014,4236.000,-5536.000,449.000,-11355.000,-2803.000,708.000,0.000,0.000,0
2026-01-31 11:56:40,1476054,1752.000,-7406.000,1233.000,-9170.000,-2484.000,116.000,0.000,0.000,0
2026-01-31 11:56:40,1476094,4487.000,-4354.000,2587.000,-7869.000,-4840.000,1227.000,0.000,0.000,0
2026-01-31 11:56:40,1476134,4874.000,-9789.000,926.000,-4509.000,-4883.000,970.000,0.000,0.000,0
2026-01-31 11:56:40,1476174,5716.000,-8669.000,-2464.000,6199.000,-4441.000,120.000,0.000,0.000,0
2026-01-31 11:56:40,1476214,6385.000,-10228.000,870.000,6539.000,-2802.000,-589.000,0.000,0.000,0
2026-01-31 11:56:40,1476254,6011.000,-13547.000,-248.000,17698.000,-1683.000,-1707.000,0.000,0.000,0
2026-01-31 11:56:40,1476294,8370.000,-8205.000,-3333.000,27342.000,-1822.000,-2183.000,0.000,0.000,0
2026-01-31 11:56:40,1476334,9387.000,1673.000,1008.000,32754.000,2259.000,-10253.000,0.000,0.000,0
2026-01-31 11:56:40,1476374,7587.000,7615.000,322.000,32754.000,6491.000,-11847.000,0.000,0.000,0
2026-01-31 11:56:41,1476414,4847.000,10328.000,-310.000,32754.000,8226.000,-14927.000,0.000,0.000,0
2026-01-31 11:56:41,1476454,1759.000,11971.000,-1808.000,31286.000,8072.000,-15036.000,0.000,0.000,0
2026-01-31 11:56:41,1476494,-2297.000,9574.000,-82.000,22352.000,5668.000,-13228.000,0.000,0.000,0
2026-01-31 11:56:41,1476534,-1132.000,6701.000,-2957.000,10873.000,-197.000,-11150.000,0.000,0.000,0
2026-01-31 11:56:41,1476574,-1176.000,5336.000,-4203.000,5646.000,-2971.000,-8593.000,0.000,0.000,0
2026-01-31 11:56:41,1476614,-1658.000,2926.000,-3174.000,2577.000,-4627.000,-6618.000,0.000,0.000,0
2026-01-31 11:56:41,1476654,-1869.000,4037.000,-2657.000,-241.000,-5429.000,-4505.000,0.000,0.000,0
2026-01-31 11:56:41,1476694,-2145.000,4712.000,-1345.000,-4336.000,-6191.000,-1152.000,0.000,0.000,0
2026-01-31 11:56:41,1476734,-2494.000,5955.000,-47.000,-7571.000,-6766.000,827.000,0.000,0.000,0
2026-01-31 11:56:41,1476774,-2893.000,10217.000,-124.000,-10508.000,-7405.000,3593.000,0.000,0.000,0
2026-01-31 11:56:41,1476814,-2924.000,5111.000,-2139.000,-21772.000,-8004.000,5352.000,0.000,0.000,0
2026-01-31 11:56:41,1476854,-1090.000,9250.000,2942.000,-16138.000,-9985.000,5826.000,0.000,0.000,0
2026-01-31 11:56:41,1476894,499.000,7579.000,429.000,-19517.000,-11678.000,6038.000,0.000,0.000,0
2026-01-31 11:56:41,1476934,3502.000,6334.000,4592.000,-15634.000,-12457.000,2506.000,0.000,0.000,0
2026-01-31 11:56:41,1476974,4163.000,6670.000,6097.000,-15753.000,-12989.000,971.000,0.000,0.000,0
2026-01-31 11:56:41,1477014,4253.000,4606.000,4629.000,-14669.000,-12110.000,-1701.000,0.000,0.000,0
2026-01-31 11:56:41,1477054,4681.000,-389.000,6082.000,-15320.000,-10393.000,-3988.000,0.000,0.000,0
2026-01-31 11:56:41,1477094,4844.000,-123.000,5906.000,-10272.000,-7591.000,-6386.000,0.000,0.000,0
2026-01-31 11:56:41,1477134,4518.000,-2963.000,6071.000,-8514.000,-5243.000,-5950.000,0.000,0.000,0
2026-01-31 11:56:41,1477174,3962.000,-2541.000,5766.000,-2197.000,-2904.000,-3811.000,0.000,0.000,0
2026-01-31 11:56:41,1477214,4388.000,-1400.000,7923.000,-1041.000,-1854.000,-714.000,0.000,0.000,0
2026-01-31 11:56:41,1477254,5502.000,-1355.000,8436.000,-1618.000,-1391.000,1629.000,0.000,0.000,0
2026-01-31 11:56:41,1477294,7065.000,527.000,7744.000,-776.000,-810.000,3601.000,0.000,0.000,0
2026-01-31 11:56:41,1477334,7246.000,-1495.000,7746.000,-654.000,278.000,3551.000,0.000,0.000,0
2026-01-31 11:56:41,1477375,7539.000,-1321.000,8098.000,2915.000,-280.000,2913.000,0.000,0.000,0
2026-01-31 11:56:42,1477414,8220.000,1308.000,8849.000,3762.000,-1066.000,4385.000,0.000,0.000,0
2026-01-31 11:56:42,1477454,6626.000,-74.000,6566.000,773.000,-155.000,4420.000,0.000,0.000,0
2026-01-31 11:56:42,1477494,5936.000,-629.000,5278.000,1644.000,-64.000,2664.000,0.000,0.000,0
2026-01-31 11:56:42,1477534,4950.000,-413.000,4593.000,2092.000,-310.000,1690.000,0.000,0.000,0
2026-01-31 11:56:42,1477574,4395.000,-1361.000,3712.000,1900.000,-919.000,1277.000,0.000,0.000,0
2026-01-31 11:56:42,1477614,3835.000,-681.000,3822.000,1480.000,-1043.000,1105.000,0.000,0.000,0
2026-01-31 11:56:42,1477654,4347.000,-510.000,4834.000,707.000,-1251.000,1410.000,0.000,0.000,0
2026-01-31 11:56:42,1477694,4431.000,-402.000,4673.000,-395.000,-1020.000,917.000,0.000,0.000,0
2026-01-31 11:56:42,1477736,4362.000,-1370.000,5349.000,-548.000,-889.000,-145.000,0.000,0.000,0
2026-01-31 11:56:42,1477774,5448.000,-950.000,6443.000,-930.000,-1211.000,-1376.000,0.000,0.000,0
2026-01-31 11:56:42,1477814,6291.000,-1372.000,7056.000,-2670.000,-1434.000,-1639.000,0.000,0.000,0
2026-01-31 11:56:42,1477854,7428.000,-2698.000,6849.000,-4845.000,-1262.000,-1344.000,0.000,0.000,0
2026-01-31 11:56:42,1477894,7519.000,-3126.000,6013.000,-3463.000,-736.000,-1182.000,0.000,0.000,0
2026-01-31 11:56:42,1477934,6723.000,-1292.000,6441.000,-2205.000,-772.000,-546.000,0.000,0.000,0
2026-01-31 11:56:42,1477974,8025.000,-255.000,7961.000,-4183.000,-2672.000,330.000,0.000,0.000,0
2026-01-31 11:56:42,1478014,6905.000,-590.000,5472.000,-4429.000,-3164.000,-19.000,0.000,0.000,0
2026-01-31 11:56:42,1478054,6936.000,-293.000,3676.000,-3973.000,-2938.000,-374.000,0.000,0.000,0
2026-01-31 11:56:42,1478094,7454.000,-1396.000,3542.000,-1954.000,-3056.000,-328.000,0.000,0.000,0
2026-01-31 11:56:42,1478134,7496.000,-478.000,3241.000,2238.000,-3215.000,-89.000,0.000,0.000,0
2026-01-31 11:56:42,1478174,6936.000,202.000,2907.000,2704.000,-2860.000,15.000,0.000,0.000,0
2026-01-31 11:56:42,1478214,5147.000,-940.000,2025.000,946.000,-2155.000,-693.000,0.000,0.000,0
2026-01-31 11:56:42,1478254,5349.000,-1778.000,2265.000,-544.000,-2465.000,-942.000,0.000,0.000,0
2026-01-31 11:56:42,1478294,6008.000,-1687.000,2111.000,-126.000,-2693.000,-504.000,0.000,0.000,0
2026-01-31 11:56:42,1478334,6758.000,-1909.000,2151.000,623.000,-3020.000,104.000,0.000,0.000,0
2026-01-31 11:56:42,1478374,8285.000,-2501.000,2297.000,1481.000,-3711.000,458.000,0.000,0.000,0
2026-01-31 11:56:43,1478414,9105.000,-1806.000,2354.000,3369.000,-3899.000,627.000,0.000,0.000,0
2026-01-31 11:56:43,1478454,9634.000,-1463.000,1643.000,3707.000,-3953.000,786.000,0.000,0.000,0
2026-01-31 11:56:43,1478494,11797.000,-1626.000,1998.000,2906.000,-4752.000,727.000,0.000,0.000,0
2026-01-31 11:56:43,1478534,12854.000,-1237.000,2377.000,3309.000,-5012.000,872.000,0.000,0.000,0
2026-01-31 11:56:43,1478574,9685.000,-949.000,2123.000,2424.000,-3668.000,1044.000,0.000,0.000,0
2026-01-31 11:56:43,1478614,8409.000,-2830.000,-1349.000,1638.000,-1132.000,956.000,0.000,0.000,0
2026-01-31 11:56:43,1478654,7565.000,-948.000,-459.000,5470.000,145.000,724.000,0.000,0.000,0
2026-01-31 11:56:43,1478694,6577.000,-1146.000,1292.000,5525.000,317.000,-3.000,0.000,0.000,0
2026-01-31 11:56:43,1478734,5053.000,-2540.000,1702.000,4090.000,-284.000,-351.000,0.000,0.000,0
2026-01-31 11:56:43,1478774,5025.000,-1096.000,1208.000,5219.000,-1186.000,424.000,0.000,0.000,0
2026-01-31 11:56:43,1478814,5695.000,-1767.000,1180.000,4349.000,-808.000,909.000,0.000,0.000,0
2026-01-31 11:56:43,1478854,6763.000,-2617.000,620.000,6191.000,-122.000,-165.000,0.000,0.000,0
2026-01-31 11:56:43,1478894,7625.000,-1166.000,1436.000,8439.000,206.000,-1588.000,0.000,0.000,0
2026-01-31 11:56:43,1478934,8118.000,-2577.000,3493.000,6826.000,487.000,-2841.000,0.000,0.000,0
2026-01-31 11:56:43,1478974,9377.000,-2059.000,2283.000,8676.000,689.000,-2886.000,0.000,0.000,0
2026-01-31 11:56:43,1479014,10854.000,793.000,2129.000,12865.000,1940.000,-3213.000,0.000,0.000,0
2026-01-31 11:56:43,1479054,11969.000,-76.000,955.000,15074.000,3389.000,-6134.000,0.000,0.000,0
2026-01-31 11:56:43,1479094,11042.000,2939.000,1389.000,17833.000,4326.000,-9232.000,0.000,0.000,0
2026-01-31 11:56:43,1479134,9841.000,6312.000,337.000,16964.000,3933.000,-10615.000,0.000,0.000,0
2026-01-31 11:56:43,1479174,8885.000,7363.000,592.000,10424.000,3325.000,-9113.000,0.000,0.000,0
2026-01-31 11:56:43,1479214,6188.000,5385.000,355.000,6767.000,2706.000,-7244.000,0.000,0.000,0
2026-01-31 11:56:43,1479254,3736.000,4116.000,506.000,5858.000,936.000,-5990.000,0.000,0.000,0
2026-01-31 11:56:43,1479294,2866.000,3531.000,558.000,4620.000,-981.000,-4948.000,0.000,0.000,0
2026-01-31 11:56:43,1479334,2558.000,3717.000,661.000,1285.000,-2054.000,-3559.000,0.000,0.000,0
2026-01-31 11:56:43,1479374,2953.000,2823.000,128.000,-2000.000,-2516.000,-1892.000,0.000,0.000,0
2026-01-31 11:56:44,1479415,4108.000,3942.000,-104.000,-2669.000,-2044.000,1234.000,0.000,0.000,0
2026-01-31 11:56:44,1479454,5598.000,5096.000,384.000,-3965.000,-1396.000,3324.000,0.000,0.000,0
2026-01-31 11:56:44,1479494,7045.000,5251.000,730.000,-6527.000,-895.000,4917.000,0.000,0.000,0
2026-01-31 11:56:44,1479534,7483.000,3635.000,846.000,-8654.000,-616.000,5995.000,0.000,0.000,0
2026-01-31 11:56:44,1479574,7377.000,1894.000,927.000,-7780.000,-954.000,6810.000,0.000,0.000,0
2026-01-31 11:56:44,1479614,10738.000,2223.000,1915.000,-2497.000,-1917.000,7869.000,0.000,0.000,0
2026-01-31 11:56:44,1479654,11380.000,3984.000,2021.000,6480.000,-879.000,8152.000,0.000,0.000,0
2026-01-31 11:56:44,1479694,9223.000,4085.000,1726.000,3647.000,263.000,6542.000,0.000,0.000,0
2026-01-31 11:56:44,1479736,8892.000,763.000,378.000,-253.000,-55.000,4289.000,0.000,0.000,0
2026-01-31 11:56:44,1479774,6829.000,537.000,399.000,3425.000,1064.000,1777.000,0.000,0.000,0
2026-01-31 11:56:44,1479814,5729.000,794.000,1211.000,7766.000,941.000,883.000,0.000,0.000,0
2026-01-31 11:56:44,1479854,5252.000,1027.000,749.000,9368.000,930.000,281.000,0.000,0.000,0
2026-01-31 11:56:44,1479894,4848.000,1243.000,110.000,10174.000,1824.000,0.000,0.000,0.000,0
2026-01-31 11:56:44,1479934,5076.000,2092.000,606.000,10080.000,1596.000,73.000,0.000,0.000,0
2026-01-31 11:56:44,1479974,6179.000,3056.000,1495.000,9173.000,158.000,626.000,0.000,0.000,0
2026-01-31 11:56:44,1480014,6819.000,2759.000,2201.000,7151.000,-1683.000,1349.000,0.000,0.000,0
2026-01-31 11:56:44,1480054,8126.000,3256.000,1885.000,5049.000,-3207.000,1889.000,0.000,0.000,0
2026-01-31 11:56:44,1480094,9701.000,3111.000,1155.000,2894.000,-3189.000,2198.000,0.000,0.000,0
2026-01-31 11:56:44,1480134,11220.000,3037.000,-10.000,2523.000,-1850.000,2148.000,0.000,0.000,0
2026-01-31 11:56:44,1480174,12034.000,3205.000,1913.000,2587.000,-693.000,1513.000,0.000,0.000,0
2026-01-31 11:56:44,1480214,10027.000,3723.000,1916.000,-346.000,-466.000,789.000,0.000,0.000,0
2026-01-31 11:56:44,1480254,11401.000,2999.000,-560.000,-4568.000,24.000,469.000,0.000,0.000,0
2026-01-31 11:56:44,1480294,11111.000,2111.000,-1036.000,-6262.000,2249.000,444.000,0.000,0.000,0
2026-01-31 11:56:44,1480334,8401.000,1588.000,-631.000,-5645.000,3800.000,275.000,0.000,0.000,0
2026-01-31 11:56:44,1480374,6412.000,1164.000,162.000,-4917.000,3550.000,-1108.000,0.000,0.000,0
2026-01-31 11:56:45,1480414,5422.000,788.000,455.000,-4496.000,2767.000,-3008.000,0.000,0.000,0
2026-01-31 11:56:45,1480454,5385.000,766.000,-162.000,-3788.000,2487.000,-4090.000,0.000,0.000,0
2026-01-31 11:56:45,1480494,5345.000,704.000,-814.000,-2666.000,2831.000,-4005.000,0.000,0.000,0
2026-01-31 11:56:45,1480534,5989.000,739.000,-514.000,-1323.000,2821.000,-3121.000,0.000,0.000,0
2026-01-31 11:56:45,1480574,6862.000,871.000,-166.000,-167.000,1445.000,-1059.000,0.000,0.000,0
2026-01-31 11:56:45,1480614,8009.000,1548.000,287.000,70.000,24.000,1251.000,0.000,0.000,0
2026-01-31 11:56:45,1480654,8588.000,1162.000,-218.000,253.000,-1324.000,3514.000,0.000,0.000,0
2026-01-31 11:56:45,1480694,10395.000,790.000,-215.000,1349.000,-2494.000,5079.000,0.000,0.000,0
2026-01-31 11:56:45,1480734,10983.000,1095.000,450.000,3360.000,-3128.000,6255.000,0.000,0.000,0
2026-01-31 11:56:45,1480774,9936.000,2001.000,2944.000,4925.000,-3852.000,6227.000,0.000,0.000,0
2026-01-31 11:56:45,1480814,9295.000,1351.000,1709.000,1885.000,-3920.000,4140.000,0.000,0.000,0
2026-01-31 11:56:45,1480854,9450.000,2166.000,805.000,-50.000,-1877.000,1341.000,0.000,0.000,0
2026-01-31 11:56:45,1480894,7368.000,46.000,1152.000,-525.000,337.000,-987.000,0.000,0.000,0
2026-01-31 11:56:45,1480934,5285.000,221.000,1789.000,3863.000,1292.000,-3014.000,0.000,0.000,0
2026-01-31 11:56:45,1480974,4685.000,1050.000,1329.000,5324.000,950.000,-2947.000,0.000,0.000,0
2026-01-31 11:56:45,1481014,4939.000,1561.000,756.000,4507.000,541.000,-2066.000,0.000,0.000,0
2026-01-31 11:56:45,1481054,5703.000,2022.000,1652.000,2120.000,-66.000,-833.000,0.000,0.000,0
2026-01-31 11:56:45,1481094,6788.000,1449.000,2105.000,-962.000,-1124.000,129.000,0.000,0.000,0
2026-01-31 11:56:45,1481134,8543.000,1239.000,544.000,-1476.000,-1880.000,856.000,0.000,0.000,0
2026-01-31 11:56:45,1481174,10049.000,1634.000,855.000,-838.000,-1559.000,1630.000,0.000,0.000,0
2026-01-31 11:56:45,1481214,11177.000,1741.000,262.000,-23.000,-1418.000,1569.000,0.000,0.000,0
2026-01-31 11:56:45,1481254,13044.000,2004.000,701.000,402.000,-1177.000,929.000,0.000,0.000,0
2026-01-31 11:56:45,1481294,11457.000,2315.000,1957.000,-658.000,-891.000,135.000,0.000,0.000,0
2026-01-31 11:56:45,1481334,10909.000,2401.000,-448.000,-4208.000,43.000,-499.000,0.000,0.000,0
2026-01-31 11:56:45,1481374,9802.000,1845.000,-837.000,-5298.000,2095.000,34.000,0.000,0.000,0
2026-01-31 11:56:46,1481414,6736.000,1655.000,-391.000,-4751.000,3075.000,350.000,0.000,0.000,0
2026-01-31 11:56:46,1481455,5328.000,1248.000,223.000,-4977.000,2402.000,-365.000,0.000,0.000,0
2026-01-31 11:56:46,1481494,4702.000,1572.000,216.000,-5153.000,1476.000,-1686.000,0.000,0.000,0
2026-01-31 11:56:46,1481534,5305.000,1521.000,-546.000,-5894.000,1327.000,-2040.000,0.000,0.000,0
2026-01-31 11:56:46,1481574,5872.000,1029.000,-1149.000,-5579.000,1848.000,-1696.000,0.000,0.000,0
2026-01-31 11:56:46,1481614,6546.000,807.000,-1244.000,-3709.000,2238.000,-1410.000,0.000,0.000,0
2026-01-31 11:56:46,1481654,8010.000,594.000,-1309.000,-581.000,1553.000,-548.000,0.000,0.000,0
2026-01-31 11:56:46,1481694,9210.000,1827.000,-687.000,1596.000,811.000,470.000,0.000,0.000,0
2026-01-31 11:56:46,1481735,9129.000,460.000,-496.000,1621.000,-174.000,577.000,0.000,0.000,0
2026-01-31 11:56:46,1481774,10878.000,-625.000,-618.000,2485.000,-1163.000,-1.000,0.000,0.000,0
2026-01-31 11:56:46,1481814,10096.000,789.000,532.000,6072.000,-1467.000,672.000,0.000,0.000,0
2026-01-31 11:56:46,1481854,8391.000,1688.000,2998.000,3993.000,-2308.000,1703.000,0.000,0.000,0
2026-01-31 11:56:46,1481894,9786.000,1000.000,2520.000,-2055.000,-2810.000,1851.000,0.000,0.000,0
2026-01-31 11:56:46,1481934,7977.000,-238.000,1287.000,-4301.000,-1583.000,1038.000,0.000,0.000,0
2026-01-31 11:56:46,1481974,6465.000,-1067.000,1215.000,-1444.000,-609.000,297.000,0.000,0.000,0
2026-01-31 11:56:46,1482014,4990.000,-621.000,1024.000,2182.000,295.000,-428.000,0.000,0.000,0
2026-01-31 11:56:46,1482054,4470.000,161.000,414.000,4459.000,579.000,-518.000,0.000,0.000,0
2026-01-31 11:56:46,1482094,5862.000,1383.000,702.000,4824.000,-81.000,-136.000,0.000,0.000,0
2026-01-31 11:56:46,1482134,6457.000,1661.000,1011.000,3109.000,-856.000,351.000,0.000,0.000,0
2026-01-31 11:56:46,1482174,7656.000,1585.000,1410.000,2014.000,-1978.000,671.000,0.000,0.000,0
2026-01-31 11:56:46,1482214,9646.000,2239.000,1452.000,2010.000,-2509.000,756.000,0.000,0.000,0
2026-01-31 11:56:46,1482254,10149.000,2449.000,1406.000,1214.000,-1928.000,710.000,0.000,0.000,0
2026-01-31 11:56:46,1482294,12079.000,3011.000,461.000,1632.000,-1250.000,363.000,0.000,0.000,0
2026-01-31 11:56:46,1482334,11598.000,3656.000,2016.000,1339.000,-535.000,294.000,0.000,0.000,0
2026-01-31 11:56:46,1482374,9226.000,3806.000,1858.000,-1091.000,24.000,-521.000,0.000,0.000,0
2026-01-31 11:56:47,1482414,11209.000,4051.000,-79.000,-3011.000,822.000,-1657.000,0.000,0.000,0
2026-01-31 11:56:47,1482454,11882.000,2215.000,-1317.000,-6466.000,3150.000,-2212.000,0.000,0.000,0
2026-01-31 11:56:47,1482494,8151.000,1381.000,-198.000,-4177.000,4138.000,-3952.000,0.000,0.000,0
2026-01-31 11:56:47,1482534,6527.000,1204.000,352.000,-3727.000,3215.000,-5753.000,0.000,0.000,0
2026-01-31 11:56:47,1482574,5658.000,1330.000,-17.000,-4289.000,2818.000,-6592.000,0.000,0.000,0
2026-01-31 11:56:47,1482614,5301.000,742.000,-697.000,-5452.000,2956.000,-6164.000,0.000,0.000,0
2026-01-31 11:56:47,1482654,5064.000,-1.000,-913.000,-4595.000,2992.000,-4738.000,0.000,0.000,0
2026-01-31 11:56:47,1482694,5149.000,-56.000,-948.000,-1960.000,2360.000,-2854.000,0.000,0.000,0
2026-01-31 11:56:47,1482734,6225.000,520.000,-416.000,796.000,1070.000,-532.000,0.000,0.000,0
2026-01-31 11:56:47,1482774,7981.000,1319.000,-72.000,1774.000,-326.000,2377.000,0.000,0.000,0
2026-01-31 11:56:47,1482814,8320.000,1037.000,344.000,1287.000,-1562.000,4781.000,0.000,0.000,0
2026-01-31 11:56:47,1482854,10744.000,319.000,53.000,1883.000,-3055.000,6594.000,0.000,0.000,0
2026-01-31 11:56:47,1482894,12841.000,1560.000,1000.000,5663.000,-3960.000,9193.000,0.000,0.000,0
2026-01-31 11:56:47,1482934,10175.000,2036.000,1812.000,5882.000,-3272.000,9245.000,0.000,0.000,0
2026-01-31 11:56:47,1482974,10184.000,2714.000,1682.000,5214.000,-3012.000,7161.000,0.000,0.000,0
2026-01-31 11:56:47,1483014,8267.000,2455.000,1647.000,1468.000,-1639.000,3834.000,0.000,0.000,0
2026-01-31 11:56:47,1483054,6755.000,904.000,1573.000,1022.000,-868.000,613.000,0.000,0.000,0
2026-01-31 11:56:47,1483094,5330.000,1209.000,1306.000,3111.000,-105.000,-1142.000,0.000,0.000,0
2026-01-31 11:56:47,1483134,4911.000,1847.000,702.000,4722.000,177.000,-1706.000,0.000,0.000,0
2026-01-31 11:56:47,1483174,5216.000,1854.000,756.000,3126.000,309.000,-1344.000,0.000,0.000,0
2026-01-31 11:56:47,1483214,5838.000,1939.000,1417.000,2069.000,-527.000,-508.000,0.000,0.000,0
2026-01-31 11:56:47,1483254,7408.000,1973.000,1833.000,-1427.000,-2082.000,783.000,0.000,0.000,0
2026-01-31 11:56:47,1483294,8202.000,1256.000,1659.000,-1795.000,-2314.000,241.000,0.000,0.000,0
2026-01-31 11:56:47,1483334,9743.000,1577.000,926.000,694.000,-1585.000,-742.000,0.000,0.000,0
2026-01-31 11:56:47,1483374,10560.000,2718.000,689.000,2213.000,-513.000,-1757.000,0.000,0.000,0
2026-01-31 11:56:48,1483414,11795.000,3343.000,1207.000,2055.000,-86.000,-2808.000,0.000,0.000,0
2026-01-31 11:56:48,1483455,11431.000,5981.000,1439.000,620.000,-572.000,-4024.000,0.000,0.000,0
2026-01-31 11:56:48,1483494,10574.000,8534.000,-3.000,-5608.000,-39.000,-4901.000,0.000,0.000,0
2026-01-31 11:56:48,1483534,12503.000,6378.000,-1757.000,-14227.000,1565.000,-6022.000,0.000,0.000,0
2026-01-31 11:56:48,1483574,11186.000,6019.000,-1837.000,-15411.000,3029.000,-6537.000,0.000,0.000,0
2026-01-31 11:56:48,1483614,9427.000,6622.000,-2763.000,-15834.000,1907.000,-7990.000,0.000,0.000,0
2026-01-31 11:56:48,1483654,7907.000,6080.000,-2373.000,-15851.000,734.000,-11552.000,0.000,0.000,0
2026-01-31 11:56:48,1483694,6549.000,4713.000,-1875.000,-13347.000,1369.000,-12604.000,0.000,0.000,0
2026-01-31 11:56:48,1483736,5779.000,4204.000,-269.000,-9521.000,1390.000,-12966.000,0.000,0.000,0
2026-01-31 11:56:48,1483774,5232.000,2778.000,-1048.000,-6945.000,1039.000,-13273.000,0.000,0.000,0
2026-01-31 11:56:48,1483814,4796.000,2287.000,-304.000,1757.000,391.000,-12847.000,0.000,0.000,0
2026-01-31 11:56:48,1483854,5763.000,3146.000,1889.000,4633.000,-2101.000,-11987.000,0.000,0.000,0
2026-01-31 11:56:48,1483894,5634.000,4338.000,1924.000,6306.000,-3031.000,-8647.000,0.000,0.000,0
2026-01-31 11:56:48,1483934,6088.000,5633.000,2330.000,3060.000,-2712.000,-5856.000,0.000,0.000,0
2026-01-31 11:56:48,1483974,3965.000,3207.000,4667.000,4492.000,-321.000,-2357.000,0.000,0.000,0
2026-01-31 11:56:48,1484014,3838.000,8655.000,2981.000,9650.000,529.000,236.000,0.000,0.000,0
2026-01-31 11:56:48,1484054,1970.000,9446.000,684.000,12891.000,1430.000,-1553.000,0.000,0.000,0
2026-01-31 11:56:48,1484094,1650.000,8865.000,-2853.000,11213.000,1272.000,-712.000,0.000,0.000,0
2026-01-31 11:56:48,1484134,1484.000,6626.000,-2564.000,8672.000,559.000,-1405.000,0.000,0.000,0
2026-01-31 11:56:48,1484174,532.000,6940.000,-1725.000,8387.000,347.000,-2402.000,0.000,0.000,0
2026-01-31 11:56:48,1484214,-249.000,6472.000,-908.000,4376.000,253.000,-2219.000,0.000,0.000,0
2026-01-31 11:56:48,1484254,1462.000,5760.000,1341.000,588.000,-637.000,-1889.000,0.000,0.000,0
2026-01-31 11:56:48,1484294,1341.000,3837.000,-154.000,-921.000,844.000,-1655.000,0.000,0.000,0
2026-01-31 11:56:48,1484334,322.000,6496.000,-3405.000,1514.000,1018.000,-2144.000,0.000,0.000,0
2026-01-31 11:56:48,1484374,79.000,6841.000,-2319.000,1298.000,-136.000,-1484.000,0.000,0.000,0
2026-01-31 11:56:49,1484414,923.000,9258.000,-2385.000,2072.000,125.000,-835.000,0.000,0.000,0
2026-01-31 11:56:49,1484454,-1982.000,8584.000,-5754.000,2363.000,-691.000,-687.000,0.000,0.000,0
2026-01-31 11:56:49,1484494,1231.000,9328.000,-2976.000,2672.000,-2260.000,-95.000,0.000,0.000,0
2026-01-31 11:56:49,1484534,-74.000,11421.000,-6800.000,4692.000,-319.000,-843.000,0.000,0.000,0
2026-01-31 11:56:49,1484574,-3164.000,9909.000,-6901.000,704.000,-940.000,52.000,0.000,0.000,0
2026-01-31 11:56:49,1484614,-4460.000,5534.000,-7515.000,-1102.000,-2358.000,709.000,0.000,0.000,0
2026-01-31 11:56:49,1484654,-543.000,3989.000,-4152.000,685.000,-2399.000,382.000,0.000,0.000,0
2026-01-31 11:56:49,1484694,94.000,4880.000,-4613.000,1824.000,-1013.000,471.000,0.000,0.000,0
2026-01-31 11:56:49,1484734,348.000,5501.000,-2806.000,800.000,-394.000,50.000,0.000,0.000,0
2026-01-31 11:56:49,1484774,-145.000,5229.000,-1167.000,1048.000,320.000,81.000,0.000,0.000,0
2026-01-31 11:56:49,1484814,-740.000,4543.000,-3222.000,-929.000,1236.000,398.000,0.000,0.000,0
2026-01-31 11:56:49,1484854,-1671.000,5512.000,-2599.000,865.000,1016.000,-35.000,0.000,0.000,0
2026-01-31 11:56:49,1484894,-955.000,6410.000,-4006.000,595.000,716.000,336.000,0.000,0.000,0
2026-01-31 11:56:49,1484934,166.000,8522.000,-4479.000,-107.000,1297.000,643.000,0.000,0.000,0
2026-01-31 11:56:49,1484974,-728.000,8813.000,-5587.000,-3345.000,1836.000,819.000,0.000,0.000,0
2026-01-31 11:56:49,1485014,-1993.000,6511.000,-4037.000,-2458.000,2814.000,819.000,0.000,0.000,0
2026-01-31 11:56:49,1485054,207.000,11206.000,-5939.000,-654.000,2588.000,873.000,0.000,0.000,0
2026-01-31 11:56:49,1485094,1518.000,9429.000,-3495.000,-2891.000,4633.000,1132.000,0.000,0.000,0
2026-01-31 11:56:49,1485134,2356.000,9690.000,-2629.000,-7159.000,5449.000,2139.000,0.000,0.000,0
2026-01-31 11:56:49,1485174,2493.000,4462.000,-4818.000,-16075.000,6722.000,2675.000,0.000,0.000,0
2026-01-31 11:56:49,1485214,3240.000,11447.000,-1705.000,595.000,4940.000,1424.000,0.000,0.000,0
2026-01-31 11:56:49,1485254,762.000,4074.000,-1156.000,-23.000,3607.000,541.000,0.000,0.000,0
2026-01-31 11:56:49,1485294,993.000,4161.000,-1213.000,1350.000,3778.000,1547.000,0.000,0.000,0
2026-01-31 11:56:49,1485334,111.000,-1354.000,2175.000,-1366.000,4522.000,3562.000,0.000,0.000,0
2026-01-31 11:56:49,1485374,3391.000,5660.000,-1464.000,1186.000,3339.000,4224.000,0.000,0.000,0
2026-01-31 11:56:50,1485415,3563.000,5698.000,1809.000,2391.000,1788.000,3620.000,0.000,0.000,0
2026-01-31 11:56:50,1485454,4556.000,3942.000,874.000,-4649.000,4717.000,4434.000,0.000,0.000,0
2026-01-31 11:56:50,1485494,7665.000,10343.000,702.000,1832.000,4452.000,4168.000,0.000,0.000,0
2026-01-31 11:56:50,1485534,5941.000,11456.000,-6383.000,3563.000,-1907.000,790.000,0.000,0.000,0
2026-01-31 11:56:50,1485574,4635.000,5649.000,-1743.000,-5052.000,-1175.000,199.000,0.000,0.000,0
2026-01-31 11:56:50,1485614,5905.000,9248.000,-723.000,4598.000,-2139.000,-11.000,0.000,0.000,0
2026-01-31 11:56:50,1485654,4926.000,10120.000,-2522.000,3455.000,-719.000,442.000,0.000,0.000,0
2026-01-31 11:56:50,1485694,5169.000,5937.000,-369.000,-3701.000,1983.000,2760.000,0.000,0.000,0
2026-01-31 11:56:50,1485735,7533.000,5033.000,-214.000,-3545.000,3250.000,4972.000,0.000,0.000,0
2026-01-31 11:56:50,1485774,6080.000,7718.000,-2782.000,-887.000,807.000,3782.000,0.000,0.000,0
2026-01-31 11:56:50,1485814,4495.000,8447.000,-2079.000,-1342.000,-2014.000,1264.000,0.000,0.000,0
2026-01-31 11:56:50,1485854,3259.000,6376.000,36.000,-3643.000,-2077.000,-2252.000,0.000,0.000,0
2026-01-31 11:56:50,1485894,1900.000,4068.000,1152.000,-4588.000,-350.000,-2600.000,0.000,0.000,0
2026-01-31 11:56:50,1485934,3701.000,5285.000,463.000,-1508.000,1857.000,-3660.000,0.000,0.000,0
2026-01-31 11:56:50,1485974,2252.000,6631.000,3058.000,-734.000,4872.000,-2323.000,0.000,0.000,0
2026-01-31 11:56:50,1486014,3792.000,7235.000,1943.000,3421.000,3573.000,-1146.000,0.000,0.000,0
2026-01-31 11:56:50,1486054,4669.000,8326.000,109.000,7325.000,2312.000,-1515.000,0.000,0.000,0
2026-01-31 11:56:50,1486094,3688.000,8541.000,486.000,9652.000,1857.000,-1138.000,0.000,0.000,0
2026-01-31 11:56:50,1486134,4274.000,7931.000,-1890.000,9432.000,-33.000,-810.000,0.000,0.000,0
2026-01-31 11:56:50,1486174,4659.000,9027.000,-3506.000,7367.000,-56.000,-195.000,0.000,0.000,0
2026-01-31 11:56:50,1486214,4017.000,7894.000,-2310.000,4401.000,-560.000,609.000,0.000,0.000,0
2026-01-31 11:56:50,1486254,3690.000,7174.000,-5153.000,3532.000,-1415.000,-795.000,0.000,0.000,0
2026-01-31 11:56:50,1486294,2490.000,5382.000,-2942.000,1531.000,203.000,-752.000,0.000,0.000,0
2026-01-31 11:56:50,1486334,3097.000,5068.000,-2179.000,3461.000,244.000,-897.000,0.000,0.000,0
2026-01-31 11:56:50,1486374,1798.000,4207.000,-1957.000,1782.000,1149.000,-195.000,0.000,0.000,0
2026-01-31 11:56:51,1486414,2429.000,2692.000,-1622.000,1831.000,401.000,-590.000,0.000,0.000,0
2026-01-31 11:56:51,1486454,3633.000,6629.000,-1322.000,5206.000,404.000,-1256.000,0.000,0.000,0
2026-01-31 11:56:51,1486494,2278.000,3665.000,-2624.000,1909.000,743.000,-1675.000,0.000,0.000,0
2026-01-31 11:56:51,1486534,2044.000,9457.000,-3395.000,3896.000,792.000,-1368.000,0.000,0.000,0
2026-01-31 11:56:51,1486574,1643.000,5801.000,-4291.000,272.000,279.000,-339.000,0.000,0.000,0
2026-01-31 11:56:51,1486614,2686.000,7443.000,-3164.000,2124.000,278.000,-228.000,0.000,0.000,0
2026-01-31 11:56:51,1486654,3520.000,10764.000,-4134.000,1429.000,564.000,-644.000,0.000,0.000,0
2026-01-31 11:56:51,1486694,3678.000,8888.000,-4147.000,-3292.000,1089.000,2.000,0.000,0.000,0
2026-01-31 11:56:51,1486734,3289.000,10418.000,-5411.000,-2150.000,1797.000,1392.000,0.000,0.000,0
2026-01-31 11:56:51,1486774,4213.000,9664.000,-4691.000,-6125.000,2190.000,1442.000,0.000,0.000,0
2026-01-31 11:56:51,1486814,5905.000,7387.000,-3245.000,-9510.000,3034.000,2163.000,0.000,0.000,0
2026-01-31 11:56:51,1486854,6142.000,6633.000,-1999.000,-8471.000,3828.000,2424.000,0.000,0.000,0
2026-01-31 11:56:51,1486894,5383.000,6555.000,-466.000,-6874.000,3916.000,2736.000,0.000,0.000,0
2026-01-31 11:56:51,1486934,4289.000,5883.000,583.000,-6658.000,3501.000,1668.000,0.000,0.000,0
2026-01-31 11:56:51,1486974,4108.000,5636.000,-66.000,-6327.000,3457.000,451.000,0.000,0.000,0
2026-01-31 11:56:51,1487014,4271.000,4259.000,326.000,-5135.000,3661.000,-354.000,0.000,0.000,0
2026-01-31 11:56:51,1487054,4023.000,3988.000,1157.000,-3812.000,3277.000,-1030.000,0.000,0.000,0
2026-01-31 11:56:51,1487094,5014.000,5513.000,537.000,-1881.000,2997.000,-521.000,0.000,0.000,0
2026-01-31 11:56:51,1487134,4715.000,5666.000,2001.000,-2550.000,3458.000,4.000,0.000,0.000,0
2026-01-31 11:56:51,1487174,4972.000,6134.000,2886.000,-1801.000,2809.000,-118.000,0.000,0.000,0
