datetime_local,uptime_ms,acc_x,acc_y,acc_z,gyro_x,gyro_y,gyro_z,speed_mps,turn_rate_deg_s,gps_valid
2026-01-31 12:40:16,4091974,782.000,-1859.000,7055.000,1795.000,927.000,852.000,0.000,0.000,0
2026-01-31 12:40:16,4092014,582.000,-867.000,7081.000,1781.000,632.000,523.000,0.000,0.000,0
2026-01-31 12:40:16,4092055,243.000,-1552.000,7080.000,471.000,927.000,1461.000,0.000,0.000,0
2026-01-31 12:40:16,4092094,804.000,-2088.000,7078.000,255.000,674.000,1696.000,0.000,0.000,0
2026-01-31 12:40:16,4092134,419.000,-1502.000,7414.000,158.000,671.000,1907.000,0.000,0.000,0
2026-01-31 12:40:16,4092174,116.000,-2484.000,7688.000,-848.000,484.000,1699.000,0.000,0.000,0
2026-01-31 12:40:16,4092214,-349.000,-1877.000,8255.000,373.000,429.000,1463.000,0.000,0.000,0
2026-01-31 12:40:16,4092254,-765.000,-1360.000,9341.000,-555.000,88.000,970.000,0.000,0.000,0
2026-01-31 12:40:16,4092294,-349.000,-2846.000,9201.000,-1290.000,-213.000,371.000,0.000,0.000,0
2026-01-31 12:40:16,4092334,-274.000,-2809.000,9796.000,613.000,78.000,223.000,0.000,0.000,0
2026-01-31 12:40:16,4092374,-768.000,-1615.000,10319.000,2248.000,267.000,387.000,0.000,0.000,0
2026-01-31 12:40:17,4092414,-1056.000,-1228.000,8934.000,2789.000,339.000,425.000,0.000,0.000,0
2026-01-31 12:40:17,4092454,-2158.000,-630.000,7602.000,4470.000,727.000,31.000,0.000,0.000,0
2026-01-31 12:40:17,4092494,-2943.000,1910.000,7318.000,5527.000,429.000,-251.000,0.000,0.000,0
2026-01-31 12:40:17,4092534,-1366.000,2258.000,6669.000,3969.000,-921.000,-801.000,0.000,0.000,0
2026-01-31 12:40:17,4092574,48.000,1443.000,8168.000,5153.000,-841.000,-623.000,0.000,0.000,0
2026-01-31 12:40:17,4092614,125.000,2326.000,8506.000,3917.000,417.000,-2499.000,0.000,0.000,0
2026-01-31 12:40:17,4092654,766.000,-399.000,6910.000,2538.000,770.000,-25.000,0.000,0.000,0
2026-01-31 12:40:17,4092694,-1558.000,485.000,6784.000,5534.000,745.000,418.000,0.000,0.000,0
2026-01-31 12:40:17,4092734,-1405.000,1856.000,7593.000,5038.000,90.000,1105.000,0.000,0.000,0
2026-01-31 12:40:17,4092774,-2535.000,2784.000,7284.000,2321.000,-737.000,609.000,0.000,0.000,0
2026-01-31 12:40:17,4092814,-17.000,4211.000,7634.000,-2310.000,-2248.000,984.000,0.000,0.000,0
2026-01-31 12:40:17,4092854,-2698.000,-290.000,9034.000,1950.000,2999.000,2080.000,0.000,0.000,0
2026-01-31 12:40:17,4092894,-1417.000,3108.000,9937.000,5526.000,-141.000,-1871.000,0.000,0.000,0
2026-01-31 12:40:17,4092934,-1081.000,4532.000,9705.000,3418.000,-2109.000,-4231.000,0.000,0.000,0
2026-01-31 12:40:17,4092974,289.000,4846.000,9858.000,2415.000,-4153.000,-3193.000,0.000,0.000,0
2026-01-31 12:40:17,4093014,1468.000,6045.000,8050.000,929.000,-5306.000,-2168.000,0.000,0.000,0
2026-01-31 12:40:17,4093054,1999.000,4752.000,6717.000,-731.000,-2174.000,-1083.000,0.000,0.000,0
2026-01-31 12:40:17,4093094,959.000,3829.000,5395.000,2503.000,1070.000,-597.000,0.000,0.000,0
2026-01-31 12:40:17,4093134,648.000,5599.000,6368.000,3033.000,2462.000,-602.000,0.000,0.000,0
2026-01-31 12:40:17,4093174,645.000,5008.000,5687.000,1888.000,1217.000,632.000,0.000,0.000,0
2026-01-31 12:40:17,4093214,613.000,3900.000,5028.000,1407.000,1673.000,793.000,0.000,0.000,0
2026-01-31 12:40:17,4093254,-372.000,3029.000,5620.000,1339.000,1739.000,1102.000,0.000,0.000,0
2026-01-31 12:40:17,4093294,-46.000,2729.000,6080.000,616.000,2026.000,927.000,0.000,0.000,0
2026-01-31 12:40:17,4093334,-285.000,2973.000,6205.000,236.000,1816.000,1042.000,0.000,0.000,0
2026-01-31 12:40:17,4093374,347.000,5058.000,8004.000,2060.000,970.000,719.000,0.000,0.000,0
2026-01-31 12:40:18,4093414,-588.000,414.000,333.000,-663.000,8157.000,12673.000,0.000,0.000,0
2026-01-31 12:40:18,4093454,-861.000,8817.000,9389.000,10817.000,-1809.000,-1826.000,0.000,0.000,0
2026-01-31 12:40:18,4093494,1169.000,10345.000,7308.000,3515.000,5203.000,194.000,0.000,0.000,0
2026-01-31 12:40:18,4093534,-5701.000,7039.000,7893.000,-1067.000,2312.000,1266.000,0.000,0.000,0
2026-01-31 12:40:18,4093574,-3215.000,6513.000,7072.000,-1396.000,1211.000,1414.000,0.000,0.000,0
2026-01-31 12:40:18,4093614,-2184.000,6752.000,6222.000,-1274.000,-32.000,1290.000,0.000,0.000,0
2026-01-31 12:40:18,4093654,-2235.000,4772.000,4759.000,-2183.000,85.000,1300.000,0.000,0.000,0
2026-01-31 12:40:18,4093696,-1531.000,3836.000,3746.000,-686.000,-393.000,2722.000,0.000,0.000,0
2026-01-31 12:40:18,4093735,22.000,6417.000,4968.000,1153.000,-1047.000,5074.000,0.000,0.000,0
2026-01-31 12:40:18,4093774,1012.000,5504.000,4673.000,-2914.000,-1547.000,5780.000,0.000,0.000,0
2026-01-31 12:40:18,4093814,1915.000,3928.000,4353.000,-4412.000,-1953.000,6045.000,0.000,0.000,0
2026-01-31 12:40:18,4093854,2156.000,4078.000,4549.000,-2916.000,-1979.000,6112.000,0.000,0.000,0
2026-01-31 12:40:18,4093894,2724.000,4578.000,4534.000,-2774.000,-2256.000,5902.000,0.000,0.000,0
2026-01-31 12:40:18,4093934,2418.000,3269.000,4483.000,-971.000,-2522.000,5763.000,0.000,0.000,0
2026-01-31 12:40:18,4093975,3323.000,4343.000,5172.000,2193.000,-3321.000,5896.000,0.000,0.000,0
2026-01-31 12:40:18,4094014,4455.000,6085.000,5909.000,4971.000,-3643.000,6360.000,0.000,0.000,0
2026-01-31 12:40:18,4094054,5622.000,7089.000,5443.000,6850.000,-3458.000,6848.000,0.000,0.000,0
2026-01-31 12:40:18,4094094,6148.000,7521.000,5730.000,6267.000,-3074.000,6938.000,0.000,0.000,0
2026-01-31 12:40:18,4094134,7329.000,8932.000,6109.000,8439.000,-2684.000,6905.000,0.000,0.000,0
2026-01-31 12:40:18,4094174,6952.000,7279.000,5413.000,7961.000,-1334.000,5279.000,0.000,0.000,0
2026-01-31 12:40:18,4094214,5539.000,5783.000,4524.000,8311.000,343.000,2655.000,0.000,0.000,0
2026-01-31 12:40:18,4094254,4923.000,5301.000,3625.000,5932.000,1027.000,1169.000,0.000,0.000,0
2026-01-31 12:40:18,4094294,5115.000,4870.000,2907.000,3848.000,1864.000,789.000,0.000,0.000,0
2026-01-31 12:40:18,4094334,4851.000,4100.000,2024.000,3086.000,2354.000,707.000,0.000,0.000,0
2026-01-31 12:40:18,4094374,4097.000,3713.000,1797.000,2083.000,1883.000,524.000,0.000,0.000,0
2026-01-31 12:40:19,4094414,3659.000,2525.000,973.000,1904.000,994.000,616.000,0.000,0.000,0
2026-01-31 12:40:19,4094454,4193.000,3094.000,1567.000,3061.000,-860.000,1120.000,0.000,0.000,0
2026-01-31 12:40:19,4094494,5448.000,3590.000,2343.000,857.000,-2308.000,1771.000,0.000,0.000,0
2026-01-31 12:40:19,4094534,6365.000,3768.000,2584.000,261.000,-3530.000,2361.000,0.000,0.000,0
2026-01-31 12:40:19,4094574,7169.000,4435.000,3690.000,1227.000,-3926.000,1894.000,0.000,0.000,0
2026-01-31 12:40:19,4094614,7185.000,6604.000,1726.000,1768.000,-4393.000,1291.000,0.000,0.000,0
2026-01-31 12:40:19,4094654,8544.000,7363.000,1773.000,-751.000,-6149.000,125.000,0.000,0.000,0
2026-01-31 12:40:19,4094694,8279.000,5883.000,-676.000,-1485.000,-6133.000,-769.000,0.000,0.000,0
2026-01-31 12:40:19,4094734,9381.000,8408.000,699.000,-855.000,-7519.000,-2831.000,0.000,0.000,0
2026-01-31 12:40:19,4094774,9345.000,8798.000,-624.000,-1073.000,-6994.000,-4160.000,0.000,0.000,0
2026-01-31 12:40:19,4094814,7894.000,7151.000,-1836.000,-3060.000,-6661.000,-5993.000,0.000,0.000,0
2026-01-31 12:40:19,4094854,6572.000,8709.000,-1391.000,-1261.000,-6035.000,-6862.000,0.000,0.000,0
2026-01-31 12:40:19,4094894,3879.000,8072.000,-1041.000,-3295.000,-4699.000,-7370.000,0.000,0.000,0
2026-01-31 12:40:19,4094934,1634.000,5112.000,-709.000,-948.000,-2529.000,-8097.000,0.000,0.000,0
2026-01-31 12:40:19,4094974,1803.000,2979.000,125.000,-2647.000,-1838.000,-7201.000,0.000,0.000,0
2026-01-31 12:40:19,4095014,1968.000,-443.000,-494.000,-3975.000,-1708.000,-6060.000,0.000,0.000,0
2026-01-31 12:40:19,4095054,1971.000,4432.000,43.000,-497.000,-209.000,-3806.000,0.000,0.000,0
2026-01-31 12:40:19,4095094,3558.000,4163.000,865.000,-2720.000,-866.000,-1339.000,0.000,0.000,0
2026-01-31 12:40:19,4095134,3345.000,7007.000,778.000,-668.000,-1321.000,296.000,0.000,0.000,0
2026-01-31 12:40:19,4095174,1293.000,8524.000,4765.000,-4034.000,234.000,1409.000,0.000,0.000,0
2026-01-31 12:40:19,4095214,-1314.000,9329.000,1917.000,-2564.000,1736.000,206.000,0.000,0.000,0
2026-01-31 12:40:19,4095254,2019.000,9635.000,1838.000,-751.000,1251.000,-1359.000,0.000,0.000,0
2026-01-31 12:40:19,4095294,2892.000,9307.000,-1996.000,-1728.000,-33.000,-1353.000,0.000,0.000,0
2026-01-31 12:40:19,4095334,7320.000,7460.000,-2005.000,198.000,-1864.000,939.000,0.000,0.000,0
2026-01-31 12:40:19,4095374,6731.000,9789.000,204.000,554.000,-477.000,1022.000,0.000,0.000,0
2026-01-31 12:40:20,4095414,4112.000,8181.000,-2080.000,-2760.000,-659.000,2323.000,0.000,0.000,0
2026-01-31 12:40:20,4095454,3092.000,5696.000,549.000,-1104.000,-1837.000,2534.000,0.000,0.000,0
2026-01-31 12:40:20,4095494,1914.000,7362.000,-624.000,-121.000,-3761.000,1763.000,0.000,0.000,0
2026-01-31 12:40:20,4095534,-58.000,3625.000,-1341.000,2689.000,-4776.000,1420.000,0.000,0.000,0
2026-01-31 12:40:20,4095574,-5500.000,1296.000,-4076.000,22115.000,-1173.000,3136.000,0.000,0.000,0
2026-01-31 12:40:20,4095614,-11574.000,7730.000,-6868.000,10262.000,-4184.000,1999.000,0.000,0.000,0
2026-01-31 12:40:20,4095656,-1377.000,11857.000,-7240.000,4901.000,-13438.000,6545.000,0.000,0.000,0
2026-01-31 12:40:20,4095694,1570.000,9556.000,-1795.000,-19227.000,-15162.000,4390.000,0.000,0.000,0
2026-01-31 12:40:20,4095734,12589.000,-3089.000,2232.000,-21695.000,-14636.000,10542.000,0.000,0.000,0
2026-01-31 12:40:20,4095774,15220.000,-6304.000,3812.000,-8650.000,-7624.000,7447.000,0.000,0.000,0
2026-01-31 12:40:20,4095814,12073.000,5495.000,-121.000,14449.000,-28.000,8667.000,0.000,0.000,0
2026-01-31 12:40:20,4095854,13182.000,5339.000,-5391.000,15524.000,1583.000,7730.000,0.000,0.000,0
2026-01-31 12:40:20,4095894,8439.000,3461.000,-12052.000,19262.000,3700.000,3589.000,0.000,0.000,0
2026-01-31 12:40:20,4095934,8789.000,8621.000,-13370.000,26734.000,3613.000,-51.000,0.000,0.000,0
2026-01-31 12:40:20,4095976,3999.000,-905.000,-17085.000,32754.000,5249.000,-5758.000,0.000,0.000,0
2026-01-31 12:40:20,4096014,5163.000,4264.000,-13334.000,32754.000,4746.000,-6520.000,0.000,0.000,0
2026-01-31 12:40:20,4096054,6789.000,-6578.000,-4392.000,32754.000,1497.000,368.000,0.000,0.000,0
2026-01-31 12:40:20,4096094,7127.000,-1714.000,1604.000,32754.000,-495.000,-86.000,0.000,0.000,0
2026-01-31 12:40:20,4096134,4561.000,-1614.000,1922.000,32359.000,-331.000,-838.000,0.000,0.000,0
2026-01-31 12:40:20,4096174,4952.000,76.000,3660.000,26307.000,-703.000,-2596.000,0.000,0.000,0
2026-01-31 12:40:20,4096214,1395.000,755.000,-2275.000,22008.000,-1639.000,-4567.000,0.000,0.000,0
2026-01-31 12:40:20,4096254,5516.000,1163.000,3635.000,15545.000,-2513.000,-6469.000,0.000,0.000,0
2026-01-31 12:40:20,4096294,6730.000,2888.000,-4940.000,8045.000,-4540.000,-7012.000,0.000,0.000,0
2026-01-31 12:40:20,4096334,6357.000,2164.000,-279.000,-855.000,-10419.000,-8185.000,0.000,0.000,0
2026-01-31 12:40:20,4096374,13645.000,1693.000,-2213.000,-7351.000,-11928.000,-8526.000,0.000,0.000,0
2026-01-31 12:40:21,4096414,7384.000,7747.000,188.000,-19153.000,-11722.000,-9232.000,0.000,0.000,0
2026-01-31 12:40:21,4096454,13282.000,6835.000,3768.000,32762.000,-12208.000,-12391.000,0.000,0.000,0
2026-01-31 12:40:21,4096494,9561.000,-4019.000,-2688.000,-32763.000,-7670.000,-9483.000,0.000,0.000,0
2026-01-31 12:40:21,4096534,7817.000,-9857.000,-8235.000,-17860.000,-4966.000,-2339.000,0.000,0.000,0
2026-01-31 12:40:21,4096574,10758.000,-5755.000,-4076.000,1880.000,-6362.000,5634.000,0.000,0.000,0
2026-01-31 12:40:21,4096614,13074.000,2053.000,-4090.000,-5676.000,-17498.000,12128.000,0.000,0.000,0
2026-01-31 12:40:21,4096654,11427.000,-6929.000,29.000,-23728.000,-17087.000,5722.000,0.000,0.000,0
2026-01-31 12:40:21,4096694,18833.000,-18504.000,-868.000,11623.000,-14969.000,11463.000,0.000,0.000,0
2026-01-31 12:40:21,4096734,9725.000,818.000,8228.000,31836.000,-1296.000,11724.000,0.000,0.000,0
2026-01-31 12:40:21,4096774,15188.000,11167.000,-3506.000,32754.000,4480.000,8438.000,0.000,0.000,0
2026-01-31 12:40:21,4096814,2033.000,6911.000,-14071.000,32754.000,11857.000,-3569.000,0.000,0.000,0
2026-01-31 12:40:21,4096854,2720.000,15070.000,-13594.000,32593.000,-3387.000,-3350.000,0.000,0.000,0
2026-01-31 12:40:21,4096894,5915.000,-1899.000,-10102.000,8972.000,-11450.000,-4931.000,0.000,0.000,0
2026-01-31 12:40:21,4096934,12709.000,5440.000,-2675.000,6842.000,-14781.000,-249.000,0.000,0.000,0
2026-01-31 12:40:21,4096974,6709.000,6479.000,-982.000,-14587.000,-15620.000,389.000,0.000,0.000,0
2026-01-31 12:40:21,4097014,16546.000,-2892.000,7294.000,-19321.000,-11762.000,-335.000,0.000,0.000,0
2026-01-31 12:40:21,4097054,12384.000,-2177.000,7155.000,-29968.000,-9018.000,9317.000,0.000,0.000,0
2026-01-31 12:40:21,4097094,13112.000,6027.000,6827.000,32762.000,-13447.000,12509.000,0.000,0.000,0
2026-01-31 12:40:21,4097134,10181.000,-9696.000,-17537.000,32762.000,-13242.000,13907.000,0.000,0.000,0
2026-01-31 12:40:21,4097174,7531.000,-18998.000,-316.000,32762.000,-16283.000,7715.000,0.000,0.000,0
2026-01-31 12:40:21,4097214,11649.000,8240.000,-5859.000,-8898.000,-15684.000,9444.000,0.000,0.000,0
2026-01-31 12:40:21,4097254,4209.000,5444.000,-8838.000,-32754.000,-16566.000,-918.000,0.000,0.000,0
2026-01-31 12:40:21,4097294,7888.000,-8533.000,-5452.000,-32702.000,-16421.000,-2467.000,0.000,0.000,0
2026-01-31 12:40:21,4097334,1081.000,-4356.000,-4422.000,5622.000,-3590.000,-365.000,0.000,0.000,0
2026-01-31 12:40:21,4097374,4075.000,-931.000,-2069.000,693.000,-5441.000,-191.000,0.000,0.000,0
2026-01-31 12:40:22,4097414,2963.000,-5097.000,143.000,6218.000,-3428.000,3285.000,0.000,0.000,0
2026-01-31 12:40:22,4097454,7910.000,5954.000,-2712.000,21072.000,-288.000,4722.000,0.000,0.000,0
2026-01-31 12:40:22,4097494,1350.000,-2965.000,-11056.000,27855.000,1566.000,1369.000,0.000,0.000,0
2026-01-31 12:40:22,4097534,8755.000,-985.000,-20974.000,32754.000,4581.000,-4803.000,0.000,0.000,0
2026-01-31 12:40:22,4097574,5200.000,-4172.000,-12147.000,32754.000,4672.000,-2528.000,0.000,0.000,0
2026-01-31 12:40:22,4097616,9040.000,-6784.000,1123.000,32754.000,-2062.000,-1270.000,0.000,0.000,0
2026-01-31 12:40:22,4097656,5224.000,-875.000,-2132.000,26003.000,-2235.000,-1263.000,0.000,0.000,0
2026-01-31 12:40:22,4097694,6500.000,10082.000,-1055.000,26498.000,-6451.000,-5512.000,0.000,0.000,0
2026-01-31 12:40:22,4097734,5740.000,12154.000,527.000,12314.000,-11245.000,-7933.000,0.000,0.000,0
2026-01-31 12:40:22,4097774,14165.000,18573.000,-1100.000,1324.000,-17242.000,-11125.000,0.000,0.000,0
2026-01-31 12:40:22,4097814,18155.000,8983.000,10120.000,-21681.000,-17032.000,-13977.000,0.000,0.000,0
2026-01-31 12:40:22,4097854,14210.000,8551.000,-5490.000,-32667.000,-9604.000,-13853.000,0.000,0.000,0
2026-01-31 12:40:22,4097894,20553.000,-2086.000,-3969.000,32762.000,-1571.000,-13042.000,0.000,0.000,0
2026-01-31 12:40:22,4097934,6298.000,-7556.000,1120.000,-25372.000,9287.000,-6862.000,0.000,0.000,0
2026-01-31 12:40:22,4097977,10934.000,2218.000,3613.000,-26483.000,8005.000,-3492.000,0.000,0.000,0
2026-01-31 12:40:22,4098014,5321.000,1817.000,6672.000,-3721.000,11700.000,-5030.000,0.000,0.000,0
2026-01-31 12:40:22,4098054,6429.000,5309.000,10067.000,-5312.000,11757.000,-5888.000,0.000,0.000,0
2026-01-31 12:40:22,4098094,4019.000,2337.000,6687.000,-5194.000,12308.000,-7079.000,0.000,0.000,0
2026-01-31 12:40:22,4098134,3125.000,8608.000,10255.000,-2474.000,10968.000,-10220.000,0.000,0.000,0
2026-01-31 12:40:22,4098174,5097.000,4781.000,11721.000,-8392.000,8262.000,-12276.000,0.000,0.000,0
2026-01-31 12:40:22,4098214,6355.000,5151.000,10987.000,-13179.000,6764.000,-13963.000,0.000,0.000,0
2026-01-31 12:40:22,4098254,9707.000,217.000,9085.000,-17003.000,4255.000,-16557.000,0.000,0.000,0
2026-01-31 12:40:22,4098294,7609.000,-1412.000,7529.000,-13232.000,4492.000,-17646.000,0.000,0.000,0
2026-01-31 12:40:22,4098334,6828.000,-2851.000,4406.000,-15377.000,2572.000,-14996.000,0.000,0.000,0
2026-01-31 12:40:22,4098374,3575.000,-1757.000,4012.000,-15797.000,2103.000,-10979.000,0.000,0.000,0
2026-01-31 12:40:23,4098414,3095.000,-2473.000,3096.000,-12769.000,2446.000,-6081.000,0.000,0.000,0
2026-01-31 12:40:23,4098454,3968.000,-1412.000,5047.000,-11595.000,3510.000,-2752.000,0.000,0.000,0
2026-01-31 12:40:23,4098494,4421.000,-1690.000,3469.000,-9148.000,4988.000,-773.000,0.000,0.000,0
2026-01-31 12:40:23,4098534,3231.000,-4728.000,-657.000,-6732.000,7413.000,-2924.000,0.000,0.000,0
2026-01-31 12:40:23,4098574,3771.000,-4740.000,1983.000,-4977.000,5919.000,-5870.000,0.000,0.000,0
2026-01-31 12:40:23,4098614,7980.000,-4512.000,2803.000,-3529.000,5774.000,-5463.000,0.000,0.000,0
2026-01-31 12:40:23,4098654,9506.000,-5887.000,1811.000,-5642.000,4251.000,-8573.000,0.000,0.000,0
2026-01-31 12:40:23,4098694,5763.000,-6714.000,2095.000,-6076.000,3944.000,-9090.000,0.000,0.000,0
2026-01-31 12:40:23,4098734,5836.000,-5684.000,-133.000,-6570.000,3348.000,-3520.000,0.000,0.000,0
2026-01-31 12:40:23,4098774,458.000,-4188.000,-937.000,272.000,5062.000,867.000,0.000,0.000,0
2026-01-31 12:40:23,4098814,2493.000,-1752.000,-964.000,2364.000,4602.000,4297.000,0.000,0.000,0
2026-01-31 12:40:23,4098854,2633.000,-2809.000,-1348.000,2834.000,4639.000,5929.000,0.000,0.000,0
2026-01-31 12:40:23,4098894,5367.000,-2210.000,275.000,4016.000,4191.000,5293.000,0.000,0.000,0
2026-01-31 12:40:23,4098934,2551.000,-3930.000,3071.000,5884.000,5649.000,2749.000,0.000,0.000,0
2026-01-31 12:40:23,4098974,4458.000,-4608.000,6010.000,7492.000,3619.000,1148.000,0.000,0.000,0
2026-01-31 12:40:23,4099014,7694.000,-5530.000,9983.000,4863.000,3379.000,-736.000,0.000,0.000,0
2026-01-31 12:40:23,4099054,10795.000,-10532.000,9722.000,10118.000,6349.000,-351.000,0.000,0.000,0
2026-01-31 12:40:23,4099094,9871.000,-5162.000,10955.000,20600.000,11824.000,-1221.000,0.000,0.000,0
2026-01-31 12:40:23,4099134,5456.000,1090.000,10146.000,25197.000,16366.000,-3459.000,0.000,0.000,0
2026-01-31 12:40:23,4099174,-426.000,6309.000,6917.000,30518.000,21584.000,-10786.000,0.000,0.000,0
2026-01-31 12:40:23,4099214,-6827.000,8131.000,4056.000,26486.000,20189.000,-15090.000,0.000,0.000,0
2026-01-31 12:40:23,4099254,-6085.000,2608.000,139.000,16401.000,14274.000,-19677.000,0.000,0.000,0
2026-01-31 12:40:23,4099294,-7110.000,1369.000,-531.000,12871.000,5688.000,-19924.000,0.000,0.000,0
2026-01-31 12:40:23,4099334,-8122.000,-2891.000,-1033.000,4936.000,-1682.000,-15855.000,0.000,0.000,0
2026-01-31 12:40:23,4099374,-6128.000,-3565.000,90.000,1462.000,-7786.000,-11680.000,0.000,0.000,0
2026-01-31 12:40:24,4099414,-5115.000,-4257.000,6224.000,-1898.000,-9570.000,-6711.000,0.000,0.000,0
2026-01-31 12:40:24,4099454,-1502.000,-7055.000,10198.000,-5472.000,-5638.000,-2834.000,0.000,0.000,0
2026-01-31 12:40:24,4099494,-8627.000,-2933.000,2211.000,-1449.000,-212.000,-1293.000,0.000,0.000,0
2026-01-31 12:40:24,4099534,-5183.000,300.000,6900.000,-1122.000,-3986.000,1684.000,0.000,0.000,0
2026-01-31 12:40:24,4099574,-8941.000,-893.000,4289.000,-3395.000,-1294.000,1106.000,0.000,0.000,0
2026-01-31 12:40:24,4099614,-6596.000,-2154.000,5180.000,-1096.000,-2524.000,1821.000,0.000,0.000,0
2026-01-31 12:40:24,4099654,-7075.000,274.000,5299.000,-1646.000,-1321.000,2810.000,0.000,0.000,0
2026-01-31 12:40:24,4099694,-7586.000,502.000,5508.000,-3988.000,-219.000,5583.000,0.000,0.000,0
2026-01-31 12:40:24,4099734,-7917.000,3306.000,5891.000,-5233.000,1791.000,7144.000,0.000,0.000,0
2026-01-31 12:40:24,4099774,-8753.000,1090.000,5423.000,-8152.000,2151.000,6855.000,0.000,0.000,0
2026-01-31 12:40:24,4099814,-10319.000,2032.000,2890.000,-13269.000,2171.000,7661.000,0.000,0.000,0
2026-01-31 12:40:24,4099854,-10205.000,-10197.000,-1146.000,-24170.000,-871.000,7842.000,0.000,0.000,0
2026-01-31 12:40:24,4099894,-6216.000,3546.000,2219.000,-4515.000,-3265.000,5983.000,0.000,0.000,0
2026-01-31 12:40:24,4099934,-2049.000,-4669.000,563.000,-7412.000,-4443.000,5929.000,0.000,0.000,0
2026-01-31 12:40:24,4099976,-3815.000,2880.000,1695.000,-14496.000,-2101.000,6470.000,0.000,0.000,0
2026-01-31 12:40:24,4100014,503.000,-8554.000,146.000,-10062.000,-3038.000,7821.000,0.000,0.000,0
2026-01-31 12:40:24,4100054,-1627.000,1667.000,952.000,-6322.000,-818.000,12508.000,0.000,0.000,0
2026-01-31 12:40:24,4100094,-642.000,-6719.000,-5706.000,-2708.000,-4473.000,17463.000,0.000,0.000,0
2026-01-31 12:40:24,4100134,-4014.000,-3294.000,-5376.000,27286.000,-592.000,19597.000,0.000,0.000,0
2026-01-31 12:40:24,4100174,-10639.000,25300.000,3045.000,32722.000,8134.000,18197.000,0.000,0.000,0
2026-01-31 12:40:24,4100214,-24114.000,27984.000,3187.000,-130.000,6196.000,1777.000,0.000,0.000,0
2026-01-31 12:40:24,4100254,-18822.000,3999.000,6210.000,758.000,-201.000,-11124.000,0.000,0.000,0
2026-01-31 12:40:24,4100294,-13331.000,8547.000,-4958.000,12379.000,-4204.000,-14971.000,0.000,0.000,0
2026-01-31 12:40:24,4100334,-6228.000,3055.000,-2958.000,7708.000,-12999.000,-14076.000,0.000,0.000,0
2026-01-31 12:40:24,4100374,-2006.000,1469.000,-1068.000,6841.000,-13946.000,-9187.000,0.000,0.000,0
2026-01-31 12:40:25,4100414,805.000,-243.000,-192.000,6269.000,-12422.000,-4383.000,0.000,0.000,0
2026-01-31 12:40:25,4100454,2543.000,-1250.000,1464.000,9158.000,-8844.000,-393.000,0.000,0.000,0
2026-01-31 12:40:25,4100494,234.000,183.000,56.000,11451.000,-3794.000,1494.000,0.000,0.000,0
2026-01-31 12:40:25,4100534,-2437.000,3497.000,1176.000,11444.000,33.000,1929.000,0.000,0.000,0
2026-01-31 12:40:25,4100574,-3873.000,1637.000,550.000,5456.000,2718.000,2727.000,0.000,0.000,0
2026-01-31 12:40:25,4100614,-3966.000,2632.000,2776.000,8095.000,5726.000,3324.000,0.000,0.000,0
2026-01-31 12:40:25,4100654,-4716.000,3207.000,3534.000,7140.000,9208.000,5598.000,0.000,0.000,0
2026-01-31 12:40:25,4100694,-655.000,346.000,566.000,6340.000,13010.000,12269.000,0.000,0.000,0
2026-01-31 12:40:25,4100734,94.000,5728.000,-7309.000,7284.000,17629.000,15922.000,0.000,0.000,0
2026-01-31 12:40:25,4100774,-398.000,14547.000,-7120.000,5916.000,14044.000,17609.000,0.000,0.000,0
2026-01-31 12:40:25,4100814,436.000,19636.000,-1335.000,-11865.000,8760.000,18728.000,0.000,0.000,0
2026-01-31 12:40:25,4100854,4462.000,14438.000,2254.000,-32202.000,1620.000,21751.000,0.000,0.000,0
2026-01-31 12:40:25,4100894,2148.000,8235.000,-5517.000,32762.000,-7957.000,18687.000,0.000,0.000,0
2026-01-31 12:40:25,4100934,6813.000,-3215.000,-1930.000,-32724.000,-16709.000,7803.000,0.000,0.000,0
2026-01-31 12:40:25,4100974,8392.000,-10514.000,2873.000,-7915.000,-15098.000,3185.000,0.000,0.000,0
2026-01-31 12:40:25,4101014,8816.000,-271.000,3442.000,22979.000,-10232.000,3720.000,0.000,0.000,0
2026-01-31 12:40:25,4101054,9169.000,9191.000,3192.000,20538.000,-5085.000,6454.000,0.000,0.000,0
2026-01-31 12:40:25,4101094,8108.000,4823.000,4331.000,-235.000,-4720.000,5648.000,0.000,0.000,0
2026-01-31 12:40:25,4101134,8873.000,2012.000,5798.000,-2911.000,-4802.000,2391.000,0.000,0.000,0
2026-01-31 12:40:25,4101174,9494.000,1695.000,5261.000,124.000,-4459.000,-476.000,0.000,0.000,0
2026-01-31 12:40:25,4101214,9482.000,1530.000,4413.000,2953.000,-2908.000,-1730.000,0.000,0.000,0
2026-01-31 12:40:25,4101254,11010.000,1698.000,2892.000,4464.000,-1500.000,-1661.000,0.000,0.000,0
2026-01-31 12:40:25,4101294,11538.000,3491.000,3136.000,4264.000,215.000,-1099.000,0.000,0.000,0
2026-01-31 12:40:25,4101334,10755.000,3791.000,4277.000,954.000,1568.000,-945.000,0.000,0.000,0
2026-01-31 12:40:25,4101374,10720.000,2417.000,3179.000,-972.000,2517.000,-1422.000,0.000,0.000,0
2026-01-31 12:40:26,4101414,10307.000,1821.000,1989.000,-915.000,3418.000,-1601.000,0.000,0.000,0
2026-01-31 12:40:26,4101454,9475.000,2243.000,2130.000,148.000,3888.000,-1656.000,0.000,0.000,0
2026-01-31 12:40:26,4101494,7355.000,1495.000,1752.000,-1428.000,4400.000,-3002.000,0.000,0.000,0
2026-01-31 12:40:26,4101534,6855.000,724.000,809.000,-1693.000,4667.000,-3738.000,0.000,0.000,0
2026-01-31 12:40:26,4101574,6549.000,325.000,-116.000,645.000,5395.000,-3653.000,0.000,0.000,0
2026-01-31 12:40:26,4101614,5627.000,152.000,-259.000,4171.000,5877.000,-3200.000,0.000,0.000,0
2026-01-31 12:40:26,4101656,5328.000,565.000,-143.000,6961.000,5574.000,-2616.000,0.000,0.000,0
2026-01-31 12:40:26,4101695,6213.000,1098.000,127.000,8022.000,4710.000,-1318.000,0.000,0.000,0
2026-01-31 12:40:26,4101734,7787.000,2066.000,511.000,7822.000,3783.000,974.000,0.000,0.000,0
2026-01-31 12:40:26,4101774,7714.000,2686.000,1602.000,6123.000,3022.000,3512.000,0.000,0.000,0
2026-01-31 12:40:26,4101814,9659.000,1898.000,1947.000,3586.000,1354.000,6245.000,0.000,0.000,0
2026-01-31 12:40:26,4101854,9984.000,5283.000,4151.000,-733.000,-562.000,8551.000,0.000,0.000,0
2026-01-31 12:40:26,4101894,10195.000,1495.000,4553.000,-5080.000,-1408.000,6908.000,0.000,0.000,0
2026-01-31 12:40:26,4101934,8465.000,-1227.000,2686.000,-2947.000,75.000,4601.000,0.000,0.000,0
2026-01-31 12:40:26,4101977,5249.000,1148.000,464.000,8377.000,1526.000,3690.000,0.000,0.000,0
2026-01-31 12:40:26,4102014,3468.000,4490.000,1915.000,17206.000,2092.000,3621.000,0.000,0.000,0
2026-01-31 12:40:26,4102054,2837.000,5843.000,4329.000,18531.000,1577.000,2222.000,0.000,0.000,0
2026-01-31 12:40:26,4102094,2389.000,6739.000,2555.000,15736.000,724.000,1419.000,0.000,0.000,0
2026-01-31 12:40:26,4102134,3069.000,6440.000,1943.000,9123.000,-1767.000,1420.000,0.000,0.000,0
2026-01-31 12:40:26,4102174,4110.000,4697.000,1179.000,3119.000,-4057.000,1659.000,0.000,0.000,0
2026-01-31 12:40:26,4102214,6957.000,7146.000,1957.000,323.000,-5758.000,1505.000,0.000,0.000,0
2026-01-31 12:40:26,4102254,14000.000,-1029.000,7842.000,-8685.000,-4328.000,-52.000,0.000,0.000,0
2026-01-31 12:40:26,4102294,9874.000,-4436.000,4804.000,5239.000,1879.000,-1679.000,0.000,0.000,0
2026-01-31 12:40:26,4102334,11549.000,4990.000,3724.000,8367.000,633.000,2201.000,0.000,0.000,0
2026-01-31 12:40:26,4102374,9632.000,2273.000,2466.000,1781.000,774.000,2939.000,0.000,0.000,0
2026-01-31 12:40:27,4102414,5915.000,1593.000,-2127.000,1710.000,85.000,3130.000,0.000,0.000,0
2026-01-31 12:40:27,4102454,7994.000,-306.000,-3624.000,3573.000,-733.000,3611.000,0.000,0.000,0
2026-01-31 12:40:27,4102494,8020.000,2362.000,-3466.000,3886.000,-537.000,2279.000,0.000,0.000,0
2026-01-31 12:40:27,4102534,8035.000,1452.000,-1007.000,-529.000,-1442.000,768.000,0.000,0.000,0
2026-01-31 12:40:27,4102574,8185.000,250.000,1770.000,-2086.000,-1342.000,142.000,0.000,0.000,0
2026-01-31 12:40:27,4102614,8251.000,1301.000,-109.000,885.000,-357.000,751.000,0.000,0.000,0
2026-01-31 12:40:27,4102654,8408.000,1042.000,-313.000,1955.000,-325.000,147.000,0.000,0.000,0
2026-01-31 12:40:27,4102694,7805.000,875.000,-6.000,149.000,-540.000,-316.000,0.000,0.000,0
2026-01-31 12:40:27,4102734,7572.000,638.000,47.000,438.000,-489.000,-140.000,0.000,0.000,0
2026-01-31 12:40:27,4102774,7849.000,1853.000,851.000,1492.000,45.000,466.000,0.000,0.000,0
2026-01-31 12:40:27,4102814,8102.000,1389.000,758.000,296.000,609.000,584.000,0.000,0.000,0
2026-01-31 12:40:27,4102854,8755.000,2500.000,-497.000,2927.000,521.000,223.000,0.000,0.000,0
2026-01-31 12:40:27,4102894,8948.000,3006.000,318.000,2951.000,669.000,380.000,0.000,0.000,0
2026-01-31 12:40:27,4102934,11482.000,3355.000,1151.000,1095.000,982.000,535.000,0.000,0.000,0
2026-01-31 12:40:27,4102974,12306.000,3735.000,1918.000,-885.000,1890.000,-486.000,0.000,0.000,0
2026-01-31 12:40:27,4103014,8412.000,2634.000,2100.000,-3122.000,3396.000,-2502.000,0.000,0.000,0
2026-01-31 12:40:27,4103054,8458.000,-484.000,130.000,-4405.000,4483.000,-2723.000,0.000,0.000,0
2026-01-31 12:40:27,4103094,8207.000,-775.000,-1897.000,-1139.000,4993.000,-2058.000,0.000,0.000,0
2026-01-31 12:40:27,4103134,6644.000,-386.000,-1660.000,1889.000,4614.000,-1661.000,0.000,0.000,0
2026-01-31 12:40:27,4103174,4736.000,1398.000,-873.000,2746.000,3499.000,-1540.000,0.000,0.000,0
2026-01-31 12:40:27,4103214,4420.000,1262.000,-567.000,125.000,1899.000,-898.000,0.000,0.000,0
2026-01-31 12:40:27,4103254,4057.000,28.000,288.000,812.000,432.000,-395.000,0.000,0.000,0
2026-01-31 12:40:27,4103294,5015.000,1929.000,1865.000,4675.000,-1102.000,-538.000,0.000,0.000,0
2026-01-31 12:40:27,4103334,5558.000,3693.000,3128.000,2735.000,-1191.000,-545.000,0.000,0.000,0
2026-01-31 12:40:27,4103374,6141.000,2154.000,2506.000,-585.000,-2224.000,234.000,0.000,0.000,0
2026-01-31 12:40:28,4103414,10393.000,4146.000,7671.000,-332.000,-995.000,15.000,0.000,0.000,0
2026-01-31 12:40:28,4103454,11722.000,3947.000,7959.000,3014.000,3139.000,-2727.000,0.000,0.000,0
2026-01-31 12:40:28,4103494,11077.000,4369.000,2292.000,6348.000,3570.000,-4435.000,0.000,0.000,0
2026-01-31 12:40:28,4103534,11001.000,3773.000,1347.000,2391.000,1917.000,-3026.000,0.000,0.000,0
2026-01-31 12:40:28,4103574,7265.000,2159.000,910.000,-1931.000,1489.000,-1277.000,0.000,0.000,0
2026-01-31 12:40:28,4103614,7185.000,270.000,-667.000,-2547.000,795.000,-221.000,0.000,0.000,0
2026-01-31 12:40:28,4103654,7770.000,428.000,-1282.000,1669.000,604.000,207.000,0.000,0.000,0
2026-01-31 12:40:28,4103694,7004.000,1584.000,-1092.000,5162.000,890.000,863.000,0.000,0.000,0
2026-01-31 12:40:28,4103734,6851.000,2785.000,-364.000,5221.000,742.000,1511.000,0.000,0.000,0
2026-01-31 12:40:28,4103774,6710.000,3289.000,964.000,3438.000,674.000,1671.000,0.000,0.000,0
2026-01-31 12:40:28,4103814,6336.000,2167.000,1139.000,-395.000,1161.000,1999.000,0.000,0.000,0
2026-01-31 12:40:28,4103854,6632.000,1389.000,969.000,-610.000,1241.000,2592.000,0.000,0.000,0
2026-01-31 12:40:28,4103894,7326.000,1868.000,977.000,1119.000,1072.000,3392.000,0.000,0.000,0
2026-01-31 12:40:28,4103934,7823.000,2853.000,1501.000,2763.000,753.000,4038.000,0.000,0.000,0
2026-01-31 12:40:28,4103977,9012.000,3203.000,1849.000,2854.000,226.000,4386.000,0.000,0.000,0
2026-01-31 12:40:28,4104014,10003.000,3266.000,1477.000,2199.000,279.000,4566.000,0.000,0.000,0
2026-01-31 12:40:28,4104054,9955.000,2433.000,1142.000,2643.000,694.000,4375.000,0.000,0.000,0
2026-01-31 12:40:28,4104094,12365.000,2292.000,833.000,4818.000,487.000,4732.000,0.000,0.000,0
2026-01-31 12:40:28,4104134,10286.000,3440.000,2236.000,7178.000,1631.000,4530.000,0.000,0.000,0
2026-01-31 12:40:28,4104174,6916.000,1124.000,2870.000,4295.000,1797.000,429.000,0.000,0.000,0
2026-01-31 12:40:28,4104214,6743.000,-815.000,1286.000,4133.000,2198.000,-1508.000,0.000,0.000,0
2026-01-31 12:40:28,4104254,5617.000,-901.000,633.000,7190.000,2973.000,-2162.000,0.000,0.000,0
2026-01-31 12:40:28,4104294,5018.000,242.000,1174.000,9789.000,3276.000,-1711.000,0.000,0.000,0
2026-01-31 12:40:28,4104334,4506.000,1196.000,1549.000,9906.000,3190.000,-962.000,0.000,0.000,0
2026-01-31 12:40:28,4104374,4502.000,1718.000,1644.000,8472.000,2267.000,36.000,0.000,0.000,0
2026-01-31 12:40:29,4104414,4944.000,1879.000,2477.000,5865.000,649.000,1079.000,0.000,0.000,0
2026-01-31 12:40:29,4104454,5862.000,2072.000,3302.000,3054.000,-1237.000,1993.000,0.000,0.000,0
2026-01-31 12:40:29,4104494,7063.000,2183.000,3654.000,-361.000,-2810.000,2669.000,0.000,0.000,0
2026-01-31 12:40:29,4104534,7577.000,1918.000,3995.000,-3660.000,-3621.000,2724.000,0.000,0.000,0
2026-01-31 12:40:29,4104574,8778.000,900.000,3792.000,-3605.000,-3459.000,1720.000,0.000,0.000,0
2026-01-31 12:40:29,4104614,11015.000,909.000,2916.000,762.000,-2571.000,1022.000,0.000,0.000,0
2026-01-31 12:40:29,4104654,11848.000,1471.000,2871.000,4103.000,-747.000,584.000,0.000,0.000,0
2026-01-31 12:40:29,4104694,9688.000,2876.000,3033.000,6222.000,1741.000,-246.000,0.000,0.000,0
2026-01-31 12:40:29,4104734,9491.000,2897.000,1804.000,5716.000,2575.000,-1622.000,0.000,0.000,0
2026-01-31 12:40:29,4104774,9610.000,2576.000,1310.000,3990.000,3313.000,-2467.000,0.000,0.000,0
2026-01-31 12:40:29,4104814,8603.000,2448.000,1309.000,3500.000,4058.000,-2960.000,0.000,0.000,0
2026-01-31 12:40:29,4104854,6920.000,2090.000,1551.000,3264.000,4141.000,-3796.000,0.000,0.000,0
2026-01-31 12:40:29,4104894,6081.000,1470.000,1200.000,2226.000,3472.000,-4212.000,0.000,0.000,0
2026-01-31 12:40:29,4104934,5519.000,1422.000,698.000,2112.000,2781.000,-3673.000,0.000,0.000,0
2026-01-31 12:40:29,4104974,6158.000,1915.000,712.000,2232.000,1833.000,-1435.000,0.000,0.000,0
2026-01-31 12:40:29,4105014,5967.000,2126.000,683.000,1435.000,1605.000,32.000,0.000,0.000,0
2026-01-31 12:40:29,4105054,6681.000,2255.000,1240.000,-96.000,532.000,1549.000,0.000,0.000,0
2026-01-31 12:40:29,4105094,8337.000,2990.000,1952.000,-1582.000,-489.000,2981.000,0.000,0.000,0
2026-01-31 12:40:29,4105134,8999.000,3030.000,2259.000,-3314.000,-755.000,3675.000,0.000,0.000,0
2026-01-31 12:40:29,4105174,9203.000,2100.000,2625.000,-4307.000,-1267.000,3980.000,0.000,0.000,0
2026-01-31 12:40:29,4105214,10765.000,1392.000,2633.000,-2809.000,-1870.000,4814.000,0.000,0.000,0
2026-01-31 12:40:29,4105254,10563.000,1856.000,3725.000,936.000,-1694.000,5465.000,0.000,0.000,0
2026-01-31 12:40:29,4105294,7956.000,1670.000,5025.000,2521.000,-601.000,3737.000,0.000,0.000,0
2026-01-31 12:40:29,4105334,8746.000,212.000,2126.000,1439.000,547.000,-204.000,0.000,0.000,0
2026-01-31 12:40:29,4105374,6741.000,-71.000,1034.000,3102.000,2273.000,-1858.000,0.000,0.000,0
2026-01-31 12:40:30,4105414,5517.000,291.000,1125.000,6171.000,2735.000,-2364.000,0.000,0.000,0
2026-01-31 12:40:30,4105454,4299.000,896.000,1298.000,8073.000,2681.000,-2443.000,0.000,0.000,0
2026-01-31 12:40:30,4105494,4084.000,1626.000,1037.000,9484.000,1996.000,-2182.000,0.000,0.000,0
2026-01-31 12:40:30,4105534,4466.000,2484.000,1323.000,9356.000,873.000,-1388.000,0.000,0.000,0
2026-01-31 12:40:30,4105574,5548.000,3256.000,2571.000,5912.000,-617.000,-4.000,0.000,0.000,0
2026-01-31 12:40:30,4105614,6433.000,3250.000,3170.000,270.000,-1859.000,1481.000,0.000,0.000,0
2026-01-31 12:40:30,4105654,7252.000,2700.000,3079.000,-5250.000,-3059.000,2636.000,0.000,0.000,0
2026-01-31 12:40:30,4105694,8770.000,1657.000,3264.000,-8303.000,-3878.000,3363.000,0.000,0.000,0
2026-01-31 12:40:30,4105734,11447.000,226.000,2325.000,-4674.000,-3799.000,3697.000,0.000,0.000,0
2026-01-31 12:40:30,4105774,12496.000,586.000,2814.000,-219.000,-2570.000,3838.000,0.000,0.000,0
2026-01-31 12:40:30,4105814,10495.000,1793.000,3978.000,2281.000,-675.000,3108.000,0.000,0.000,0
2026-01-31 12:40:30,4105854,10055.000,2578.000,2505.000,1762.000,194.000,1610.000,0.000,0.000,0
2026-01-31 12:40:30,4105894,10319.000,2271.000,1167.000,-243.000,1586.000,199.000,0.000,0.000,0
2026-01-31 12:40:30,4105934,8853.000,1878.000,1015.000,-651.000,2781.000,-757.000,0.000,0.000,0
2026-01-31 12:40:30,4105976,6869.000,1660.000,1177.000,-35.000,3216.000,-1759.000,0.000,0.000,0
2026-01-31 12:40:30,4106015,5717.000,1469.000,1248.000,365.000,2944.000,-3017.000,0.000,0.000,0
2026-01-31 12:40:30,4106054,5582.000,1520.000,1086.000,688.000,2512.000,-3985.000,0.000,0.000,0
2026-01-31 12:40:30,4106094,6101.000,1540.000,166.000,764.000,2365.000,-4259.000,0.000,0.000,0
2026-01-31 12:40:30,4106134,6480.000,1403.000,-110.000,956.000,2413.000,-3584.000,0.000,0.000,0
2026-01-31 12:40:30,4106174,7209.000,1436.000,7.000,1472.000,1879.000,-2535.000,0.000,0.000,0
2026-01-31 12:40:30,4106214,8379.000,1860.000,552.000,2144.000,1271.000,-1229.000,0.000,0.000,0
2026-01-31 12:40:30,4106254,8788.000,1944.000,1063.000,2426.000,971.000,-139.000,0.000,0.000,0
2026-01-31 12:40:30,4106294,8654.000,1689.000,1247.000,2226.000,222.000,788.000,0.000,0.000,0
2026-01-31 12:40:30,4106334,10182.000,2142.000,2181.000,1699.000,-956.000,2382.000,0.000,0.000,0
2026-01-31 12:40:30,4106374,10190.000,2535.000,3042.000,64.000,-1315.000,4523.000,0.000,0.000,0
2026-01-31 12:40:31,4106414,8092.000,2745.000,4684.000,-2320.000,-1343.000,5249.000,0.000,0.000,0
2026-01-31 12:40:31,4106454,7670.000,1127.000,4579.000,-5271.000,-1843.000,3645.000,0.000,0.000,0
2026-01-31 12:40:31,4106494,7620.000,-891.000,1790.000,-4650.000,-256.000,952.000,0.000,0.000,0
2026-01-31 12:40:31,4106534,6566.000,-800.000,1043.000,2221.000,834.000,122.000,0.000,0.000,0
2026-01-31 12:40:31,4106574,5432.000,221.000,1126.000,6078.000,1372.000,-427.000,0.000,0.000,0
2026-01-31 12:40:31,4106614,5238.000,1165.000,942.000,8014.000,1101.000,-605.000,0.000,0.000,0
2026-01-31 12:40:31,4106654,5500.000,2256.000,944.000,9305.000,681.000,-530.000,0.000,0.000,0
2026-01-31 12:40:31,4106694,5389.000,3279.000,1602.000,8547.000,31.000,32.000,0.000,0.000,0
2026-01-31 12:40:31,4106734,6262.000,3674.000,2482.000,4399.000,-1271.000,962.000,0.000,0.000,0
2026-01-31 12:40:31,4106774,6304.000,3351.000,2651.000,-1476.000,-2085.000,1653.000,0.000,0.000,0
2026-01-31 12:40:31,4106814,7392.000,2801.000,2325.000,-6108.000,-3114.000,1738.000,0.000,0.000,0
2026-01-31 12:40:31,4106854,9203.000,1974.000,2170.000,-7927.000,-3428.000,1762.000,0.000,0.000,0
2026-01-31 12:40:31,4106894,10135.000,893.000,2205.000,-4860.000,-2775.000,1271.000,0.000,0.000,0
2026-01-31 12:40:31,4106934,11226.000,574.000,2958.000,-1569.000,-2129.000,781.000,0.000,0.000,0
2026-01-31 12:40:31,4106974,10943.000,2015.000,3434.000,1474.000,-735.000,611.000,0.000,0.000,0
2026-01-31 12:40:31,4107014,9306.000,2920.000,2856.000,1308.000,613.000,-17.000,0.000,0.000,0
2026-01-31 12:40:31,4107054,10998.000,2530.000,1404.000,-1610.000,1446.000,-1195.000,0.000,0.000,0
2026-01-31 12:40:31,4107094,10041.000,2026.000,995.000,-2938.000,2867.000,-2071.000,0.000,0.000,0
2026-01-31 12:40:31,4107134,8246.000,1529.000,1103.000,-2514.000,3600.000,-2919.000,0.000,0.000,0
2026-01-31 12:40:31,4107174,6529.000,1085.000,1230.000,-1642.000,3737.000,-4164.000,0.000,0.000,0
2026-01-31 12:40:31,4107214,6032.000,1019.000,1026.000,-359.000,3444.000,-5228.000,0.000,0.000,0
2026-01-31 12:40:31,4107254,6071.000,1321.000,184.000,986.000,3289.000,-5504.000,0.000,0.000,0
2026-01-31 12:40:31,4107294,6041.000,1313.000,-246.000,2011.000,3103.000,-4613.000,0.000,0.000,0
2026-01-31 12:40:31,4107334,5923.000,1358.000,-281.000,2408.000,2498.000,-3406.000,0.000,0.000,0
2026-01-31 12:40:31,4107374,6747.000,1603.000,-136.000,2920.000,1415.000,-1630.000,0.000,0.000,0
2026-01-31 12:40:32,4107414,7883.000,2404.000,555.000,3186.000,341.000,553.000,0.000,0.000,0
2026-01-31 12:40:32,4107454,8172.000,2273.000,1028.000,2176.000,-435.000,2641.000,0.000,0.000,0
2026-01-31 12:40:32,4107494,8855.000,2348.000,1351.000,846.000,-1559.000,4656.000,0.000,0.000,0
2026-01-31 12:40:32,4107534,10763.000,2762.000,2068.000,-985.000,-2531.000,6918.000,0.000,0.000,0
2026-01-31 12:40:32,4107574,10333.000,2755.000,2716.000,-2522.000,-2597.000,8470.000,0.000,0.000,0
2026-01-31 12:40:32,4107614,7470.000,2394.000,4346.000,-3896.000,-2709.000,7987.000,0.000,0.000,0
2026-01-31 12:40:32,4107654,9925.000,810.000,2948.000,-5422.000,-3018.000,4484.000,0.000,0.000,0
2026-01-31 12:40:32,4107696,7878.000,-240.000,1827.000,-1677.000,-1033.000,2343.000,0.000,0.000,0
2026-01-31 12:40:32,4107735,6484.000,-352.000,1809.000,3039.000,-54.000,785.000,0.000,0.000,0
2026-01-31 12:40:32,4107774,5425.000,585.000,1451.000,6660.000,646.000,-413.000,0.000,0.000,0
2026-01-31 12:40:32,4107814,4965.000,1630.000,1008.000,8638.000,854.000,-1098.000,0.000,0.000,0
2026-01-31 12:40:32,4107854,5229.000,2593.000,921.000,8814.000,418.000,-1216.000,0.000,0.000,0
2026-01-31 12:40:32,4107894,5452.000,3454.000,1823.000,6810.000,-108.000,-909.000,0.000,0.000,0
2026-01-31 12:40:32,4107934,6258.000,3859.000,2415.000,2498.000,-919.000,-323.000,0.000,0.000,0
2026-01-31 12:40:32,4107977,6629.000,3043.000,2461.000,-2898.000,-1549.000,28.000,0.000,0.000,0
2026-01-31 12:40:32,4108014,8343.000,2557.000,2113.000,-6158.000,-2460.000,-10.000,0.000,0.000,0
2026-01-31 12:40:32,4108054,9959.000,1450.000,1623.000,-6365.000,-2184.000,-394.000,0.000,0.000,0
2026-01-31 12:40:32,4108094,11747.000,1096.000,1640.000,-3878.000,-1970.000,-625.000,0.000,0.000,0
2026-01-31 12:40:32,4108134,11893.000,1645.000,2933.000,-1211.000,-1089.000,-656.000,0.000,0.000,0
2026-01-31 12:40:32,4108174,9418.000,2566.000,2930.000,-496.000,254.000,-821.000,0.000,0.000,0
2026-01-31 12:40:32,4108214,10592.000,2390.000,1649.000,-2711.000,771.000,-1515.000,0.000,0.000,0
2026-01-31 12:40:32,4108254,10972.000,2080.000,741.000,-4546.000,2004.000,-1878.000,0.000,0.000,0
2026-01-31 12:40:32,4108294,8924.000,1437.000,679.000,-4392.000,3349.000,-2194.000,0.000,0.000,0
2026-01-31 12:40:32,4108334,6787.000,1010.000,533.000,-3322.000,3868.000,-3071.000,0.000,0.000,0
2026-01-31 12:40:32,4108374,5671.000,837.000,549.000,-1744.000,3422.000,-4111.000,0.000,0.000,0
2026-01-31 12:40:33,4108414,5592.000,1193.000,404.000,-61.000,2966.000,-4629.000,0.000,0.000,0
2026-01-31 12:40:33,4108454,5786.000,1235.000,-163.000,1665.000,3033.000,-3924.000,0.000,0.000,0
2026-01-31 12:40:33,4108494,6063.000,1423.000,-294.000,2479.000,2943.000,-2756.000,0.000,0.000,0
2026-01-31 12:40:33,4108534,6961.000,1463.000,-389.000,2769.000,2451.000,-1277.000,0.000,0.000,0
2026-01-31 12:40:33,4108574,7878.000,1952.000,-151.000,3070.000,1770.000,401.000,0.000,0.000,0
2026-01-31 12:40:33,4108614,7852.000,1976.000,867.000,2969.000,1046.000,1782.000,0.000,0.000,0
2026-01-31 12:40:33,4108654,10362.000,1358.000,318.000,3495.000,-415.000,3342.000,0.000,0.000,0
2026-01-31 12:40:33,4108694,11341.000,3237.000,1389.000,4782.000,-910.000,5932.000,0.000,0.000,0
2026-01-31 12:40:33,4108734,6754.000,3006.000,3608.000,2382.000,-1022.000,6817.000,0.000,0.000,0
2026-01-31 12:40:33,4108774,9637.000,2328.000,4420.000,-2167.000,-3622.000,5683.000,0.000,0.000,0
2026-01-31 12:40:33,4108814,7707.000,378.000,2941.000,-5770.000,-2502.000,4056.000,0.000,0.000,0
2026-01-31 12:40:33,4108854,6458.000,-444.000,2090.000,563.000,-1653.000,3685.000,0.000,0.000,0
2026-01-31 12:40:33,4108894,6579.000,-274.000,1681.000,4673.000,-1282.000,3507.000,0.000,0.000,0
2026-01-31 12:40:33,4108934,7007.000,1983.000,2419.000,6467.000,-911.000,3103.000,0.000,0.000,0
2026-01-31 12:40:33,4108974,7674.000,3495.000,3099.000,4577.000,-602.000,2708.000,0.000,0.000,0
2026-01-31 12:40:33,4109014,6758.000,3362.000,3403.000,1687.000,-244.000,2109.000,0.000,0.000,0
2026-01-31 12:40:33,4109054,7606.000,2809.000,3418.000,-1629.000,-749.000,1084.000,0.000,0.000,0
2026-01-31 12:40:33,4109094,7019.000,2034.000,2653.000,-2934.000,-432.000,-265.000,0.000,0.000,0
2026-01-31 12:40:33,4109134,6829.000,1551.000,1621.000,-1793.000,-167.000,-1678.000,0.000,0.000,0
2026-01-31 12:40:33,4109174,7864.000,1355.000,1304.000,-853.000,-264.000,-2859.000,0.000,0.000,0
2026-01-31 12:40:33,4109214,13353.000,2297.000,-85.000,1346.000,-494.000,-3927.000,0.000,0.000,0
2026-01-31 12:40:33,4109254,10802.000,2627.000,460.000,2347.000,1346.000,-4064.000,0.000,0.000,0
2026-01-31 12:40:33,4109294,8626.000,2631.000,823.000,1591.000,779.000,-4809.000,0.000,0.000,0
2026-01-31 12:40:33,4109334,7914.000,2227.000,1762.000,-1014.000,-452.000,-5666.000,0.000,0.000,0
2026-01-31 12:40:33,4109374,8758.000,2360.000,816.000,-3173.000,-782.000,-5645.000,0.000,0.000,0
2026-01-31 12:40:34,4109414,8871.000,2113.000,-513.000,-4609.000,-195.000,-4920.000,0.000,0.000,0
2026-01-31 12:40:34,4109454,8101.000,1483.000,-885.000,-4908.000,468.000,-4181.000,0.000,0.000,0
2026-01-31 12:40:34,4109494,8112.000,940.000,-488.000,-4049.000,656.000,-3609.000,0.000,0.000,0
2026-01-31 12:40:34,4109534,7741.000,1051.000,-167.000,-2261.000,815.000,-3074.000,0.000,0.000,0
2026-01-31 12:40:34,4109574,7594.000,1441.000,-245.000,-549.000,831.000,-2434.000,0.000,0.000,0
2026-01-31 12:40:34,4109614,7566.000,1672.000,-222.000,179.000,779.000,-1055.000,0.000,0.000,0
2026-01-31 12:40:34,4109658,8440.000,1690.000,-471.000,39.000,553.000,217.000,0.000,0.000,0
2026-01-31 12:40:34,4109694,9500.000,1732.000,-631.000,898.000,247.000,1896.000,0.000,0.000,0
2026-01-31 12:40:34,4109734,7558.000,2129.000,384.000,1851.000,-122.000,3331.000,0.000,0.000,0
2026-01-31 12:40:34,4109774,6355.000,2140.000,1394.000,1221.000,-1311.000,3934.000,0.000,0.000,0
2026-01-31 12:40:34,4109814,7842.000,2921.000,2276.000,-806.000,-2383.000,4513.000,0.000,0.000,0
2026-01-31 12:40:34,4109854,8547.000,2649.000,1982.000,-3910.000,-1954.000,5134.000,0.000,0.000,0
2026-01-31 12:40:34,4109894,8448.000,2175.000,993.000,-3749.000,-1490.000,5353.000,0.000,0.000,0
2026-01-31 12:40:34,4109934,8483.000,1557.000,1784.000,-3101.000,-1484.000,5150.000,0.000,0.000,0
2026-01-31 12:40:34,4109976,9021.000,1961.000,2573.000,-339.000,-716.000,4221.000,0.000,0.000,0
2026-01-31 12:40:34,4110014,7932.000,2231.000,2630.000,1249.000,135.000,3231.000,0.000,0.000,0
2026-01-31 12:40:34,4110054,8567.000,2258.000,2442.000,1091.000,329.000,1754.000,0.000,0.000,0
2026-01-31 12:40:34,4110094,9063.000,2153.000,2118.000,742.000,927.000,548.000,0.000,0.000,0
2026-01-31 12:40:34,4110134,8292.000,1908.000,2308.000,1105.000,1527.000,-364.000,0.000,0.000,0
2026-01-31 12:40:34,4110174,7750.000,1821.000,2795.000,1191.000,1790.000,-1359.000,0.000,0.000,0
2026-01-31 12:40:34,4110214,8186.000,1602.000,2440.000,896.000,1901.000,-2364.000,0.000,0.000,0
2026-01-31 12:40:34,4110254,8788.000,1089.000,2556.000,641.000,2224.000,-2819.000,0.000,0.000,0
2026-01-31 12:40:34,4110294,7746.000,745.000,2732.000,1089.000,2638.000,-2801.000,0.000,0.000,0
2026-01-31 12:40:34,4110334,8043.000,238.000,2707.000,1520.000,2328.000,-2450.000,0.000,0.000,0
2026-01-31 12:40:34,4110374,7814.000,835.000,2721.000,2731.000,2159.000,-1688.000,0.000,0.000,0
2026-01-31 12:40:35,4110414,7413.000,968.000,2805.000,1836.000,1712.000,-1003.000,0.000,0.000,0
2026-01-31 12:40:35,4110454,6905.000,912.000,2799.000,422.000,1161.000,-142.000,0.000,0.000,0
2026-01-31 12:40:35,4110494,6751.000,908.000,2423.000,189.000,496.000,1094.000,0.000,0.000,0
2026-01-31 12:40:35,4110534,6647.000,1130.000,2706.000,426.000,-257.000,2167.000,0.000,0.000,0
2026-01-31 12:40:35,4110574,6883.000,1143.000,2628.000,246.000,-764.000,2764.000,0.000,0.000,0
2026-01-31 12:40:35,4110614,7133.000,1126.000,2215.000,417.000,-1000.000,2990.000,0.000,0.000,0
2026-01-31 12:40:35,4110654,7341.000,1075.000,2317.000,753.000,-1207.000,2890.000,0.000,0.000,0
2026-01-31 12:40:35,4110694,7336.000,1096.000,2381.000,1215.000,-1382.000,2426.000,0.000,0.000,0
2026-01-31 12:40:35,4110734,7106.000,1260.000,2431.000,1715.000,-1621.000,1981.000,0.000,0.000,0
2026-01-31 12:40:35,4110774,7180.000,1310.000,2579.000,1580.000,-2105.000,1684.000,0.000,0.000,0
2026-01-31 12:40:35,4110814,8173.000,1401.000,2447.000,1468.000,-2522.000,1832.000,0.000,0.000,0
2026-01-31 12:40:35,4110854,8856.000,1670.000,2605.000,1502.000,-2825.000,2121.000,0.000,0.000,0
2026-01-31 12:40:35,4110894,9817.000,1974.000,2703.000,997.000,-3405.000,2210.000,0.000,0.000,0
2026-01-31 12:40:35,4110934,12180.000,2474.000,2428.000,-134.000,-3723.000,2140.000,0.000,0.000,0
2026-01-31 12:40:35,4110974,13231.000,2758.000,2088.000,-1326.000,-3209.000,1441.000,0.000,0.000,0
2026-01-31 12:40:35,4111014,10853.000,2469.000,2617.000,-2997.000,-2199.000,-10.000,0.000,0.000,0
2026-01-31 12:40:35,4111054,8415.000,1968.000,2540.000,-5045.000,-1714.000,-1822.000,0.000,0.000,0
2026-01-31 12:40:35,4111094,9101.000,1852.000,1485.000,-5848.000,-1118.000,-2937.000,0.000,0.000,0
2026-01-31 12:40:35,4111134,8863.000,1877.000,1257.000,-5761.000,1050.000,-2811.000,0.000,0.000,0
2026-01-31 12:40:35,4111174,9037.000,1824.000,817.000,-5696.000,2226.000,-2401.000,0.000,0.000,0
2026-01-31 12:40:35,4111214,8791.000,1547.000,178.000,-4891.000,3226.000,-2057.000,0.000,0.000,0
2026-01-31 12:40:35,4111254,7170.000,1419.000,-67.000,-2857.000,3905.000,-2261.000,0.000,0.000,0
2026-01-31 12:40:35,4111294,5740.000,1337.000,-144.000,-1078.000,3756.000,-3094.000,0.000,0.000,0
2026-01-31 12:40:35,4111334,5011.000,1376.000,-291.000,-291.000,3095.000,-4086.000,0.000,0.000,0
2026-01-31 12:40:35,4111374,4967.000,1406.000,-486.000,-206.000,2183.000,-4559.000,0.000,0.000,0
2026-01-31 12:40:36,4111414,5108.000,1468.000,-508.000,-319.000,1449.000,-4151.000,0.000,0.000,0
2026-01-31 12:40:36,4111454,5748.000,1473.000,-668.000,-16.000,811.000,-2833.000,0.000,0.000,0
2026-01-31 12:40:36,4111494,6830.000,1877.000,-648.000,645.000,241.000,-1016.000,0.000,0.000,0
2026-01-31 12:40:36,4111534,9165.000,2208.000,-561.000,728.000,-1148.000,1475.000,0.000,0.000,0
2026-01-31 12:40:36,4111574,12806.000,2840.000,159.000,-672.000,-3011.000,2644.000,0.000,0.000,0
2026-01-31 12:40:36,4111614,13778.000,2500.000,1230.000,-3480.000,-3718.000,2965.000,0.000,0.000,0
2026-01-31 12:40:36,4111654,13595.000,-780.000,-86.000,-4750.000,-4139.000,3138.000,0.000,0.000,0
2026-01-31 12:40:36,4111696,12707.000,-669.000,-103.000,-625.000,-4394.000,4278.000,0.000,0.000,0
2026-01-31 12:40:36,4111735,9699.000,-1095.000,1377.000,2776.000,-3741.000,5966.000,0.000,0.000,0
2026-01-31 12:40:36,4111774,7947.000,-633.000,2538.000,3777.000,-2454.000,6331.000,0.000,0.000,0
2026-01-31 12:40:36,4111814,7931.000,-943.000,978.000,2154.000,-744.000,5468.000,0.000,0.000,0
2026-01-31 12:40:36,4111854,7319.000,-74.000,825.000,1601.000,408.000,4051.000,0.000,0.000,0
2026-01-31 12:40:36,4111894,7071.000,-442.000,1613.000,-139.000,782.000,1983.000,0.000,0.000,0
2026-01-31 12:40:36,4111934,6050.000,-524.000,1150.000,2748.000,1767.000,-88.000,0.000,0.000,0
2026-01-31 12:40:36,4111977,4320.000,163.000,1015.000,7173.000,2205.000,-662.000,0.000,0.000,0
2026-01-31 12:40:36,4112014,3685.000,1386.000,904.000,9626.000,1998.000,-993.000,0.000,0.000,0
2026-01-31 12:40:36,4112054,3812.000,2131.000,965.000,8046.000,1580.000,-1040.000,0.000,0.000,0
2026-01-31 12:40:36,4112094,4633.000,2015.000,664.000,5259.000,1375.000,-633.000,0.000,0.000,0
2026-01-31 12:40:36,4112134,5478.000,1856.000,423.000,4301.000,1153.000,-63.000,0.000,0.000,0
2026-01-31 12:40:36,4112174,6230.000,2431.000,1540.000,3815.000,-296.000,-58.000,0.000,0.000,0
2026-01-31 12:40:36,4112214,9333.000,3427.000,4515.000,-1118.000,-2590.000,-101.000,0.000,0.000,0
2026-01-31 12:40:36,4112254,10984.000,3185.000,4012.000,-7345.000,-2926.000,30.000,0.000,0.000,0
2026-01-31 12:40:36,4112294,11638.000,646.000,2532.000,-9636.000,-2029.000,-448.000,0.000,0.000,0
2026-01-31 12:40:36,4112334,13369.000,-152.000,1747.000,-3660.000,-1357.000,-1284.000,0.000,0.000,0
2026-01-31 12:40:36,4112374,13439.000,1144.000,2333.000,-206.000,-124.000,-2070.000,0.000,0.000,0
2026-01-31 12:40:37,4112414,9120.000,1638.000,3063.000,69.000,1414.000,-3278.000,0.000,0.000,0
2026-01-31 12:40:37,4112454,9182.000,1752.000,1681.000,-732.000,1519.000,-4616.000,0.000,0.000,0
2026-01-31 12:40:37,4112494,9061.000,1836.000,870.000,-1798.000,2224.000,-4668.000,0.000,0.000,0
2026-01-31 12:40:37,4112534,8417.000,1870.000,443.000,-1790.000,2985.000,-3707.000,0.000,0.000,0
2026-01-31 12:40:37,4112574,7419.000,1809.000,-243.000,-1109.000,3516.000,-2634.000,0.000,0.000,0
2026-01-31 12:40:37,4112614,5911.000,1640.000,-484.000,-211.000,3400.000,-2249.000,0.000,0.000,0
2026-01-31 12:40:37,4112654,4485.000,1592.000,-166.000,48.000,2529.000,-2607.000,0.000,0.000,0
2026-01-31 12:40:37,4112694,4033.000,1643.000,-310.000,-1311.000,946.000,-3436.000,0.000,0.000,0
2026-01-31 12:40:37,4112734,4403.000,1473.000,-684.000,-2332.000,207.000,-3410.000,0.000,0.000,0
2026-01-31 12:40:37,4112774,5161.000,1151.000,-930.000,-2270.000,-356.000,-2588.000,0.000,0.000,0
2026-01-31 12:40:37,4112814,6457.000,1310.000,-1017.000,-682.000,-860.000,-914.000,0.000,0.000,0
2026-01-31 12:40:37,4112854,8327.000,1944.000,-1019.000,1327.000,-1471.000,1195.000,0.000,0.000,0
2026-01-31 12:40:37,4112894,10724.000,2456.000,-597.000,2028.000,-2776.000,2819.000,0.000,0.000,0
2026-01-31 12:40:37,4112934,13404.000,3136.000,775.000,517.000,-4512.000,3572.000,0.000,0.000,0
2026-01-31 12:40:37,4112974,16145.000,3832.000,1137.000,-4964.000,-6222.000,3381.000,0.000,0.000,0
2026-01-31 12:40:37,4113014,15718.000,3599.000,932.000,-14698.000,-7552.000,2876.000,0.000,0.000,0
2026-01-31 12:40:37,4113054,12690.000,-1425.000,1413.000,-21799.000,-7289.000,2392.000,0.000,0.000,0
2026-01-31 12:40:37,4113094,6364.000,-4341.000,2145.000,-7280.000,-5106.000,1537.000,0.000,0.000,0
2026-01-31 12:40:37,4113134,6643.000,-3060.000,2605.000,5684.000,-3462.000,2233.000,0.000,0.000,0
2026-01-31 12:40:37,4113174,7624.000,-6.000,1584.000,8740.000,-764.000,3008.000,0.000,0.000,0
2026-01-31 12:40:37,4113214,7185.000,1196.000,398.000,6810.000,2078.000,2921.000,0.000,0.000,0
2026-01-31 12:40:37,4113254,6761.000,1049.000,26.000,5043.000,3984.000,1797.000,0.000,0.000,0
2026-01-31 12:40:37,4113294,5804.000,438.000,587.000,6329.000,5071.000,790.000,0.000,0.000,0
2026-01-31 12:40:37,4113334,4401.000,508.000,801.000,10537.000,5924.000,-660.000,0.000,0.000,0
2026-01-31 12:40:37,4113374,3631.000,1202.000,273.000,14546.000,5900.000,-2397.000,0.000,0.000,0
2026-01-31 12:40:38,4113414,3510.000,1773.000,-40.000,15276.000,4858.000,-3519.000,0.000,0.000,0
2026-01-31 12:40:38,4113454,4158.000,2236.000,-232.000,12781.000,2393.000,-3605.000,0.000,0.000,0
2026-01-31 12:40:38,4113494,5718.000,2697.000,-39.000,6472.000,115.000,-2239.000,0.000,0.000,0
2026-01-31 12:40:38,4113534,7281.000,4018.000,2076.000,1042.000,-2977.000,-156.000,0.000,0.000,0
2026-01-31 12:40:38,4113574,10200.000,4374.000,4195.000,-8311.000,-6034.000,2315.000,0.000,0.000,0
2026-01-31 12:40:38,4113614,11007.000,3182.000,3418.000,-16647.000,-7095.000,3296.000,0.000,0.000,0
2026-01-31 12:40:38,4113654,12106.000,1643.000,1739.000,-18598.000,-7085.000,2851.000,0.000,0.000,0
2026-01-31 12:40:38,4113694,14612.000,56.000,1320.000,-11742.000,-6177.000,3528.000,0.000,0.000,0
2026-01-31 12:40:38,4113734,11557.000,273.000,2851.000,-4709.000,-2411.000,4356.000,0.000,0.000,0
2026-01-31 12:40:38,4113774,9037.000,-31.000,1859.000,524.000,612.000,3131.000,0.000,0.000,0
2026-01-31 12:40:38,4113814,9271.000,477.000,424.000,2633.000,2146.000,1578.000,0.000,0.000,0
2026-01-31 12:40:38,4113854,8442.000,2391.000,188.000,5945.000,3887.000,225.000,0.000,0.000,0
2026-01-31 12:40:38,4113894,7666.000,3089.000,93.000,7343.000,4504.000,-1218.000,0.000,0.000,0
2026-01-31 12:40:38,4113934,5624.000,2813.000,447.000,6411.000,4239.000,-3056.000,0.000,0.000,0
2026-01-31 12:40:38,4113976,4194.000,2470.000,609.000,3541.000,3025.000,-4650.000,0.000,0.000,0
2026-01-31 12:40:38,4114014,3824.000,2223.000,73.000,87.000,1728.000,-5649.000,0.000,0.000,0
2026-01-31 12:40:38,4114054,4055.000,1848.000,-543.000,-2766.000,803.000,-5854.000,0.000,0.000,0
2026-01-31 12:40:38,4114094,5037.000,1027.000,-770.000,-4015.000,223.000,-5240.000,0.000,0.000,0
2026-01-31 12:40:38,4114134,7178.000,162.000,-937.000,-2020.000,-63.000,-3287.000,0.000,0.000,0
2026-01-31 12:40:38,4114174,10338.000,1156.000,-606.000,1632.000,-417.000,-1051.000,0.000,0.000,0
2026-01-31 12:40:38,4114214,13011.000,2614.000,243.000,2911.000,-762.000,1136.000,0.000,0.000,0
2026-01-31 12:40:38,4114254,14876.000,1734.000,536.000,-915.000,-2084.000,2914.000,0.000,0.000,0
2026-01-31 12:40:38,4114294,14469.000,1696.000,997.000,-2891.000,-3269.000,3241.000,0.000,0.000,0
2026-01-31 12:40:38,4114334,10344.000,1656.000,2942.000,-5874.000,-3057.000,3018.000,0.000,0.000,0
2026-01-31 12:40:38,4114374,7197.000,-1066.000,2616.000,-7620.000,-1972.000,2032.000,0.000,0.000,0
2026-01-31 12:40:39,4114414,7353.000,-3695.000,748.000,-2072.000,-1113.000,2235.000,0.000,0.000,0
2026-01-31 12:40:39,4114454,7828.000,-1830.000,608.000,5489.000,166.000,2969.000,0.000,0.000,0
2026-01-31 12:40:39,4114494,7503.000,-453.000,1299.000,7192.000,1534.000,2812.000,0.000,0.000,0
2026-01-31 12:40:39,4114534,6731.000,786.000,1784.000,6848.000,2259.000,2037.000,0.000,0.000,0
2026-01-31 12:40:39,4114574,4888.000,1147.000,2034.000,5315.000,2696.000,1359.000,0.000,0.000,0
2026-01-31 12:40:39,4114614,3590.000,1042.000,1352.000,5133.000,2458.000,668.000,0.000,0.000,0
2026-01-31 12:40:39,4114654,3399.000,1051.000,522.000,4870.000,1960.000,369.000,0.000,0.000,0
2026-01-31 12:40:39,4114694,3909.000,1351.000,474.000,4699.000,1070.000,418.000,0.000,0.000,0
2026-01-31 12:40:39,4114734,5901.000,1793.000,1249.000,3790.000,-72.000,836.000,0.000,0.000,0
2026-01-31 12:40:39,4114774,7164.000,2091.000,1743.000,2156.000,-922.000,1361.000,0.000,0.000,0
2026-01-31 12:40:39,4114814,8621.000,2085.000,1850.000,593.000,-2047.000,2068.000,0.000,0.000,0
2026-01-31 12:40:39,4114854,10057.000,2345.000,2332.000,-842.000,-3134.000,2662.000,0.000,0.000,0
2026-01-31 12:40:39,4114894,11129.000,1988.000,2404.000,-2303.000,-3780.000,2447.000,0.000,0.000,0
2026-01-31 12:40:39,4114934,13734.000,1898.000,2006.000,-2512.000,-4249.000,1810.000,0.000,0.000,0
2026-01-31 12:40:39,4114974,13129.000,2448.000,2941.000,-3223.000,-3238.000,1018.000,0.000,0.000,0
2026-01-31 12:40:39,4115014,8455.000,1326.000,2546.000,-5822.000,-1418.000,-2164.000,0.000,0.000,0
2026-01-31 12:40:39,4115054,8779.000,617.000,1158.000,-6164.000,-97.000,-3679.000,0.000,0.000,0
2026-01-31 12:40:39,4115094,7769.000,452.000,520.000,-4030.000,1783.000,-3715.000,0.000,0.000,0
2026-01-31 12:40:39,4115134,7280.000,716.000,516.000,-1419.000,3110.000,-2901.000,0.000,0.000,0
2026-01-31 12:40:39,4115174,7387.000,1241.000,560.000,336.000,3968.000,-2190.000,0.000,0.000,0
2026-01-31 12:40:39,4115214,7055.000,1760.000,502.000,1279.000,4729.000,-2056.000,0.000,0.000,0
2026-01-31 12:40:39,4115254,6797.000,1763.000,-106.000,1602.000,4516.000,-2401.000,0.000,0.000,0
2026-01-31 12:40:39,4115294,6727.000,2476.000,-162.000,17.000,3171.000,-2852.000,0.000,0.000,0
2026-01-31 12:40:39,4115334,5781.000,2203.000,95.000,-3686.000,1897.000,-3375.000,0.000,0.000,0
2026-01-31 12:40:39,4115374,6522.000,1697.000,-328.000,-6189.000,318.000,-3215.000,0.000,0.000,0
2026-01-31 12:40:40,4115414,6139.000,1576.000,322.000,-5447.000,-1211.000,-1708.000,0.000,0.000,0
2026-01-31 12:40:40,4115454,6558.000,1671.000,504.000,-4250.000,-2240.000,-640.000,0.000,0.000,0
2026-01-31 12:40:40,4115494,7644.000,2061.000,675.000,-3768.000,-3107.000,405.000,0.000,0.000,0
2026-01-31 12:40:40,4115534,9693.000,2981.000,1387.000,-4314.000,-3827.000,1631.000,0.000,0.000,0
2026-01-31 12:40:40,4115574,10563.000,3079.000,1958.000,-6050.000,-3606.000,2183.000,0.000,0.000,0
2026-01-31 12:40:40,4115614,11422.000,2068.000,1381.000,-6749.000,-3360.000,1733.000,0.000,0.000,0
2026-01-31 12:40:40,4115656,12439.000,1432.000,948.000,-5366.000,-3039.000,1251.000,0.000,0.000,0
2026-01-31 12:40:40,4115696,12464.000,1485.000,1535.000,-2817.000,-2312.000,818.000,0.000,0.000,0
2026-01-31 12:40:40,4115734,9797.000,1143.000,1870.000,-428.000,-527.000,-675.000,0.000,0.000,0
2026-01-31 12:40:40,4115774,8105.000,4.000,1269.000,905.000,1325.000,-3252.000,0.000,0.000,0
2026-01-31 12:40:40,4115814,8225.000,491.000,1243.000,3060.000,2576.000,-3754.000,0.000,0.000,0
2026-01-31 12:40:40,4115854,7983.000,978.000,1587.000,3553.000,3931.000,-3704.000,0.000,0.000,0
2026-01-31 12:40:40,4115894,7303.000,1041.000,1746.000,2790.000,4864.000,-3800.000,0.000,0.000,0
2026-01-31 12:40:40,4115934,6045.000,634.000,1794.000,2357.000,5093.000,-3582.000,0.000,0.000,0
2026-01-31 12:40:40,4115977,5237.000,1467.000,2188.000,2977.000,4686.000,-3190.000,0.000,0.000,0
2026-01-31 12:40:40,4116014,4897.000,2095.000,2123.000,4017.000,4273.000,-3103.000,0.000,0.000,0
2026-01-31 12:40:40,4116054,3630.000,1497.000,1812.000,4649.000,3930.000,-3260.000,0.000,0.000,0
2026-01-31 12:40:40,4116094,3706.000,2724.000,1744.000,5575.000,3051.000,-3404.000,0.000,0.000,0
2026-01-31 12:40:40,4116134,3991.000,3557.000,2851.000,6505.000,3306.000,-3491.000,0.000,0.000,0
2026-01-31 12:40:40,4116174,3691.000,4916.000,2551.000,7677.000,3272.000,-2742.000,0.000,0.000,0
2026-01-31 12:40:40,4116214,4402.000,7084.000,3472.000,6857.000,2874.000,-2221.000,0.000,0.000,0
2026-01-31 12:40:40,4116254,4415.000,7299.000,3353.000,5615.000,1922.000,-2480.000,0.000,0.000,0
2026-01-31 12:40:40,4116294,5289.000,10748.000,3722.000,4978.000,537.000,-2986.000,0.000,0.000,0
2026-01-31 12:40:40,4116334,4817.000,9667.000,4049.000,-970.000,-51.000,-3277.000,0.000,0.000,0
2026-01-31 12:40:40,4116374,4022.000,8025.000,3206.000,-1920.000,-588.000,-3521.000,0.000,0.000,0
2026-01-31 12:40:41,4116414,5116.000,10355.000,2084.000,85.000,-1329.000,-2644.000,0.000,0.000,0
2026-01-31 12:40:41,4116454,5675.000,11627.000,1390.000,66.000,-1154.000,-1554.000,0.000,0.000,0
2026-01-31 12:40:41,4116494,4138.000,7884.000,1354.000,-1848.000,-1087.000,-2581.000,0.000,0.000,0
2026-01-31 12:40:41,4116534,3007.000,5505.000,994.000,-1007.000,-2212.000,-3807.000,0.000,0.000,0
2026-01-31 12:40:41,4116574,2513.000,6910.000,344.000,2236.000,-2521.000,-2820.000,0.000,0.000,0
2026-01-31 12:40:41,4116614,2121.000,6737.000,-82.000,642.000,-2305.000,-1761.000,0.000,0.000,0
2026-01-31 12:40:41,4116654,2015.000,6398.000,-129.000,-2689.000,-2374.000,-1166.000,0.000,0.000,0
2026-01-31 12:40:41,4116694,1816.000,5715.000,233.000,-3770.000,-2237.000,-890.000,0.000,0.000,0
2026-01-31 12:40:41,4116734,1831.000,5080.000,460.000,-3531.000,-2339.000,-1048.000,0.000,0.000,0
2026-01-31 12:40:41,4116774,2110.000,4947.000,695.000,-2995.000,-2525.000,-1522.000,0.000,0.000,0
2026-01-31 12:40:41,4116814,2111.000,4539.000,1098.000,-2534.000,-2438.000,-1668.000,0.000,0.000,0
2026-01-31 12:40:41,4116854,2186.000,4829.000,1383.000,-1236.000,-2269.000,-1330.000,0.000,0.000,0
2026-01-31 12:40:41,4116894,2420.000,6024.000,1512.000,101.000,-2094.000,-477.000,0.000,0.000,0
2026-01-31 12:40:41,4116934,3171.000,8415.000,1794.000,427.000,-2026.000,1129.000,0.000,0.000,0
2026-01-31 12:40:41,4116974,4231.000,9467.000,2296.000,-383.000,-2384.000,2001.000,0.000,0.000,0
2026-01-31 12:40:41,4117014,5845.000,10278.000,2768.000,-994.000,-2608.000,2660.000,0.000,0.000,0
2026-01-31 12:40:41,4117054,7315.000,10463.000,2115.000,519.000,-2163.000,3488.000,0.000,0.000,0
2026-01-31 12:40:41,4117094,7533.000,10411.000,1342.000,3161.000,-979.000,3959.000,0.000,0.000,0
2026-01-31 12:40:41,4117134,6248.000,9052.000,1314.000,3764.000,251.000,3651.000,0.000,0.000,0
2026-01-31 12:40:41,4117174,5344.000,5785.000,1297.000,1450.000,822.000,2659.000,0.000,0.000,0
2026-01-31 12:40:41,4117214,5113.000,3856.000,1052.000,82.000,1744.000,1942.000,0.000,0.000,0
2026-01-31 12:40:41,4117254,5505.000,4693.000,485.000,812.000,3202.000,1903.000,0.000,0.000,0
2026-01-31 12:40:41,4117294,5262.000,5889.000,357.000,2179.000,4733.000,1748.000,0.000,0.000,0
2026-01-31 12:40:41,4117334,3485.000,5290.000,1447.000,2114.000,5126.000,983.000,0.000,0.000,0
2026-01-31 12:40:41,4117374,2409.000,5302.000,1554.000,2842.000,4708.000,344.000,0.000,0.000,0
2026-01-31 12:40:42,4117414,1463.000,4559.000,1306.000,3074.000,3780.000,-487.000,0.000,0.000,0
2026-01-31 12:40:42,4117454,1268.000,4712.000,1439.000,2864.000,2609.000,-1330.000,0.000,0.000,0
2026-01-31 12:40:42,4117494,1010.000,3887.000,1623.000,2561.000,1859.000,-1680.000,0.000,0.000,0
2026-01-31 12:40:42,4117534,1549.000,5193.000,1574.000,4025.000,1210.000,-2028.000,0.000,0.000,0
2026-01-31 12:40:42,4117574,2406.000,6678.000,1818.000,3665.000,625.000,-1636.000,0.000,0.000,0
2026-01-31 12:40:42,4117614,3227.000,8295.000,1671.000,1672.000,279.000,-942.000,0.000,0.000,0
2026-01-31 12:40:42,4117654,4473.000,11641.000,1918.000,120.000,-204.000,-681.000,0.000,0.000,0
2026-01-31 12:40:42,4117694,5111.000,11342.000,2571.000,-3803.000,-453.000,-966.000,0.000,0.000,0
2026-01-31 12:40:42,4117734,4426.000,11136.000,2674.000,-4006.000,-1080.000,-1709.000,0.000,0.000,0
2026-01-31 12:40:42,4117774,4016.000,9417.000,2503.000,-3950.000,-1384.000,-1026.000,0.000,0.000,0
2026-01-31 12:40:42,4117814,3000.000,6488.000,2229.000,-5311.000,-1976.000,-911.000,0.000,0.000,0
2026-01-31 12:40:42,4117854,2654.000,5930.000,1915.000,-4683.000,-2682.000,-42.000,0.000,0.000,0
2026-01-31 12:40:42,4117894,4110.000,8850.000,1898.000,-5169.000,-3048.000,1089.000,0.000,0.000,0
2026-01-31 12:40:42,4117934,4328.000,9067.000,1878.000,-6457.000,-2293.000,1335.000,0.000,0.000,0
2026-01-31 12:40:42,4117976,3907.000,6706.000,1700.000,-8115.000,-1595.000,64.000,0.000,0.000,0
2026-01-31 12:40:42,4118014,2651.000,4023.000,1538.000,-5265.000,-1087.000,-1462.000,0.000,0.000,0
2026-01-31 12:40:42,4118054,1677.000,3330.000,1438.000,-186.000,-954.000,-2549.000,0.000,0.000,0
2026-01-31 12:40:42,4118094,1190.000,4037.000,1125.000,2259.000,-1439.000,-3259.000,0.000,0.000,0
2026-01-31 12:40:42,4118134,1176.000,4180.000,1097.000,2493.000,-2160.000,-3244.000,0.000,0.000,0
2026-01-31 12:40:42,4118174,1487.000,5550.000,1551.000,3741.000,-2968.000,-2531.000,0.000,0.000,0
2026-01-31 12:40:42,4118214,2350.000,8226.000,1909.000,4282.000,-3757.000,-1231.000,0.000,0.000,0
2026-01-31 12:40:42,4118254,3405.000,9722.000,1603.000,3745.000,-4483.000,-212.000,0.000,0.000,0
2026-01-31 12:40:42,4118294,5059.000,10767.000,2097.000,3283.000,-4778.000,393.000,0.000,0.000,0
2026-01-31 12:40:42,4118334,6916.000,10841.000,2413.000,1950.000,-4161.000,714.000,0.000,0.000,0
2026-01-31 12:40:42,4118374,7398.000,10278.000,1659.000,1021.000,-2463.000,1462.000,0.000,0.000,0
2026-01-31 12:40:43,4118414,7598.000,10720.000,1118.000,247.000,-570.000,2629.000,0.000,0.000,0
2026-01-31 12:40:43,4118454,7078.000,10027.000,1452.000,-4720.000,1090.000,2694.000,0.000,0.000,0
2026-01-31 12:40:43,4118494,6482.000,5307.000,1411.000,-8509.000,1767.000,2452.000,0.000,0.000,0
2026-01-31 12:40:43,4118534,5970.000,2859.000,1434.000,-8173.000,4143.000,3191.000,0.000,0.000,0
2026-01-31 12:40:43,4118574,5727.000,3075.000,2235.000,-4063.000,4366.000,4837.000,0.000,0.000,0
2026-01-31 12:40:43,4118614,4491.000,3545.000,2713.000,-3182.000,4601.000,5544.000,0.000,0.000,0
2026-01-31 12:40:43,4118654,3301.000,3278.000,3071.000,-2989.000,3741.000,5505.000,0.000,0.000,0
2026-01-31 12:40:43,4118694,2107.000,2007.000,2890.000,-1843.000,2988.000,4785.000,0.000,0.000,0
2026-01-31 12:40:43,4118734,1588.000,2054.000,2866.000,1184.000,2375.000,3838.000,0.000,0.000,0
2026-01-31 12:40:43,4118774,1550.000,3270.000,3249.000,3495.000,2017.000,2926.000,0.000,0.000,0
2026-01-31 12:40:43,4118814,1811.000,3973.000,3641.000,4271.000,1789.000,1520.000,0.000,0.000,0
2026-01-31 12:40:43,4118854,2400.000,4605.000,5864.000,5846.000,1555.000,482.000,0.000,0.000,0
2026-01-31 12:40:43,4118894,3361.000,7850.000,6533.000,3046.000,1279.000,-512.000,0.000,0.000,0
2026-01-31 12:40:43,4118934,4504.000,8499.000,7347.000,-1272.000,784.000,-783.000,0.000,0.000,0
2026-01-31 12:40:43,4118974,5177.000,6252.000,7431.000,-4221.000,679.000,-1727.000,0.000,0.000,0
2026-01-31 12:40:43,4119014,4590.000,5202.000,7495.000,-1242.000,426.000,-2387.000,0.000,0.000,0
2026-01-31 12:40:43,4119054,5028.000,9908.000,9123.000,1482.000,-614.000,-2745.000,0.000,0.000,0
2026-01-31 12:40:43,4119094,4909.000,9460.000,7713.000,-3159.000,-693.000,-3833.000,0.000,0.000,0
2026-01-31 12:40:43,4119134,3418.000,4698.000,5021.000,-4825.000,-385.000,-5253.000,0.000,0.000,0
2026-01-31 12:40:43,4119174,2811.000,4773.000,5091.000,-2170.000,-936.000,-5688.000,0.000,0.000,0
2026-01-31 12:40:43,4119214,2778.000,6086.000,5325.000,-1773.000,-1346.000,-5291.000,0.000,0.000,0
2026-01-31 12:40:43,4119254,2501.000,4765.000,3963.000,-3587.000,-1187.000,-4051.000,0.000,0.000,0
2026-01-31 12:40:43,4119294,2280.000,3330.000,3276.000,-3457.000,-943.000,-3147.000,0.000,0.000,0
2026-01-31 12:40:43,4119334,2150.000,3019.000,2907.000,-1328.000,-518.000,-2555.000,0.000,0.000,0
2026-01-31 12:40:43,4119374,1809.000,2943.000,2526.000,677.000,-246.000,-2112.000,0.000,0.000,0
2026-01-31 12:40:44,4119414,1379.000,2976.000,2414.000,2395.000,-477.000,-1732.000,0.000,0.000,0
2026-01-31 12:40:44,4119454,1479.000,4213.000,3233.000,3942.000,-1408.000,-1362.000,0.000,0.000,0
2026-01-31 12:40:44,4119494,2020.000,6453.000,4595.000,4389.000,-2510.000,-981.000,0.000,0.000,0
2026-01-31 12:40:44,4119534,2041.000,7645.000,5093.000,2530.000,-3273.000,-760.000,0.000,0.000,0
2026-01-31 12:40:44,4119574,2307.000,8143.000,5582.000,761.000,-4293.000,-732.000,0.000,0.000,0
2026-01-31 12:40:44,4119614,3787.000,9101.000,6757.000,-1466.000,-5366.000,-441.000,0.000,0.000,0
2026-01-31 12:40:44,4119656,6056.000,7656.000,6824.000,-4235.000,-4942.000,41.000,0.000,0.000,0
2026-01-31 12:40:44,4119695,7476.000,6688.000,6030.000,-1797.000,-3958.000,1059.000,0.000,0.000,0
2026-01-31 12:40:44,4119736,7535.000,8043.000,6304.000,-146.000,-2615.000,2415.000,0.000,0.000,0
2026-01-31 12:40:44,4119774,7356.000,6479.000,5216.000,-1930.000,-1019.000,2675.000,0.000,0.000,0
2026-01-31 12:40:44,4119814,6950.000,2753.000,3383.000,-1399.000,844.000,2517.000,0.000,0.000,0
2026-01-31 12:40:44,4119854,6918.000,2179.000,2545.000,3005.000,2369.000,2861.000,0.000,0.000,0
2026-01-31 12:40:44,4119894,6982.000,3591.000,2348.000,6546.000,3818.000,3583.000,0.000,0.000,0
2026-01-31 12:40:44,4119934,5732.000,3950.000,2238.000,6709.000,5134.000,3941.000,0.000,0.000,0
2026-01-31 12:40:44,4119979,3992.000,3571.000,2310.000,5100.000,5429.000,4122.000,0.000,0.000,0
2026-01-31 12:40:44,4120014,2850.000,1882.000,2037.000,3278.000,4704.000,4422.000,0.000,0.000,0
2026-01-31 12:40:44,4120054,2565.000,2062.000,2275.000,3518.000,3991.000,4385.000,0.000,0.000,0
2026-01-31 12:40:44,4120094,2973.000,1776.000,2952.000,3042.000,3916.000,4776.000,0.000,0.000,0
2026-01-31 12:40:44,4120134,3261.000,2669.000,2599.000,3673.000,3878.000,5750.000,0.000,0.000,0
2026-01-31 12:40:44,4120174,3902.000,5798.000,4368.000,3136.000,3319.000,6990.000,0.000,0.000,0
2026-01-31 12:40:44,4120214,4160.000,6564.000,5708.000,994.000,2236.000,7156.000,0.000,0.000,0
2026-01-31 12:40:44,4120254,4923.000,7136.000,6421.000,706.000,461.000,5580.000,0.000,0.000,0
2026-01-31 12:40:44,4120294,5302.000,8990.000,7398.000,2651.000,-413.000,2301.000,0.000,0.000,0
2026-01-31 12:40:44,4120334,4465.000,9710.000,7128.000,3214.000,-686.000,-1123.000,0.000,0.000,0
2026-01-31 12:40:44,4120374,4668.000,10919.000,7310.000,1105.000,-1532.000,-3182.000,0.000,0.000,0
2026-01-31 12:40:45,4120414,4761.000,8964.000,6276.000,-2944.000,-1315.000,-6203.000,0.000,0.000,0
2026-01-31 12:40:45,4120454,3955.000,6253.000,4677.000,-5207.000,-1113.000,-8272.000,0.000,0.000,0
2026-01-31 12:40:45,4120494,4349.000,6993.000,4662.000,-4487.000,-1531.000,-8838.000,0.000,0.000,0
2026-01-31 12:40:45,4120534,4831.000,7580.000,4656.000,-6219.000,-1410.000,-8474.000,0.000,0.000,0
2026-01-31 12:40:45,4120574,4779.000,6202.000,3856.000,-8458.000,-756.000,-7826.000,0.000,0.000,0
2026-01-31 12:40:45,4120614,4172.000,4271.000,3201.000,-7826.000,99.000,-6955.000,0.000,0.000,0
2026-01-31 12:40:45,4120654,3663.000,2929.000,2644.000,-5179.000,671.000,-5994.000,0.000,0.000,0
2026-01-31 12:40:45,4120694,3042.000,1851.000,1902.000,-2080.000,1140.000,-5027.000,0.000,0.000,0
2026-01-31 12:40:45,4120734,2362.000,1162.000,1194.000,1373.000,1275.000,-4010.000,0.000,0.000,0
2026-01-31 12:40:45,4120774,1839.000,944.000,687.000,4305.000,786.000,-2737.000,0.000,0.000,0
2026-01-31 12:40:45,4120814,1364.000,1646.000,597.000,7817.000,-1157.000,641.000,0.000,0.000,0
2026-01-31 12:40:45,4120854,3463.000,6860.000,2008.000,8938.000,-2983.000,3626.000,0.000,0.000,0
2026-01-31 12:40:45,4120894,4666.000,9106.000,3400.000,5072.000,-3930.000,7021.000,0.000,0.000,0
2026-01-31 12:40:45,4120934,7339.000,13968.000,5939.000,-2243.000,-5690.000,8132.000,0.000,0.000,0
2026-01-31 12:40:45,4120974,9077.000,13648.000,7685.000,-18221.000,-6529.000,5668.000,0.000,0.000,0
2026-01-31 12:40:45,4121014,9700.000,3861.000,7620.000,-18296.000,-6978.000,1435.000,0.000,0.000,0
2026-01-31 12:40:45,4121054,9562.000,2306.000,8496.000,-2700.000,-6353.000,-950.000,0.000,0.000,0
2026-01-31 12:40:45,4121094,8343.000,4258.000,6647.000,6907.000,-3630.000,-1533.000,0.000,0.000,0
2026-01-31 12:40:45,4121134,5834.000,3431.000,4241.000,8558.000,-588.000,-1058.000,0.000,0.000,0
2026-01-31 12:40:45,4121174,5373.000,3377.000,3583.000,7702.000,1054.000,56.000,0.000,0.000,0
2026-01-31 12:40:45,4121214,5638.000,4487.000,3490.000,6455.000,3221.000,2177.000,0.000,0.000,0
2026-01-31 12:40:45,4121254,5208.000,3695.000,3389.000,4713.000,4275.000,2854.000,0.000,0.000,0
2026-01-31 12:40:45,4121294,4584.000,3522.000,3813.000,2808.000,4391.000,2806.000,0.000,0.000,0
2026-01-31 12:40:45,4121334,3516.000,3034.000,4223.000,2017.000,4438.000,2361.000,0.000,0.000,0
2026-01-31 12:40:45,4121374,2155.000,2463.000,4280.000,1612.000,4314.000,1570.000,0.000,0.000,0
2026-01-31 12:40:46,4121414,1737.000,2563.000,5202.000,438.000,4069.000,1028.000,0.000,0.000,0
2026-01-31 12:40:46,4121454,1153.000,2859.000,4944.000,-765.000,3967.000,574.000,0.000,0.000,0
2026-01-31 12:40:46,4121494,1271.000,4191.000,5919.000,-1123.000,3668.000,570.000,0.000,0.000,0
2026-01-31 12:40:46,4121534,2040.000,5409.000,7579.000,-3992.000,2731.000,500.000,0.000,0.000,0
2026-01-31 12:40:46,4121574,4911.000,6162.000,8511.000,-5767.000,2117.000,1135.000,0.000,0.000,0
2026-01-31 12:40:46,4121614,6561.000,7637.000,9246.000,-8779.000,2004.000,104.000,0.000,0.000,0
2026-01-31 12:40:46,4121656,6743.000,4628.000,8397.000,-8913.000,2600.000,-1307.000,0.000,0.000,0
2026-01-31 12:40:46,4121695,6977.000,4021.000,7277.000,-5678.000,2727.000,-1332.000,0.000,0.000,0
2026-01-31 12:40:46,4121734,6686.000,3476.000,7528.000,-4442.000,1640.000,-569.000,0.000,0.000,0
2026-01-31 12:40:46,4121774,4979.000,3473.000,7496.000,-4104.000,419.000,-876.000,0.000,0.000,0
2026-01-31 12:40:46,4121814,4682.000,2805.000,6094.000,-5600.000,-996.000,-1144.000,0.000,0.000,0
2026-01-31 12:40:46,4121854,3690.000,1952.000,5331.000,-6878.000,-1773.000,-698.000,0.000,0.000,0
2026-01-31 12:40:46,4121894,4413.000,894.000,5126.000,-6063.000,-2694.000,-57.000,0.000,0.000,0
2026-01-31 12:40:46,4121934,4040.000,649.000,4618.000,-3468.000,-2784.000,509.000,0.000,0.000,0
2026-01-31 12:40:46,4121975,3312.000,802.000,4632.000,-2628.000,-3315.000,712.000,0.000,0.000,0
2026-01-31 12:40:46,4122014,2550.000,335.000,4787.000,-2950.000,-3369.000,220.000,0.000,0.000,0
2026-01-31 12:40:46,4122054,2460.000,396.000,4784.000,-5225.000,-3450.000,145.000,0.000,0.000,0
2026-01-31 12:40:46,4122094,2946.000,-260.000,4520.000,-7322.000,-3314.000,104.000,0.000,0.000,0
2026-01-31 12:40:46,4122134,4196.000,-1988.000,3594.000,-7479.000,-3256.000,7.000,0.000,0.000,0
2026-01-31 12:40:46,4122174,5610.000,-1492.000,4745.000,-4357.000,-3126.000,55.000,0.000,0.000,0
2026-01-31 12:40:46,4122214,6810.000,-2305.000,5651.000,-5020.000,-4178.000,471.000,0.000,0.000,0
2026-01-31 12:40:46,4122254,10920.000,-2175.000,5313.000,-3027.000,-2525.000,-290.000,0.000,0.000,0
2026-01-31 12:40:46,4122294,8504.000,-5936.000,3498.000,-5291.000,-2685.000,-1280.000,0.000,0.000,0
2026-01-31 12:40:46,4122334,10265.000,-4517.000,6312.000,-739.000,-3639.000,-912.000,0.000,0.000,0
2026-01-31 12:40:46,4122374,12308.000,-4381.000,5457.000,2836.000,-3852.000,1103.000,0.000,0.000,0
2026-01-31 12:40:47,4122414,10900.000,-4055.000,4837.000,2792.000,-2235.000,515.000,0.000,0.000,0
2026-01-31 12:40:47,4122454,8932.000,-6474.000,1867.000,3526.000,-1555.000,1648.000,0.000,0.000,0
2026-01-31 12:40:47,4122494,9704.000,-4497.000,619.000,12486.000,466.000,2582.000,0.000,0.000,0
2026-01-31 12:40:47,4122534,7130.000,-3752.000,1136.000,18282.000,2346.000,2337.000,0.000,0.000,0
2026-01-31 12:40:47,4122574,6668.000,-3710.000,1310.000,21216.000,3404.000,1325.000,0.000,0.000,0
2026-01-31 12:40:47,4122614,5352.000,-3167.000,2192.000,22349.000,4129.000,1678.000,0.000,0.000,0
2026-01-31 12:40:47,4122654,5812.000,-1263.000,4614.000,20348.000,6521.000,2744.000,0.000,0.000,0
2026-01-31 12:40:47,4122694,5842.000,-3970.000,262.000,22368.000,8284.000,3345.000,0.000,0.000,0
2026-01-31 12:40:47,4122734,1875.000,5358.000,-4953.000,32735.000,11261.000,1143.000,0.000,0.000,0
2026-01-31 12:40:47,4122774,1422.000,8583.000,-4595.000,32708.000,7961.000,-2651.000,0.000,0.000,0
2026-01-31 12:40:47,4122814,1530.000,5000.000,-5762.000,31447.000,3844.000,-6775.000,0.000,0.000,0
2026-01-31 12:40:47,4122854,1741.000,9797.000,-4747.000,30111.000,-498.000,-7029.000,0.000,0.000,0
2026-01-31 12:40:47,4122894,2094.000,8677.000,-4116.000,13003.000,-1797.000,-4177.000,0.000,0.000,0
2026-01-31 12:40:47,4122934,1623.000,5804.000,-4675.000,2647.000,-1780.000,-1133.000,0.000,0.000,0
2026-01-31 12:40:47,4122974,376.000,5358.000,-6657.000,1741.000,-539.000,759.000,0.000,0.000,0
2026-01-31 12:40:47,4123014,1108.000,6707.000,-8977.000,5337.000,587.000,1447.000,0.000,0.000,0
2026-01-31 12:40:47,4123054,3178.000,6317.000,-9792.000,5390.000,1214.000,1574.000,0.000,0.000,0
2026-01-31 12:40:47,4123094,2737.000,6492.000,-9320.000,3815.000,1144.000,1886.000,0.000,0.000,0
2026-01-31 12:40:47,4123134,4215.000,5276.000,-6668.000,2864.000,780.000,2348.000,0.000,0.000,0
2026-01-31 12:40:47,4123174,5473.000,4821.000,-5689.000,-2254.000,365.000,3038.000,0.000,0.000,0
2026-01-31 12:40:47,4123214,5957.000,5806.000,-3625.000,-6857.000,-539.000,3671.000,0.000,0.000,0
2026-01-31 12:40:47,4123254,6041.000,4894.000,-1963.000,-9844.000,-1564.000,4271.000,0.000,0.000,0
2026-01-31 12:40:47,4123294,4189.000,5167.000,-1317.000,-6894.000,-1138.000,4182.000,0.000,0.000,0
2026-01-31 12:40:47,4123334,2379.000,6743.000,288.000,-9334.000,-584.000,3480.000,0.000,0.000,0
2026-01-31 12:40:47,4123374,1774.000,4253.000,181.000,-15588.000,-754.000,2725.000,0.000,0.000,0
2026-01-31 12:40:48,4123414,1804.000,2424.000,-1433.000,-11361.000,-196.000,2756.000,0.000,0.000,0
2026-01-31 12:40:48,4123454,2220.000,3152.000,-1054.000,-9194.000,617.000,3319.000,0.000,0.000,0
2026-01-31 12:40:48,4123494,3114.000,2531.000,-169.000,-4542.000,429.000,3816.000,0.000,0.000,0
2026-01-31 12:40:48,4123534,7867.000,4515.000,-176.000,-4761.000,736.000,4078.000,0.000,0.000,0
2026-01-31 12:40:48,4123574,7830.000,4533.000,1322.000,-3789.000,0.000,3735.000,0.000,0.000,0
2026-01-31 12:40:48,4123614,10377.000,6833.000,713.000,-2804.000,692.000,4725.000,0.000,0.000,0
2026-01-31 12:40:48,4123654,9831.000,7149.000,890.000,-8806.000,21.000,5170.000,0.000,0.000,0
2026-01-31 12:40:48,4123694,11763.000,5407.000,1461.000,-16189.000,-3247.000,5537.000,0.000,0.000,0
2026-01-31 12:40:48,4123734,14221.000,5181.000,-1687.000,-21093.000,-5581.000,7446.000,0.000,0.000,0
2026-01-31 12:40:48,4123774,9096.000,5228.000,404.000,-27776.000,-6725.000,6546.000,0.000,0.000,0
2026-01-31 12:40:48,4123814,9346.000,1330.000,2753.000,-30592.000,-8525.000,1322.000,0.000,0.000,0
2026-01-31 12:40:48,4123854,10304.000,-2067.000,3004.000,-25086.000,-4156.000,-3574.000,0.000,0.000,0
2026-01-31 12:40:48,4123894,8433.000,-4796.000,2457.000,-5035.000,2110.000,-1841.000,0.000,0.000,0
2026-01-31 12:40:48,4123934,6487.000,-3197.000,2183.000,17165.000,4263.000,-1944.000,0.000,0.000,0
2026-01-31 12:40:48,4123977,6045.000,2161.000,4261.000,23857.000,4287.000,-1689.000,0.000,0.000,0
2026-01-31 12:40:48,4124014,3987.000,1704.000,4271.000,14014.000,4428.000,-795.000,0.000,0.000,0
2026-01-31 12:40:48,4124054,3125.000,1613.000,3641.000,4763.000,3871.000,29.000,0.000,0.000,0
2026-01-31 12:40:48,4124094,3107.000,305.000,1731.000,237.000,3455.000,1502.000,0.000,0.000,0
2026-01-31 12:40:48,4124134,3792.000,-1048.000,-741.000,2851.000,3185.000,2574.000,0.000,0.000,0
2026-01-31 12:40:48,4124174,4916.000,3348.000,-29.000,9071.000,3603.000,2372.000,0.000,0.000,0
2026-01-31 12:40:48,4124214,6503.000,1584.000,-814.000,4716.000,1775.000,2971.000,0.000,0.000,0
2026-01-31 12:40:48,4124254,8220.000,2690.000,-3.000,4224.000,-769.000,4398.000,0.000,0.000,0
2026-01-31 12:40:48,4124294,10531.000,3040.000,1171.000,3352.000,-2377.000,6204.000,0.000,0.000,0
2026-01-31 12:40:48,4124334,12529.000,4469.000,3117.000,2177.000,-6589.000,6852.000,0.000,0.000,0
2026-01-31 12:40:48,4124374,15078.000,4690.000,2114.000,-3521.000,-6764.000,6193.000,0.000,0.000,0
2026-01-31 12:40:49,4124414,9524.000,4827.000,2663.000,-9545.000,-4640.000,4115.000,0.000,0.000,0
2026-01-31 12:40:49,4124454,8933.000,2175.000,2378.000,-12849.000,-4332.000,417.000,0.000,0.000,0
2026-01-31 12:40:49,4124494,9562.000,647.000,789.000,-10297.000,-2255.000,-1424.000,0.000,0.000,0
2026-01-31 12:40:49,4124534,8918.000,537.000,569.000,-6387.000,310.000,-2018.000,0.000,0.000,0
2026-01-31 12:40:49,4124574,7751.000,565.000,1229.000,-3674.000,2067.000,-2091.000,0.000,0.000,0
2026-01-31 12:40:49,4124614,6591.000,1323.000,1442.000,-1510.000,2990.000,-2067.000,0.000,0.000,0
2026-01-31 12:40:49,4124654,4934.000,1764.000,924.000,-500.000,3650.000,-2827.000,0.000,0.000,0
2026-01-31 12:40:49,4124694,5000.000,1803.000,-300.000,-285.000,3147.000,-4102.000,0.000,0.000,0
2026-01-31 12:40:49,4124734,4940.000,1230.000,-1599.000,-909.000,2831.000,-4279.000,0.000,0.000,0
2026-01-31 12:40:49,4124774,6368.000,863.000,-2298.000,495.000,1859.000,-3722.000,0.000,0.000,0
2026-01-31 12:40:49,4124814,8562.000,1682.000,-1864.000,3230.000,1234.000,-2421.000,0.000,0.000,0
2026-01-31 12:40:49,4124854,10131.000,2309.000,-1082.000,3825.000,672.000,-833.000,0.000,0.000,0
2026-01-31 12:40:49,4124894,11541.000,2406.000,-591.000,2795.000,-432.000,763.000,0.000,0.000,0
2026-01-31 12:40:49,4124934,13509.000,2544.000,-5.000,-302.000,-2025.000,2302.000,0.000,0.000,0
2026-01-31 12:40:49,4124974,13267.000,2216.000,822.000,-2445.000,-2588.000,3009.000,0.000,0.000,0
2026-01-31 12:40:49,4125014,11120.000,2353.000,2065.000,-5009.000,-2550.000,3166.000,0.000,0.000,0
2026-01-31 12:40:49,4125054,7538.000,-1330.000,1986.000,-9051.000,-1331.000,2205.000,0.000,0.000,0
2026-01-31 12:40:49,4125094,8319.000,-3116.000,-255.000,-1916.000,659.000,1822.000,0.000,0.000,0
2026-01-31 12:40:49,4125134,8288.000,-1970.000,-240.000,4581.000,2175.000,1740.000,0.000,0.000,0
2026-01-31 12:40:49,4125174,7191.000,-848.000,505.000,6279.000,3092.000,988.000,0.000,0.000,0
2026-01-31 12:40:49,4125214,6401.000,462.000,1325.000,6861.000,3262.000,429.000,0.000,0.000,0
2026-01-31 12:40:49,4125254,4782.000,1003.000,1751.000,6731.000,3734.000,141.000,0.000,0.000,0
2026-01-31 12:40:49,4125294,3708.000,841.000,1205.000,7090.000,3504.000,300.000,0.000,0.000,0
2026-01-31 12:40:49,4125334,3157.000,703.000,299.000,7131.000,2941.000,284.000,0.000,0.000,0
2026-01-31 12:40:49,4125374,2973.000,1146.000,-80.000,6379.000,2054.000,422.000,0.000,0.000,0
2026-01-31 12:40:50,4125414,4733.000,1657.000,-91.000,5267.000,628.000,1145.000,0.000,0.000,0
2026-01-31 12:40:50,4125454,8002.000,2143.000,390.000,3455.000,-1167.000,3368.000,0.000,0.000,0
2026-01-31 12:40:50,4125494,10256.000,2749.000,898.000,2740.000,-2847.000,4691.000,0.000,0.000,0
2026-01-31 12:40:50,4125534,11690.000,3132.000,2626.000,558.000,-4500.000,4928.000,0.000,0.000,0
2026-01-31 12:40:50,4125574,13664.000,3196.000,3057.000,-4040.000,-5494.000,4313.000,0.000,0.000,0
2026-01-31 12:40:50,4125614,12843.000,3553.000,2213.000,-8471.000,-4976.000,3056.000,0.000,0.000,0
2026-01-31 12:40:50,4125658,8712.000,2667.000,2618.000,-11902.000,-3550.000,821.000,0.000,0.000,0
2026-01-31 12:40:50,4125694,9241.000,600.000,1083.000,-11740.000,-2826.000,-1784.000,0.000,0.000,0
2026-01-31 12:40:50,4125734,9540.000,63.000,-225.000,-7458.000,-546.000,-2502.000,0.000,0.000,0
2026-01-31 12:40:50,4125774,8671.000,233.000,12.000,-3366.000,1536.000,-2149.000,0.000,0.000,0
2026-01-31 12:40:50,4125814,7007.000,1195.000,596.000,-62.000,2815.000,-1681.000,0.000,0.000,0
2026-01-31 12:40:50,4125854,5482.000,1611.000,620.000,2912.000,3692.000,-2841.000,0.000,0.000,0
2026-01-31 12:40:50,4125894,4679.000,1520.000,522.000,2842.000,3050.000,-3914.000,0.000,0.000,0
2026-01-31 12:40:50,4125934,4571.000,1549.000,-186.000,1730.000,2318.000,-4578.000,0.000,0.000,0
2026-01-31 12:40:50,4125977,5421.000,1158.000,-1404.000,632.000,1666.000,-4506.000,0.000,0.000,0
2026-01-31 12:40:50,4126014,6803.000,1112.000,-1584.000,706.000,1286.000,-3735.000,0.000,0.000,0
2026-01-31 12:40:50,4126054,9308.000,1524.000,-1495.000,1009.000,1054.000,-2173.000,0.000,0.000,0
2026-01-31 12:40:50,4126094,11033.000,1793.000,-1535.000,1250.000,1018.000,-377.000,0.000,0.000,0
2026-01-31 12:40:50,4126134,12070.000,2368.000,-540.000,871.000,-34.000,1389.000,0.000,0.000,0
2026-01-31 12:40:50,4126174,13271.000,2381.000,110.000,-1373.000,-1369.000,2828.000,0.000,0.000,0
2026-01-31 12:40:50,4126214,12351.000,1918.000,1195.000,-3547.000,-2239.000,3893.000,0.000,0.000,0
2026-01-31 12:40:50,4126254,8527.000,908.000,2442.000,-8794.000,-1538.000,3598.000,0.000,0.000,0
2026-01-31 12:40:50,4126294,7134.000,-3222.000,1034.000,-8112.000,-621.000,2476.000,0.000,0.000,0
2026-01-31 12:40:50,4126334,7881.000,-3399.000,-275.000,357.000,387.000,2040.000,0.000,0.000,0
2026-01-31 12:40:50,4126374,8118.000,-1334.000,-37.000,4606.000,1885.000,1795.000,0.000,0.000,0
2026-01-31 12:40:51,4126414,7136.000,-610.000,810.000,4903.000,2801.000,1014.000,0.000,0.000,0
2026-01-31 12:40:51,4126454,6176.000,557.000,1630.000,4360.000,2961.000,308.000,0.000,0.000,0
2026-01-31 12:40:51,4126494,4858.000,1204.000,1889.000,4137.000,3055.000,237.000,0.000,0.000,0
2026-01-31 12:40:51,4126534,3786.000,1083.000,1472.000,4225.000,2703.000,364.000,0.000,0.000,0
2026-01-31 12:40:51,4126574,3398.000,1204.000,735.000,3948.000,2056.000,303.000,0.000,0.000,0
2026-01-31 12:40:51,4126614,4143.000,1464.000,1371.000,2105.000,561.000,291.000,0.000,0.000,0
2026-01-31 12:40:51,4126654,5854.000,2222.000,2695.000,555.000,-460.000,739.000,0.000,0.000,0
2026-01-31 12:40:51,4126694,6975.000,1735.000,3743.000,-3354.000,-948.000,1038.000,0.000,0.000,0
2026-01-31 12:40:51,4126734,8359.000,1223.000,3136.000,-3318.000,-1631.000,1161.000,0.000,0.000,0
2026-01-31 12:40:51,4126774,9158.000,556.000,2568.000,-1688.000,-2135.000,1059.000,0.000,0.000,0
2026-01-31 12:40:51,4126814,9643.000,722.000,2441.000,1202.000,-2393.000,908.000,0.000,0.000,0
2026-01-31 12:40:51,4126854,12616.000,1627.000,1610.000,3700.000,-3135.000,971.000,0.000,0.000,0
2026-01-31 12:40:51,4126894,13386.000,3373.000,2695.000,4006.000,-2175.000,1246.000,0.000,0.000,0
2026-01-31 12:40:51,4126934,8627.000,3187.000,3347.000,1327.000,-768.000,353.000,0.000,0.000,0
2026-01-31 12:40:51,4126974,8549.000,2484.000,965.000,-3060.000,-1460.000,-1710.000,0.000,0.000,0
2026-01-31 12:40:51,4127014,8750.000,1777.000,462.000,-6546.000,-200.000,-3308.000,0.000,0.000,0
2026-01-31 12:40:51,4127054,8430.000,1115.000,320.000,-5184.000,1038.000,-3349.000,0.000,0.000,0
2026-01-31 12:40:51,4127094,7964.000,915.000,-23.000,-2821.000,1838.000,-3267.000,0.000,0.000,0
2026-01-31 12:40:51,4127134,6905.000,1016.000,16.000,-98.000,2021.000,-3310.000,0.000,0.000,0
2026-01-31 12:40:51,4127174,6128.000,1395.000,116.000,2124.000,1577.000,-3456.000,0.000,0.000,0
2026-01-31 12:40:51,4127214,5602.000,1862.000,154.000,2647.000,814.000,-3458.000,0.000,0.000,0
2026-01-31 12:40:51,4127254,5327.000,2110.000,194.000,930.000,-114.000,-3220.000,0.000,0.000,0
2026-01-31 12:40:51,4127294,5813.000,2042.000,43.000,-1872.000,-933.000,-2577.000,0.000,0.000,0
2026-01-31 12:40:51,4127334,6409.000,1744.000,-97.000,-3853.000,-1339.000,-1528.000,0.000,0.000,0
2026-01-31 12:40:51,4127374,7029.000,1490.000,-25.000,-4111.000,-1438.000,-21.000,0.000,0.000,0
2026-01-31 12:40:52,4127414,7922.000,1378.000,113.000,-3635.000,-1839.000,518.000,0.000,0.000,0
2026-01-31 12:40:52,4127454,8812.000,1219.000,236.000,-2835.000,-2147.000,977.000,0.000,0.000,0
2026-01-31 12:40:52,4127494,9765.000,1559.000,631.000,-1404.000,-2413.000,1748.000,0.000,0.000,0
2026-01-31 12:40:52,4127534,10768.000,1654.000,865.000,-888.000,-2428.000,2433.000,0.000,0.000,0
2026-01-31 12:40:52,4127574,12535.000,1627.000,230.000,-698.000,-2398.000,3179.000,0.000,0.000,0
2026-01-31 12:40:52,4127614,13802.000,1444.000,-248.000,49.000,-2221.000,4247.000,0.000,0.000,0
2026-01-31 12:40:52,4127654,12664.000,1870.000,230.000,1589.000,-1686.000,5030.000,0.000,0.000,0
2026-01-31 12:40:52,4127696,9654.000,548.000,1040.000,1943.000,-1202.000,4206.000,0.000,0.000,0
2026-01-31 12:40:52,4127735,7673.000,-869.000,654.000,2148.000,-724.000,2585.000,0.000,0.000,0
2026-01-31 12:40:52,4127774,8197.000,-212.000,-467.000,3765.000,849.000,1550.000,0.000,0.000,0
2026-01-31 12:40:52,4127814,7331.000,-1129.000,-202.000,4097.000,2164.000,887.000,0.000,0.000,0
2026-01-31 12:40:52,4127854,6992.000,-1551.000,304.000,5036.000,2667.000,-60.000,0.000,0.000,0
2026-01-31 12:40:52,4127894,6267.000,-574.000,513.000,6587.000,2846.000,-169.000,0.000,0.000,0
2026-01-31 12:40:52,4127934,4842.000,77.000,1039.000,7018.000,2776.000,195.000,0.000,0.000,0
2026-01-31 12:40:52,4127976,4059.000,328.000,964.000,6273.000,2425.000,618.000,0.000,0.000,0
2026-01-31 12:40:52,4128014,3840.000,836.000,715.000,4717.000,1966.000,939.000,0.000,0.000,0
2026-01-31 12:40:52,4128054,4586.000,1455.000,978.000,1845.000,1134.000,1293.000,0.000,0.000,0
2026-01-31 12:40:52,4128094,5505.000,1545.000,1759.000,-753.000,168.000,1508.000,0.000,0.000,0
2026-01-31 12:40:52,4128134,7239.000,1363.000,2842.000,-1768.000,-810.000,1651.000,0.000,0.000,0
2026-01-31 12:40:52,4128174,8674.000,1395.000,2930.000,-2534.000,-1788.000,1199.000,0.000,0.000,0
2026-01-31 12:40:52,4128214,8830.000,1231.000,2233.000,-2058.000,-1738.000,569.000,0.000,0.000,0
2026-01-31 12:40:52,4128254,10235.000,961.000,1305.000,-689.000,-2152.000,-169.000,0.000,0.000,0
2026-01-31 12:40:52,4128294,13620.000,1973.000,1442.000,1014.000,-2306.000,-457.000,0.000,0.000,0
2026-01-31 12:40:52,4128334,11241.000,2819.000,2861.000,416.000,-704.000,-1160.000,0.000,0.000,0
2026-01-31 12:40:52,4128374,8787.000,2183.000,2209.000,-1559.000,-309.000,-3177.000,0.000,0.000,0
2026-01-31 12:40:53,4128414,9632.000,1767.000,863.000,-4034.000,-52.000,-4943.000,0.000,0.000,0
2026-01-31 12:40:53,4128454,9188.000,1564.000,430.000,-4896.000,1009.000,-5572.000,0.000,0.000,0
2026-01-31 12:40:53,4128494,8835.000,1166.000,181.000,-3833.000,2034.000,-5430.000,0.000,0.000,0
2026-01-31 12:40:53,4128534,7802.000,1228.000,-116.000,-2141.000,2545.000,-4520.000,0.000,0.000,0
2026-01-31 12:40:53,4128574,6695.000,1524.000,111.000,683.000,2335.000,-3905.000,0.000,0.000,0
2026-01-31 12:40:53,4128614,5859.000,1756.000,-73.000,1406.000,1770.000,-3387.000,0.000,0.000,0
2026-01-31 12:40:53,4128654,5354.000,1924.000,-286.000,410.000,908.000,-2948.000,0.000,0.000,0
2026-01-31 12:40:53,4128694,5130.000,1956.000,-298.000,-1930.000,18.000,-2529.000,0.000,0.000,0
2026-01-31 12:40:53,4128734,5789.000,1647.000,-527.000,-3959.000,-744.000,-1849.000,0.000,0.000,0
2026-01-31 12:40:53,4128774,6238.000,1351.000,-568.000,-4222.000,-1123.000,-710.000,0.000,0.000,0
2026-01-31 12:40:53,4128814,6942.000,1457.000,-297.000,-3042.000,-1517.000,683.000,0.000,0.000,0
2026-01-31 12:40:53,4128854,8422.000,1509.000,180.000,-1776.000,-1768.000,2054.000,0.000,0.000,0
2026-01-31 12:40:53,4128894,9205.000,1833.000,270.000,-60.000,-1525.000,3261.000,0.000,0.000,0
2026-01-31 12:40:53,4128934,10984.000,2147.000,707.000,681.000,-1689.000,4125.000,0.000,0.000,0
2026-01-31 12:40:53,4128974,12653.000,2711.000,1813.000,-479.000,-1899.000,3970.000,0.000,0.000,0
2026-01-31 12:40:53,4129014,13663.000,1775.000,1211.000,-2374.000,-1718.000,3450.000,0.000,0.000,0
2026-01-31 12:40:53,4129054,12736.000,1180.000,1763.000,-2270.000,-1123.000,3252.000,0.000,0.000,0
2026-01-31 12:40:53,4129094,9308.000,667.000,3727.000,-2036.000,-21.000,2727.000,0.000,0.000,0
2026-01-31 12:40:53,4129134,7271.000,-656.000,3178.000,-1331.000,572.000,1655.000,0.000,0.000,0
2026-01-31 12:40:53,4129174,8425.000,-1441.000,1045.000,500.000,1185.000,1275.000,0.000,0.000,0
2026-01-31 12:40:53,4129214,8328.000,-826.000,607.000,1979.000,2419.000,960.000,0.000,0.000,0
2026-01-31 12:40:53,4129254,7656.000,-1190.000,681.000,2427.000,3301.000,678.000,0.000,0.000,0
2026-01-31 12:40:53,4129294,7220.000,-1573.000,752.000,3737.000,3611.000,501.000,0.000,0.000,0
2026-01-31 12:40:53,4129334,6237.000,-570.000,977.000,7704.000,3443.000,314.000,0.000,0.000,0
2026-01-31 12:40:53,4129374,5880.000,-450.000,910.000,8605.000,3008.000,599.000,0.000,0.000,0
2026-01-31 12:40:54,4129414,5084.000,449.000,737.000,7302.000,2526.000,977.000,0.000,0.000,0
2026-01-31 12:40:54,4129454,4907.000,517.000,690.000,4282.000,1642.000,1364.000,0.000,0.000,0
2026-01-31 12:40:54,4129494,5126.000,646.000,943.000,1764.000,777.000,1818.000,0.000,0.000,0
2026-01-31 12:40:54,4129534,5804.000,880.000,1189.000,516.000,15.000,2243.000,0.000,0.000,0
2026-01-31 12:40:54,4129574,6266.000,1174.000,1549.000,-56.000,-704.000,2351.000,0.000,0.000,0
2026-01-31 12:40:54,4129614,7032.000,1627.000,2389.000,-793.000,-1631.000,2376.000,0.000,0.000,0
2026-01-31 12:40:54,4129654,7077.000,1583.000,3277.000,-2790.000,-2198.000,2316.000,0.000,0.000,0
2026-01-31 12:40:54,4129694,6807.000,10.000,3473.000,-3569.000,-2811.000,2168.000,0.000,0.000,0
2026-01-31 12:40:54,4129734,6612.000,-239.000,3658.000,-734.000,-2944.000,2020.000,0.000,0.000,0
2026-01-31 12:40:54,4129774,7308.000,379.000,4017.000,551.000,-2889.000,1926.000,0.000,0.000,0
2026-01-31 12:40:54,4129814,7641.000,556.000,3754.000,17.000,-2342.000,1385.000,0.000,0.000,0
2026-01-31 12:40:54,4129854,8166.000,383.000,3331.000,-533.000,-1883.000,673.000,0.000,0.000,0
2026-01-31 12:40:54,4129894,8516.000,461.000,3203.000,62.000,-1311.000,-60.000,0.000,0.000,0
2026-01-31 12:40:54,4129934,7924.000,634.000,2902.000,1441.000,-852.000,-833.000,0.000,0.000,0
2026-01-31 12:40:54,4129976,10904.000,1065.000,1653.000,2699.000,-1315.000,-1342.000,0.000,0.000,0
2026-01-31 12:40:54,4130014,13307.000,2155.000,1052.000,3801.000,-660.000,-1941.000,0.000,0.000,0
2026-01-31 12:40:54,4130054,11059.000,2206.000,1785.000,3262.000,140.000,-3476.000,0.000,0.000,0
2026-01-31 12:40:54,4130094,9316.000,49.000,1091.000,-40.000,-492.000,-6485.000,0.000,0.000,0
2026-01-31 12:40:54,4130134,9058.000,-1111.000,-361.000,1647.000,-46.000,-6409.000,0.000,0.000,0
2026-01-31 12:40:54,4130174,8517.000,-530.000,-736.000,5332.000,552.000,-5377.000,0.000,0.000,0
2026-01-31 12:40:54,4130214,8399.000,-8.000,-825.000,7230.000,930.000,-4251.000,0.000,0.000,0
2026-01-31 12:40:54,4130254,7881.000,52.000,-423.000,5098.000,836.000,-3211.000,0.000,0.000,0
2026-01-31 12:40:54,4130294,6750.000,525.000,240.000,1425.000,196.000,-2162.000,0.000,0.000,0
2026-01-31 12:40:54,4130334,5904.000,409.000,426.000,-2341.000,-654.000,-1102.000,0.000,0.000,0
2026-01-31 12:40:54,4130374,5514.000,242.000,-83.000,-4589.000,-1280.000,-200.000,0.000,0.000,0
2026-01-31 12:40:55,4130414,5662.000,291.000,-415.000,-4995.000,-1523.000,726.000,0.000,0.000,0
2026-01-31 12:40:55,4130454,6320.000,679.000,-546.000,-4222.000,-1430.000,1850.000,0.000,0.000,0
2026-01-31 12:40:55,4130494,7820.000,1681.000,-409.000,-3153.000,-1100.000,3329.000,0.000,0.000,0
2026-01-31 12:40:55,4130534,8423.000,2101.000,222.000,-3495.000,-1186.000,3623.000,0.000,0.000,0
2026-01-31 12:40:55,4130574,8414.000,2147.000,1004.000,-4385.000,-1431.000,3238.000,0.000,0.000,0
2026-01-31 12:40:55,4130614,8178.000,1958.000,1409.000,-5136.000,-1570.000,2408.000,0.000,0.000,0
2026-01-31 12:40:55,4130654,7981.000,1750.000,1517.000,-4749.000,-1422.000,1636.000,0.000,0.000,0
2026-01-31 12:40:55,4130694,8055.000,1575.000,1440.000,-3641.000,-1066.000,1337.000,0.000,0.000,0
2026-01-31 12:40:55,4130734,8281.000,1389.000,1246.000,-1820.000,-457.000,1378.000,0.000,0.000,0
2026-01-31 12:40:55,4130774,8599.000,1600.000,1317.000,-168.000,123.000,1408.000,0.000,0.000,0
2026-01-31 12:40:55,4130814,9251.000,1788.000,1286.000,307.000,464.000,1153.000,0.000,0.000,0
2026-01-31 12:40:55,4130854,9704.000,1291.000,546.000,361.000,810.000,409.000,0.000,0.000,0
2026-01-31 12:40:55,4130894,10803.000,1455.000,682.000,714.000,387.000,246.000,0.000,0.000,0
2026-01-31 12:40:55,4130934,11035.000,1673.000,1419.000,-766.000,617.000,127.000,0.000,0.000,0
2026-01-31 12:40:55,4130974,9896.000,-362.000,281.000,-1762.000,1388.000,-712.000,0.000,0.000,0
2026-01-31 12:40:55,4131014,8007.000,-1833.000,-657.000,459.000,1991.000,-1654.000,0.000,0.000,0
2026-01-31 12:40:55,4131054,6998.000,-1713.000,-212.000,3120.000,1920.000,-1817.000,0.000,0.000,0
2026-01-31 12:40:55,4131094,6956.000,-1402.000,-24.000,4898.000,2082.000,-1593.000,0.000,0.000,0
2026-01-31 12:40:55,4131134,6741.000,-1054.000,120.000,5244.000,2216.000,-1303.000,0.000,0.000,0
2026-01-31 12:40:55,4131174,6522.000,-1026.000,729.000,4687.000,1845.000,-786.000,0.000,0.000,0
2026-01-31 12:40:55,4131214,6035.000,-742.000,1020.000,3536.000,1499.000,-232.000,0.000,0.000,0
2026-01-31 12:40:55,4131254,5623.000,-27.000,874.000,2545.000,1006.000,1038.000,0.000,0.000,0
2026-01-31 12:40:55,4131294,5609.000,590.000,967.000,2448.000,633.000,1961.000,0.000,0.000,0
2026-01-31 12:40:55,4131334,5853.000,1433.000,1343.000,1898.000,56.000,2821.000,0.000,0.000,0
2026-01-31 12:40:55,4131374,6665.000,2080.000,1776.000,501.000,-664.000,3489.000,0.000,0.000,0
2026-01-31 12:40:56,4131414,7184.000,2216.000,2043.000,-1304.000,-1240.000,3613.000,0.000,0.000,0
2026-01-31 12:40:56,4131454,7475.000,1923.000,2316.000,-2797.000,-1691.000,3000.000,0.000,0.000,0
2026-01-31 12:40:56,4131494,7297.000,1306.000,2488.000,-3212.000,-1865.000,1811.000,0.000,0.000,0
2026-01-31 12:40:56,4131534,6671.000,900.000,2893.000,-2509.000,-1761.000,492.000,0.000,0.000,0
2026-01-31 12:40:56,4131574,7097.000,598.000,2637.000,-568.000,-1505.000,-373.000,0.000,0.000,0
2026-01-31 12:40:56,4131614,7836.000,1004.000,1977.000,1964.000,-851.000,-767.000,0.000,0.000,0
2026-01-31 12:40:56,4131654,9566.000,1578.000,1752.000,3362.000,-533.000,-1584.000,0.000,0.000,0
2026-01-31 12:40:56,4131696,10915.000,2099.000,1273.000,4223.000,-278.000,-1924.000,0.000,0.000,0
2026-01-31 12:40:56,4131735,11024.000,3001.000,1563.000,4264.000,151.000,-2184.000,0.000,0.000,0
2026-01-31 12:40:56,4131774,9403.000,3160.000,1962.000,1772.000,588.000,-3149.000,0.000,0.000,0
2026-01-31 12:40:56,4131814,9471.000,2169.000,858.000,-2301.000,483.000,-4869.000,0.000,0.000,0
2026-01-31 12:40:56,4131854,9690.000,1353.000,-95.000,-4076.000,960.000,-5967.000,0.000,0.000,0
2026-01-31 12:40:56,4131894,8623.000,1240.000,-108.000,-2944.000,1573.000,-5613.000,0.000,0.000,0
2026-01-31 12:40:56,4131934,7141.000,1464.000,332.000,-1296.000,1502.000,-4760.000,0.000,0.000,0
2026-01-31 12:40:56,4131977,7012.000,1819.000,654.000,-1089.000,938.000,-3880.000,0.000,0.000,0
2026-01-31 12:40:56,4132014,6865.000,1949.000,-34.000,-2641.000,780.000,-2248.000,0.000,0.000,0
2026-01-31 12:40:56,4132054,7011.000,1673.000,-362.000,-3503.000,635.000,-1089.000,0.000,0.000,0
2026-01-31 12:40:56,4132094,7243.000,1559.000,-79.000,-3297.000,283.000,23.000,0.000,0.000,0
2026-01-31 12:40:56,4132134,7685.000,1812.000,202.000,-2596.000,-270.000,1025.000,0.000,0.000,0
2026-01-31 12:40:56,4132174,8297.000,2097.000,787.000,-2848.000,-1003.000,1602.000,0.000,0.000,0
2026-01-31 12:40:56,4132214,8868.000,2018.000,924.000,-3957.000,-1519.000,1723.000,0.000,0.000,0
2026-01-31 12:40:56,4132254,9544.000,1725.000,1046.000,-5084.000,-1959.000,1826.000,0.000,0.000,0
2026-01-31 12:40:56,4132294,9830.000,1465.000,1422.000,-5266.000,-1965.000,2197.000,0.000,0.000,0
2026-01-31 12:40:56,4132334,10300.000,1144.000,1024.000,-3764.000,-1851.000,2684.000,0.000,0.000,0
2026-01-31 12:40:56,4132374,11168.000,880.000,1292.000,-1247.000,-1483.000,3183.000,0.000,0.000,0
2026-01-31 12:40:57,4132414,9904.000,1875.000,2405.000,1318.000,-774.000,3289.000,0.000,0.000,0
2026-01-31 12:40:57,4132454,7470.000,1674.000,2488.000,625.000,202.000,2011.000,0.000,0.000,0
2026-01-31 12:40:57,4132494,6038.000,553.000,1705.000,-239.000,516.000,-225.000,0.000,0.000,0
2026-01-31 12:40:57,4132534,6462.000,3.000,445.000,700.000,1044.000,-1489.000,0.000,0.000,0
2026-01-31 12:40:57,4132574,5331.000,47.000,-182.000,3648.000,2007.000,-1723.000,0.000,0.000,0
2026-01-31 12:40:57,4132614,4132.000,351.000,219.000,6946.000,2044.000,-1928.000,0.000,0.000,0
2026-01-31 12:40:57,4132654,4197.000,1116.000,587.000,9017.000,1203.000,-2170.000,0.000,0.000,0
2026-01-31 12:40:57,4132694,4409.000,1958.000,661.000,8646.000,396.000,-1821.000,0.000,0.000,0
2026-01-31 12:40:57,4132734,4737.000,2443.000,920.000,6248.000,-810.000,-701.000,0.000,0.000,0
2026-01-31 12:40:57,4132774,6244.000,2861.000,1695.000,2450.000,-2273.000,830.000,0.000,0.000,0
2026-01-31 12:40:57,4132814,8135.000,2951.000,2182.000,-4194.000,-3713.000,2294.000,0.000,0.000,0
2026-01-31 12:40:57,4132854,9576.000,2130.000,2345.000,-7769.000,-3937.000,2166.000,0.000,0.000,0
2026-01-31 12:40:57,4132894,9319.000,1063.000,2177.000,-8025.000,-3437.000,1615.000,0.000,0.000,0
2026-01-31 12:40:57,4132934,10514.000,197.000,2080.000,-5185.000,-3257.000,1623.000,0.000,0.000,0
2026-01-31 12:40:57,4132974,11935.000,821.000,2515.000,-200.000,-2324.000,2394.000,0.000,0.000,0
2026-01-31 12:40:57,4133014,11607.000,2948.000,2643.000,2683.000,-499.000,2960.000,0.000,0.000,0
2026-01-31 12:40:57,4133054,9905.000,3233.000,2250.000,969.000,1003.000,1801.000,0.000,0.000,0
2026-01-31 12:40:57,4133094,11141.000,2158.000,314.000,-1852.000,1965.000,146.000,0.000,0.000,0
2026-01-31 12:40:57,4133134,9200.000,1821.000,-793.000,-2105.000,3539.000,-752.000,0.000,0.000,0
2026-01-31 12:40:57,4133174,6266.000,1351.000,135.000,144.000,3578.000,-2222.000,0.000,0.000,0
2026-01-31 12:40:57,4133214,5189.000,1895.000,874.000,2404.000,2609.000,-3287.000,0.000,0.000,0
2026-01-31 12:40:57,4133254,5229.000,2199.000,288.000,1366.000,2099.000,-3628.000,0.000,0.000,0
2026-01-31 12:40:57,4133294,5778.000,1889.000,-859.000,-341.000,2193.000,-3247.000,0.000,0.000,0
2026-01-31 12:40:57,4133334,6291.000,1329.000,-1573.000,-949.000,2391.000,-2767.000,0.000,0.000,0
2026-01-31 12:40:57,4133374,6780.000,911.000,-1187.000,264.000,2191.000,-2423.000,0.000,0.000,0
2026-01-31 12:40:58,4133414,8390.000,1341.000,-832.000,2287.000,1398.000,-1810.000,0.000,0.000,0
2026-01-31 12:40:58,4133454,9439.000,2183.000,-42.000,2839.000,465.000,-1005.000,0.000,0.000,0
2026-01-31 12:40:58,4133494,9310.000,2311.000,974.000,1449.000,-711.000,-262.000,0.000,0.000,0
2026-01-31 12:40:58,4133534,10315.000,2854.000,2632.000,-2053.000,-1987.000,713.000,0.000,0.000,0
2026-01-31 12:40:58,4133574,10122.000,2707.000,2503.000,-8248.000,-1377.000,3068.000,0.000,0.000,0
2026-01-31 12:40:58,4133614,7929.000,1103.000,3285.000,-9734.000,-1383.000,3336.000,0.000,0.000,0
2026-01-31 12:40:58,4133654,8601.000,-1785.000,2775.000,-7421.000,-1308.000,1836.000,0.000,0.000,0
2026-01-31 12:40:58,4133695,8297.000,-1694.000,813.000,-471.000,167.000,882.000,0.000,0.000,0
2026-01-31 12:40:58,4133735,6720.000,-806.000,682.000,5239.000,1140.000,350.000,0.000,0.000,0
2026-01-31 12:40:58,4133778,5855.000,525.000,926.000,9571.000,1357.000,57.000,0.000,0.000,0
2026-01-31 12:40:58,4133814,4960.000,1925.000,1023.000,10952.000,1421.000,-260.000,0.000,0.000,0
2026-01-31 12:40:58,4133854,4784.000,2677.000,849.000,10186.000,1027.000,32.000,0.000,0.000,0
2026-01-31 12:40:58,4133894,5228.000,3037.000,1279.000,6805.000,52.000,887.000,0.000,0.000,0
2026-01-31 12:40:58,4133934,5768.000,3190.000,2220.000,1882.000,-1215.000,1879.000,0.000,0.000,0
2026-01-31 12:40:58,4133976,6835.000,2888.000,2566.000,-5672.000,-2561.000,2509.000,0.000,0.000,0
2026-01-31 12:40:58,4134015,7842.000,1850.000,2286.000,-8230.000,-2991.000,2106.000,0.000,0.000,0
2026-01-31 12:40:58,4134054,9140.000,893.000,1801.000,-7064.000,-2754.000,1758.000,0.000,0.000,0
2026-01-31 12:40:58,4134094,9775.000,477.000,1890.000,-3534.000,-2252.000,1472.000,0.000,0.000,0
2026-01-31 12:40:58,4134134,11218.000,576.000,2597.000,319.000,-1820.000,1093.000,0.000,0.000,0
2026-01-31 12:40:58,4134174,12015.000,2264.000,3027.000,3057.000,-988.000,994.000,0.000,0.000,0
2026-01-31 12:40:58,4134214,9508.000,3154.000,3360.000,2328.000,657.000,502.000,0.000,0.000,0
2026-01-31 12:40:58,4134254,9764.000,2372.000,1617.000,-1045.000,1150.000,-1230.000,0.000,0.000,0
2026-01-31 12:40:58,4134294,11053.000,1497.000,59.000,-2944.000,2343.000,-2801.000,0.000,0.000,0
2026-01-31 12:40:58,4134334,8362.000,699.000,-153.000,-1745.000,4015.000,-4729.000,0.000,0.000,0
2026-01-31 12:40:58,4134374,7039.000,428.000,357.000,1650.000,3777.000,-6236.000,0.000,0.000,0
2026-01-31 12:40:59,4134414,6195.000,915.000,888.000,3726.000,3082.000,-7125.000,0.000,0.000,0
2026-01-31 12:40:59,4134454,5956.000,1552.000,371.000,4873.000,2560.000,-6694.000,0.000,0.000,0
2026-01-31 12:40:59,4134494,5438.000,1322.000,-329.000,4463.000,2164.000,-5206.000,0.000,0.000,0
2026-01-31 12:40:59,4134534,5161.000,1344.000,-403.000,3232.000,1639.000,-3079.000,0.000,0.000,0
2026-01-31 12:40:59,4134574,5648.000,1694.000,48.000,1761.000,839.000,-401.000,0.000,0.000,0
2026-01-31 12:40:59,4134614,6912.000,2128.000,770.000,156.000,-71.000,2404.000,0.000,0.000,0
2026-01-31 12:40:59,4134654,8469.000,2191.000,885.000,-1579.000,-936.000,4908.000,0.000,0.000,0
2026-01-31 12:40:59,4134694,9192.000,2075.000,1315.000,-2973.000,-1763.000,6608.000,0.000,0.000,0
2026-01-31 12:40:59,4134734,12134.000,2118.000,1967.000,-3957.000,-2861.000,8635.000,0.000,0.000,0
2026-01-31 12:40:59,4134774,12335.000,2849.000,2634.000,-3645.000,-2450.000,9174.000,0.000,0.000,0
2026-01-31 12:40:59,4134814,8610.000,1871.000,4375.000,-4403.000,-1430.000,7091.000,0.000,0.000,0
2026-01-31 12:40:59,4134854,8544.000,-54.000,2855.000,-4025.000,-1079.000,3337.000,0.000,0.000,0
2026-01-31 12:40:59,4134894,7546.000,-994.000,917.000,-414.000,554.000,867.000,0.000,0.000,0
2026-01-31 12:40:59,4134934,6613.000,-608.000,296.000,5535.000,1703.000,-565.000,0.000,0.000,0
2026-01-31 12:40:59,4134974,5752.000,522.000,338.000,10103.000,2396.000,-1493.000,0.000,0.000,0
2026-01-31 12:40:59,4135014,4855.000,1930.000,504.000,12240.000,2163.000,-2264.000,0.000,0.000,0
2026-01-31 12:40:59,4135054,4789.000,3052.000,1174.000,12213.000,1317.000,-2675.000,0.000,0.000,0
2026-01-31 12:40:59,4135094,5242.000,3956.000,3014.000,8474.000,160.000,-2160.000,0.000,0.000,0
2026-01-31 12:40:59,4135134,5948.000,2956.000,2474.000,-1481.000,-1186.000,-869.000,0.000,0.000,0
2026-01-31 12:40:59,4135174,6573.000,2213.000,2376.000,-6139.000,-2058.000,-712.000,0.000,0.000,0
2026-01-31 12:40:59,4135214,8079.000,1170.000,2560.000,-8060.000,-2530.000,-681.000,0.000,0.000,0
2026-01-31 12:40:59,4135254,8666.000,47.000,2232.000,-5859.000,-1990.000,-498.000,0.000,0.000,0
2026-01-31 12:40:59,4135294,10621.000,18.000,1801.000,-890.000,-1922.000,316.000,0.000,0.000,0
2026-01-31 12:40:59,4135334,11769.000,1225.000,2925.000,2835.000,-1474.000,1239.000,0.000,0.000,0
2026-01-31 12:40:59,4135374,11794.000,2753.000,3320.000,4014.000,-627.000,1644.000,0.000,0.000,0
2026-01-31 12:41:00,4135414,9417.000,3096.000,3236.000,1130.000,552.000,921.000,0.000,0.000,0
2026-01-31 12:41:00,4135454,9397.000,1848.000,1212.000,-2693.000,802.000,-417.000,0.000,0.000,0
2026-01-31 12:41:00,4135494,8146.000,1171.000,208.000,-2962.000,1751.000,-883.000,0.000,0.000,0
2026-01-31 12:41:00,4135534,6741.000,1331.000,353.000,209.000,2292.000,-778.000,0.000,0.000,0
2026-01-31 12:41:00,4135574,6213.000,1655.000,915.000,1608.000,1813.000,-1228.000,0.000,0.000,0
2026-01-31 12:41:00,4135614,6194.000,1969.000,739.000,1610.000,1600.000,-1634.000,0.000,0.000,0
2026-01-31 12:41:00,4135654,6186.000,1833.000,-89.000,474.000,1634.000,-1741.000,0.000,0.000,0
2026-01-31 12:41:00,4135696,6130.000,1359.000,-640.000,38.000,1604.000,-1655.000,0.000,0.000,0
2026-01-31 12:41:00,4135735,6653.000,993.000,-807.000,1399.000,1164.000,-1097.000,0.000,0.000,0
2026-01-31 12:41:00,4135774,7114.000,2568.000,515.000,2978.000,207.000,-264.000,0.000,0.000,0
2026-01-31 12:41:00,4135814,8487.000,2978.000,1149.000,-1095.000,-1104.000,1278.000,0.000,0.000,0
2026-01-31 12:41:00,4135854,8362.000,2343.000,172.000,-3748.000,-1902.000,2709.000,0.000,0.000,0
2026-01-31 12:41:00,4135894,10040.000,1330.000,1147.000,-6044.000,-3431.000,3849.000,0.000,0.000,0
2026-01-31 12:41:00,4135934,10451.000,1705.000,2874.000,-5246.000,-3006.000,4574.000,0.000,0.000,0
2026-01-31 12:41:00,4135977,9099.000,1908.000,3756.000,-4863.000,-1873.000,3694.000,0.000,0.000,0
2026-01-31 12:41:00,4136014,8467.000,1082.000,4075.000,-5431.000,-1529.000,1376.000,0.000,0.000,0
2026-01-31 12:41:00,4136054,8877.000,-120.000,2663.000,-4724.000,-342.000,-797.000,0.000,0.000,0
2026-01-31 12:41:00,4136094,8028.000,-193.000,1205.000,-563.000,1469.000,-2153.000,0.000,0.000,0
2026-01-31 12:41:00,4136134,6566.000,174.000,1261.000,2912.000,2422.000,-3077.000,0.000,0.000,0
2026-01-31 12:41:00,4136174,5526.000,815.000,1175.000,5044.000,2509.000,-3875.000,0.000,0.000,0
2026-01-31 12:41:00,4136214,4887.000,1651.000,1093.000,6055.000,2150.000,-4412.000,0.000,0.000,0
2026-01-31 12:41:00,4136254,5229.000,2119.000,1081.000,5331.000,1242.000,-3956.000,0.000,0.000,0
2026-01-31 12:41:00,4136294,6569.000,2272.000,919.000,1950.000,-28.000,-2460.000,0.000,0.000,0
2026-01-31 12:41:00,4136334,6944.000,2104.000,1222.000,-1002.000,-928.000,-1244.000,0.000,0.000,0
2026-01-31 12:41:00,4136374,7204.000,1856.000,1726.000,-3242.000,-1697.000,-212.000,0.000,0.000,0
2026-01-31 12:41:01,4136414,8117.000,1462.000,1510.000,-3922.000,-2134.000,715.000,0.000,0.000,0
2026-01-31 12:41:01,4136454,9650.000,1591.000,1189.000,-3123.000,-2493.000,1810.000,0.000,0.000,0
2026-01-31 12:41:01,4136494,11842.000,1498.000,1827.000,-2066.000,-2791.000,2835.000,0.000,0.000,0
2026-01-31 12:41:01,4136534,11614.000,2407.000,2913.000,-614.000,-2406.000,3648.000,0.000,0.000,0
2026-01-31 12:41:01,4136574,9380.000,3509.000,3378.000,-2412.000,-1338.000,3878.000,0.000,0.000,0
2026-01-31 12:41:01,4136614,10122.000,2349.000,1445.000,-5055.000,-752.000,2547.000,0.000,0.000,0
2026-01-31 12:41:01,4136654,8962.000,1297.000,-132.000,-5742.000,657.000,762.000,0.000,0.000,0
2026-01-31 12:41:01,4136694,7256.000,682.000,138.000,-3165.000,2003.000,-447.000,0.000,0.000,0
2026-01-31 12:41:01,4136734,6047.000,629.000,1037.000,-400.000,1883.000,-1761.000,0.000,0.000,0
2026-01-31 12:41:01,4136774,5696.000,1380.000,1009.000,2093.000,1944.000,-2762.000,0.000,0.000,0
2026-01-31 12:41:01,4136814,5725.000,1655.000,-60.000,3320.000,2235.000,-3061.000,0.000,0.000,0
2026-01-31 12:41:01,4136854,6163.000,1622.000,-813.000,3337.000,2190.000,-2822.000,0.000,0.000,0
2026-01-31 12:41:01,4136894,6273.000,1672.000,-485.000,2602.000,1703.000,-2354.000,0.000,0.000,0
2026-01-31 12:41:01,4136934,7244.000,1876.000,264.000,1586.000,709.000,-1595.000,0.000,0.000,0
2026-01-31 12:41:01,4136974,9055.000,2284.000,778.000,634.000,39.000,-248.000,0.000,0.000,0
2026-01-31 12:41:01,4137014,9015.000,2185.000,815.000,-292.000,-129.000,1173.000,0.000,0.000,0
2026-01-31 12:41:01,4137054,10006.000,2543.000,2493.000,-2670.000,-1580.000,2990.000,0.000,0.000,0
2026-01-31 12:41:01,4137094,9762.000,3159.000,3456.000,-5771.000,-1783.000,4146.000,0.000,0.000,0
2026-01-31 12:41:01,4137134,8420.000,2112.000,3795.000,-8517.000,-1668.000,3367.000,0.000,0.000,0
2026-01-31 12:41:01,4137174,9021.000,164.000,2639.000,-8442.000,-1235.000,1013.000,0.000,0.000,0
2026-01-31 12:41:01,4137214,8498.000,-1376.000,1111.000,-4566.000,412.000,-858.000,0.000,0.000,0
2026-01-31 12:41:01,4137254,7454.000,-1370.000,353.000,1912.000,1562.000,-1855.000,0.000,0.000,0
2026-01-31 12:41:01,4137294,5368.000,-266.000,1155.000,6865.000,1955.000,-2381.000,0.000,0.000,0
2026-01-31 12:41:01,4137334,4800.000,1218.000,1772.000,9587.000,1445.000,-2713.000,0.000,0.000,0
2026-01-31 12:41:01,4137374,4507.000,2343.000,1683.000,10014.000,1313.000,-2905.000,0.000,0.000,0
2026-01-31 12:41:02,4137414,4463.000,2524.000,1609.000,6811.000,366.000,-2142.000,0.000,0.000,0
2026-01-31 12:41:02,4137454,5863.000,2598.000,2063.000,-468.000,-1458.000,125.000,0.000,0.000,0
2026-01-31 12:41:02,4137494,6688.000,2282.000,2101.000,-4109.000,-2281.000,1544.000,0.000,0.000,0
2026-01-31 12:41:02,4137534,8447.000,1540.000,1963.000,-5536.000,-2937.000,2346.000,0.000,0.000,0
2026-01-31 12:41:02,4137574,9203.000,1162.000,2087.000,-4693.000,-2982.000,2747.000,0.000,0.000,0
2026-01-31 12:41:02,4137614,12317.000,1252.000,2082.000,-2661.000,-3352.000,3057.000,0.000,0.000,0
2026-01-31 12:41:02,4137656,12541.000,1866.000,2847.000,-236.000,-2054.000,3120.000,0.000,0.000,0
2026-01-31 12:41:02,4137694,9911.000,2944.000,2867.000,-362.000,-599.000,2541.000,0.000,0.000,0
2026-01-31 12:41:02,4137734,11450.000,1916.000,1075.000,-2215.000,161.000,908.000,0.000,0.000,0
2026-01-31 12:41:02,4137774,10525.000,1758.000,107.000,-2368.000,1904.000,-485.000,0.000,0.000,0
2026-01-31 12:41:02,4137814,7253.000,1006.000,737.000,-706.000,2827.000,-2817.000,0.000,0.000,0
2026-01-31 12:41:02,4137854,5770.000,585.000,1326.000,533.000,2408.000,-4650.000,0.000,0.000,0
2026-01-31 12:41:02,4137894,5405.000,1191.000,871.000,2231.000,2212.000,-5415.000,0.000,0.000,0
2026-01-31 12:41:02,4137934,5407.000,1444.000,-27.000,3080.000,2300.000,-4958.000,0.000,0.000,0
2026-01-31 12:41:02,4137976,5693.000,1413.000,-448.000,3370.000,2334.000,-4006.000,0.000,0.000,0
2026-01-31 12:41:02,4138014,6160.000,1286.000,-326.000,2786.000,1863.000,-2834.000,0.000,0.000,0
2026-01-31 12:41:02,4138054,7187.000,1830.000,490.000,2069.000,762.000,-1121.000,0.000,0.000,0
2026-01-31 12:41:02,4138094,9044.000,2436.000,1359.000,758.000,-252.000,888.000,0.000,0.000,0
2026-01-31 12:41:02,4138134,8788.000,2069.000,1818.000,-1267.000,-849.000,2467.000,0.000,0.000,0
2026-01-31 12:41:02,4138174,9400.000,1951.000,2037.000,-3288.000,-1694.000,4082.000,0.000,0.000,0
2026-01-31 12:41:02,4138214,10729.000,2585.000,2475.000,-4702.000,-2005.000,7087.000,0.000,0.000,0
2026-01-31 12:41:02,4138254,8844.000,1756.000,3960.000,-5705.000,-1408.000,6257.000,0.000,0.000,0
2026-01-31 12:41:02,4138294,9355.000,-420.000,2330.000,-4722.000,-837.000,3117.000,0.000,0.000,0
2026-01-31 12:41:02,4138334,8385.000,-1142.000,421.000,-799.000,808.000,888.000,0.000,0.000,0
2026-01-31 12:41:02,4138374,6879.000,-852.000,200.000,5414.000,1793.000,-431.000,0.000,0.000,0
2026-01-31 12:41:03,4138414,4943.000,304.000,741.000,10571.000,2184.000,-1338.000,0.000,0.000,0
2026-01-31 12:41:03,4138454,4295.000,1766.000,932.000,12979.000,1838.000,-2018.000,0.000,0.000,0
2026-01-31 12:41:03,4138494,4332.000,2897.000,1063.000,12387.000,1302.000,-2124.000,0.000,0.000,0
2026-01-31 12:41:03,4138534,4993.000,3561.000,2305.000,7501.000,222.000,-1452.000,0.000,0.000,0
2026-01-31 12:41:03,4138574,6922.000,3375.000,3015.000,72.000,-1058.000,-401.000,0.000,0.000,0
2026-01-31 12:41:03,4138614,7407.000,1914.000,3283.000,-8357.000,-2041.000,1028.000,0.000,0.000,0
2026-01-31 12:41:03,4138654,8413.000,387.000,3063.000,-8577.000,-2337.000,1848.000,0.000,0.000,0
2026-01-31 12:41:03,4138694,9510.000,-119.000,2256.000,-3479.000,-2079.000,2606.000,0.000,0.000,0
2026-01-31 12:41:03,4138734,11671.000,787.000,2432.000,1750.000,-1983.000,3352.000,0.000,0.000,0
2026-01-31 12:41:03,4138774,11743.000,2258.000,3548.000,4327.000,-939.000,3323.000,0.000,0.000,0
2026-01-31 12:41:03,4138814,9753.000,3265.000,2962.000,3396.000,563.000,2176.000,0.000,0.000,0
2026-01-31 12:41:03,4138854,10829.000,2561.000,1278.000,654.000,1135.000,259.000,0.000,0.000,0
2026-01-31 12:41:03,4138894,10036.000,2106.000,639.000,-1055.000,2124.000,-1194.000,0.000,0.000,0
2026-01-31 12:41:03,4138934,7786.000,1472.000,727.000,-578.000,2720.000,-2485.000,0.000,0.000,0
2026-01-31 12:41:03,4138974,5846.000,1124.000,1429.000,287.000,2292.000,-4561.000,0.000,0.000,0
2026-01-31 12:41:03,4139014,5540.000,1457.000,1218.000,1195.000,1805.000,-5135.000,0.000,0.000,0
2026-01-31 12:41:03,4139054,5631.000,1435.000,559.000,855.000,1872.000,-4837.000,0.000,0.000,0
2026-01-31 12:41:03,4139094,5867.000,1281.000,186.000,383.000,1856.000,-3988.000,0.000,0.000,0
2026-01-31 12:41:03,4139134,6166.000,1079.000,523.000,19.000,1624.000,-2654.000,0.000,0.000,0
2026-01-31 12:41:03,4139174,7295.000,1316.000,1039.000,325.000,899.000,-824.000,0.000,0.000,0
2026-01-31 12:41:03,4139214,8917.000,2246.000,1751.000,82.000,253.000,1126.000,0.000,0.000,0
2026-01-31 12:41:03,4139254,8590.000,1957.000,2267.000,-1545.000,-241.000,2540.000,0.000,0.000,0
2026-01-31 12:41:03,4139294,10121.000,1943.000,2506.000,-3154.000,-1319.000,4050.000,0.000,0.000,0
2026-01-31 12:41:03,4139334,10432.000,1817.000,2712.000,-3829.000,-1493.000,5577.000,0.000,0.000,0
2026-01-31 12:41:03,4139374,8449.000,910.000,3889.000,-2816.000,-1436.000,4456.000,0.000,0.000,0
2026-01-31 12:41:04,4139414,8831.000,-406.000,2341.000,-1476.000,-1075.000,1897.000,0.000,0.000,0
2026-01-31 12:41:04,4139454,7971.000,-471.000,922.000,1357.000,49.000,277.000,0.000,0.000,0
2026-01-31 12:41:04,4139494,6771.000,-52.000,781.000,5780.000,794.000,-527.000,0.000,0.000,0
2026-01-31 12:41:04,4139534,4998.000,905.000,1226.000,8919.000,964.000,-902.000,0.000,0.000,0
2026-01-31 12:41:04,4139574,4425.000,1883.000,1482.000,9753.000,356.000,-999.000,0.000,0.000,0
2026-01-31 12:41:04,4139614,4194.000,2487.000,1550.000,8424.000,-300.000,-619.000,0.000,0.000,0
2026-01-31 12:41:04,4139654,4987.000,3058.000,1993.000,4570.000,-1591.000,605.000,0.000,0.000,0
2026-01-31 12:41:04,4139696,5976.000,3166.000,2699.000,-928.000,-2708.000,1912.000,0.000,0.000,0
2026-01-31 12:41:04,4139736,7229.000,2810.000,2890.000,-6204.000,-3584.000,2473.000,0.000,0.000,0
2026-01-31 12:41:04,4139774,9008.000,835.000,2589.000,-9234.000,-3645.000,1831.000,0.000,0.000,0
2026-01-31 12:41:04,4139814,10303.000,-196.000,1950.000,-5492.000,-2976.000,1379.000,0.000,0.000,0
2026-01-31 12:41:04,4139854,12328.000,-128.000,1909.000,-180.000,-2184.000,1315.000,0.000,0.000,0
2026-01-31 12:41:04,4139894,11773.000,1429.000,3021.000,4013.000,-793.000,1166.000,0.000,0.000,0
2026-01-31 12:41:04,4139934,9554.000,3100.000,3155.000,4052.000,594.000,590.000,0.000,0.000,0
2026-01-31 12:41:04,4139976,10546.000,2686.000,1467.000,92.000,1253.000,-601.000,0.000,0.000,0
2026-01-31 12:41:04,4140014,10476.000,2020.000,442.000,-2774.000,2597.000,-1560.000,0.000,0.000,0
2026-01-31 12:41:04,4140054,8598.000,1407.000,334.000,-2560.000,3598.000,-2299.000,0.000,0.000,0
2026-01-31 12:41:04,4140094,7164.000,1066.000,270.000,-1778.000,3622.000,-3389.000,0.000,0.000,0
2026-01-31 12:41:04,4140134,6054.000,813.000,200.000,-664.000,3389.000,-5171.000,0.000,0.000,0
2026-01-31 12:41:04,4140174,5956.000,994.000,-336.000,1690.000,2888.000,-5413.000,0.000,0.000,0
2026-01-31 12:41:04,4140214,6125.000,1155.000,-675.000,2818.000,2601.000,-4655.000,0.000,0.000,0
2026-01-31 12:41:04,4140254,6240.000,1487.000,-530.000,3176.000,2167.000,-3347.000,0.000,0.000,0
2026-01-31 12:41:04,4140294,7205.000,1847.000,-236.000,2432.000,1285.000,-1659.000,0.000,0.000,0
2026-01-31 12:41:04,4140334,8523.000,2279.000,349.000,466.000,224.000,165.000,0.000,0.000,0
2026-01-31 12:41:04,4140374,8717.000,1950.000,952.000,-1959.000,-880.000,1618.000,0.000,0.000,0
2026-01-31 12:41:05,4140414,9989.000,2058.000,1533.000,-3952.000,-2252.000,3167.000,0.000,0.000,0
2026-01-31 12:41:05,4140454,10929.000,2339.000,2302.000,-5759.000,-2786.000,5190.000,0.000,0.000,0
2026-01-31 12:41:05,4140494,9068.000,2507.000,3378.000,-7325.000,-2763.000,5957.000,0.000,0.000,0
2026-01-31 12:41:05,4140534,9637.000,-544.000,3275.000,-8154.000,-2677.000,2678.000,0.000,0.000,0
2026-01-31 12:41:05,4140574,8212.000,-1629.000,1797.000,-3971.000,-732.000,656.000,0.000,0.000,0
2026-01-31 12:41:05,4140614,6600.000,-1601.000,1155.000,2534.000,585.000,-136.000,0.000,0.000,0
2026-01-31 12:41:05,4140654,5278.000,-315.000,1287.000,7694.000,1396.000,-559.000,0.000,0.000,0
2026-01-31 12:41:05,4140694,4512.000,1010.000,1142.000,9891.000,1353.000,-797.000,0.000,0.000,0
2026-01-31 12:41:05,4140734,4713.000,2219.000,1367.000,10205.000,831.000,-619.000,0.000,0.000,0
2026-01-31 12:41:05,4140774,5051.000,3267.000,2255.000,7860.000,130.000,47.000,0.000,0.000,0
2026-01-31 12:41:05,4140814,6079.000,3518.000,2966.000,2407.000,-1041.000,1137.000,0.000,0.000,0
2026-01-31 12:41:05,4140854,6977.000,2824.000,2753.000,-3560.000,-1994.000,1924.000,0.000,0.000,0
2026-01-31 12:41:05,4140894,7644.000,2029.000,2416.000,-7159.000,-2714.000,1887.000,0.000,0.000,0
2026-01-31 12:41:05,4140934,8929.000,525.000,1854.000,-6229.000,-2433.000,1053.000,0.000,0.000,0
2026-01-31 12:41:05,4140974,10548.000,164.000,1400.000,-2251.000,-2151.000,634.000,0.000,0.000,0
2026-01-31 12:41:05,4141014,11307.000,746.000,2632.000,1419.000,-1389.000,374.000,0.000,0.000,0
2026-01-31 12:41:05,4141054,10541.000,2327.000,3180.000,3261.000,-194.000,151.000,0.000,0.000,0
2026-01-31 12:41:05,4141094,10504.000,2436.000,1909.000,1799.000,728.000,-691.000,0.000,0.000,0
2026-01-31 12:41:05,4141134,10881.000,1945.000,775.000,-527.000,1745.000,-1646.000,0.000,0.000,0
2026-01-31 12:41:05,4141174,10065.000,1610.000,522.000,-1166.000,2535.000,-2290.000,0.000,0.000,0
2026-01-31 12:41:05,4141214,8040.000,1252.000,976.000,-917.000,2908.000,-3282.000,0.000,0.000,0
2026-01-31 12:41:05,4141254,6487.000,966.000,1100.000,-643.000,2729.000,-4202.000,0.000,0.000,0
2026-01-31 12:41:05,4141294,5745.000,1063.000,99.000,34.000,2527.000,-4595.000,0.000,0.000,0
2026-01-31 12:41:05,4141334,5655.000,863.000,-391.000,1081.000,2461.000,-4077.000,0.000,0.000,0
2026-01-31 12:41:05,4141374,5605.000,875.000,-344.000,1936.000,2268.000,-2973.000,0.000,0.000,0
2026-01-31 12:41:06,4141414,6054.000,1224.000,-107.000,2481.000,1759.000,-1374.000,0.000,0.000,0
2026-01-31 12:41:06,4141454,7781.000,1973.000,230.000,2405.000,1027.000,710.000,0.000,0.000,0
