datetime_local,uptime_ms,acc_x,acc_y,acc_z,gyro_x,gyro_y,gyro_z,speed_mps,turn_rate_deg_s,gps_valid
2026-01-31 00:14:40,1391734,-970.000,-1609.000,8160.000,-785.000,156.000,8.000,0.000,0.000,0
2026-01-31 00:14:40,1391774,-1164.000,-1077.000,8179.000,175.000,-19.000,200.000,0.000,0.000,0
2026-01-31 00:14:41,1391816,-1230.000,-1032.000,8077.000,-98.000,102.000,254.000,0.000,0.000,1
2026-01-31 00:14:41,1391854,-1101.000,-1212.000,8251.000,-157.000,65.000,430.000,0.000,0.000,1
2026-01-31 00:14:41,1391894,-1092.000,-1013.000,8236.000,-184.000,108.000,460.000,0.000,0.000,1
2026-01-31 00:14:41,1391934,-1156.000,-1288.000,8216.000,-274.000,101.000,466.000,0.000,0.000,0
2026-01-31 00:14:41,1391974,-1256.000,-1129.000,8216.000,-41.000,9.000,392.000,0.000,0.000,0
2026-01-31 00:14:41,1392014,-1279.000,-1169.000,8160.000,-25.000,-98.000,241.000,0.000,0.000,0
2026-01-31 00:14:41,1392054,-1311.000,-1212.000,8096.000,-4.000,-20.000,196.000,0.000,0.000,0
2026-01-31 00:14:41,1392094,-1421.000,-1201.000,8079.000,68.000,-50.000,257.000,0.000,0.000,0
2026-01-31 00:14:41,1392134,-1044.000,-1193.000,7843.000,345.000,-92.000,297.000,0.000,0.000,0
2026-01-31 00:14:41,1392174,-1413.000,-1626.000,7345.000,1115.000,-27.000,329.000,0.000,0.000,0
2026-01-31 00:14:41,1392214,-1408.000,-2801.000,6279.000,3715.000,-12.000,317.000,0.000,0.000,0
2026-01-31 00:14:41,1392254,-1488.000,-2617.000,4956.000,9552.000,206.000,409.000,0.000,0.000,0
2026-01-31 00:14:41,1392294,-1004.000,-844.000,4064.000,17873.000,475.000,712.000,0.000,0.000,0
2026-01-31 00:14:41,1392334,-1602.000,4151.000,3717.000,25190.000,1036.000,746.000,0.000,0.000,0
2026-01-31 00:14:41,1392374,-1735.000,9733.000,2388.000,27853.000,1426.000,-130.000,0.000,0.000,0
2026-01-31 00:14:41,1392414,-3630.000,8672.000,75.000,27146.000,2667.000,-2085.000,0.000,0.000,0
2026-01-31 00:14:41,1392454,-4650.000,11835.000,-2456.000,29235.000,2320.000,-3089.000,0.000,0.000,0
2026-01-31 00:14:41,1392494,-5152.000,11744.000,-3110.000,23363.000,1629.000,-3436.000,0.000,0.000,0
2026-01-31 00:14:41,1392534,-3933.000,8947.000,-3542.000,15892.000,778.000,-3334.000,0.000,0.000,0
2026-01-31 00:14:41,1392574,-4479.000,7462.000,-4259.000,10943.000,336.000,-2790.000,0.000,0.000,0
2026-01-31 00:14:41,1392614,-4573.000,7371.000,-4385.000,4857.000,-603.000,-1522.000,0.000,0.000,0
2026-01-31 00:14:41,1392654,-4730.000,5553.000,-4399.000,1447.000,-1235.000,-470.000,0.000,0.000,0
2026-01-31 00:14:41,1392694,-4859.000,4779.000,-4978.000,741.000,-1784.000,221.000,0.000,0.000,0
2026-01-31 00:14:41,1392734,-4495.000,4988.000,-4543.000,557.000,-2323.000,705.000,0.000,0.000,0
2026-01-31 00:14:41,1392774,-4233.000,4580.000,-5844.000,981.000,-2479.000,713.000,0.000,0.000,0
2026-01-31 00:14:42,1392814,-3977.000,4591.000,-5896.000,3611.000,-2355.000,729.000,0.000,0.000,1
2026-01-31 00:14:42,1392854,-2879.000,4832.000,-5257.000,4676.000,-1801.000,1171.000,0.000,0.000,1
2026-01-31 00:14:42,1392894,-2691.000,4602.000,-5238.000,6217.000,-1471.000,1883.000,0.000,0.000,1
2026-01-31 00:14:42,1392934,-3176.000,3590.000,-5473.000,5033.000,-1944.000,2305.000,0.000,0.000,0
2026-01-31 00:14:42,1392974,-3034.000,4589.000,-4858.000,4100.000,-1853.000,2384.000,0.000,0.000,0
2026-01-31 00:14:42,1393014,-3386.000,4554.000,-5564.000,1856.000,-1636.000,1911.000,0.000,0.000,0
2026-01-31 00:14:42,1393054,-3492.000,4790.000,-6143.000,1237.000,-1337.000,1399.000,0.000,0.000,0
2026-01-31 00:14:42,1393094,-3093.000,5546.000,-6059.000,-1043.000,-1145.000,1314.000,0.000,0.000,0
2026-01-31 00:14:42,1393134,-2731.000,5184.000,-5073.000,-1983.000,-1161.000,1512.000,0.000,0.000,0
2026-01-31 00:14:42,1393174,-3340.000,5008.000,-4745.000,-1989.000,-1317.000,1608.000,0.000,0.000,0
2026-01-31 00:14:42,1393214,-3678.000,5077.000,-4345.000,-1480.000,-1348.000,1626.000,0.000,0.000,0
2026-01-31 00:14:42,1393254,-3576.000,4984.000,-4014.000,-1965.000,-1418.000,1628.000,0.000,0.000,0
2026-01-31 00:14:42,1393294,-3448.000,4639.000,-3897.000,-978.000,-1155.000,1360.000,0.000,0.000,0
2026-01-31 00:14:42,1393334,-3832.000,5137.000,-3945.000,-85.000,-882.000,1114.000,0.000,0.000,0
2026-01-31 00:14:42,1393374,-4073.000,5226.000,-3900.000,278.000,-996.000,930.000,0.000,0.000,0
2026-01-31 00:14:42,1393416,-4211.000,5165.000,-3860.000,662.000,-1189.000,520.000,0.000,0.000,0
2026-01-31 00:14:42,1393454,-4662.000,5491.000,-4431.000,941.000,-1299.000,174.000,0.000,0.000,0
2026-01-31 00:14:42,1393494,-4587.000,5403.000,-4981.000,740.000,-1459.000,161.000,0.000,0.000,0
2026-01-31 00:14:42,1393534,-5045.000,6119.000,-5367.000,1244.000,-1587.000,283.000,0.000,0.000,0
2026-01-31 00:14:42,1393574,-5242.000,5857.000,-5971.000,808.000,-1596.000,703.000,0.000,0.000,0
2026-01-31 00:14:42,1393614,-4545.000,5537.000,-6147.000,1196.000,-1674.000,1046.000,0.000,0.000,0
2026-01-31 00:14:42,1393654,-4045.000,4747.000,-5531.000,384.000,-2182.000,1302.000,0.000,0.000,0
2026-01-31 00:14:42,1393694,-3658.000,4941.000,-5017.000,-983.000,-2083.000,1625.000,0.000,0.000,0
2026-01-31 00:14:42,1393735,-3629.000,4857.000,-5594.000,-18.000,-1697.000,1507.000,0.000,0.000,0
2026-01-31 00:14:42,1393774,-3247.000,4728.000,-5221.000,918.000,-1171.000,1498.000,0.000,0.000,0
2026-01-31 00:14:43,1393814,-3095.000,4440.000,-4494.000,579.000,-931.000,1866.000,0.000,0.000,1
2026-01-31 00:14:43,1393854,-3326.000,4341.000,-3865.000,685.000,-810.000,2075.000,0.000,0.000,1
2026-01-31 00:14:43,1393894,-3483.000,4579.000,-3648.000,1025.000,-709.000,2094.000,0.000,0.000,1
2026-01-31 00:14:43,1393934,-3995.000,4657.000,-4177.000,122.000,-643.000,1899.000,0.000,0.000,0
2026-01-31 00:14:43,1393974,-3975.000,4633.000,-4017.000,504.000,-650.000,1686.000,0.000,0.000,0
2026-01-31 00:14:43,1394014,-4226.000,5021.000,-4615.000,1143.000,-605.000,1482.000,0.000,0.000,0
2026-01-31 00:14:43,1394054,-4025.000,5813.000,-5137.000,1326.000,-528.000,1387.000,0.000,0.000,0
2026-01-31 00:14:43,1394094,-3965.000,5608.000,-5036.000,1306.000,-350.000,833.000,0.000,0.000,0
2026-01-31 00:14:43,1394134,-4273.000,5768.000,-4622.000,862.000,-187.000,465.000,0.000,0.000,0
2026-01-31 00:14:43,1394174,-4018.000,6488.000,-5730.000,345.000,463.000,256.000,0.000,0.000,0
2026-01-31 00:14:43,1394214,-3432.000,6479.000,-6801.000,1113.000,1176.000,364.000,0.000,0.000,0
2026-01-31 00:14:43,1394254,-2351.000,6470.000,-5567.000,1575.000,587.000,329.000,0.000,0.000,0
2026-01-31 00:14:43,1394294,-1643.000,5544.000,-5156.000,-512.000,-158.000,430.000,0.000,0.000,0
2026-01-31 00:14:43,1394334,-1321.000,4696.000,-4881.000,-517.000,622.000,208.000,0.000,0.000,0
2026-01-31 00:14:43,1394374,-1675.000,4315.000,-5437.000,-370.000,620.000,880.000,0.000,0.000,0
2026-01-31 00:14:43,1394414,-1977.000,4981.000,-4665.000,715.000,436.000,1232.000,0.000,0.000,0
2026-01-31 00:14:43,1394454,-1977.000,6209.000,-2988.000,-785.000,521.000,1188.000,0.000,0.000,0
2026-01-31 00:14:43,1394494,-2402.000,5900.000,-3768.000,306.000,125.000,967.000,0.000,0.000,0
2026-01-31 00:14:43,1394534,-2801.000,7164.000,-3501.000,-1070.000,185.000,286.000,0.000,0.000,0
2026-01-31 00:14:43,1394574,-2500.000,6093.000,-3349.000,-864.000,408.000,-35.000,0.000,0.000,0
2026-01-31 00:14:43,1394614,-2066.000,6067.000,-3458.000,-1041.000,25.000,574.000,0.000,0.000,0
2026-01-31 00:14:43,1394654,-1780.000,8407.000,-3210.000,-2927.000,-240.000,1073.000,0.000,0.000,0
2026-01-31 00:14:43,1394694,-858.000,7546.000,-3637.000,-6995.000,962.000,1548.000,0.000,0.000,0
2026-01-31 00:14:43,1394734,-466.000,7627.000,-3796.000,-7538.000,1225.000,3127.000,0.000,0.000,0
2026-01-31 00:14:43,1394774,615.000,7148.000,-2349.000,-7972.000,2148.000,5653.000,0.000,0.000,0
2026-01-31 00:14:44,1394814,743.000,8922.000,-2980.000,-12820.000,3059.000,9237.000,0.000,0.000,1
2026-01-31 00:14:44,1394854,750.000,7189.000,-3032.000,-17077.000,2608.000,13190.000,0.000,0.000,1
2026-01-31 00:14:44,1394894,1607.000,6388.000,-2177.000,-17342.000,45.000,16508.000,0.000,0.000,1
2026-01-31 00:14:44,1394934,2983.000,6409.000,-2331.000,-15029.000,-3571.000,17990.000,0.000,0.000,0
2026-01-31 00:14:44,1394974,5471.000,7561.000,250.000,-12621.000,-8989.000,17258.000,0.000,0.000,0
2026-01-31 00:14:44,1395014,6945.000,10328.000,1392.000,-11811.000,-13510.000,13767.000,0.000,0.000,0
2026-01-31 00:14:44,1395054,7307.000,5153.000,-154.000,-11185.000,-15515.000,7468.000,0.000,0.000,0
2026-01-31 00:14:44,1395094,8784.000,5276.000,347.000,-3431.000,-10200.000,-3354.000,0.000,0.000,0
2026-01-31 00:14:44,1395134,5732.000,5454.000,1410.000,2661.000,-10108.000,-9098.000,0.000,0.000,0
2026-01-31 00:14:44,1395174,7282.000,9130.000,561.000,6928.000,-10620.000,-10773.000,0.000,0.000,0
2026-01-31 00:14:44,1395214,6492.000,9289.000,2114.000,2029.000,-7654.000,-9212.000,0.000,0.000,0
2026-01-31 00:14:44,1395254,6077.000,4786.000,1620.000,-2360.000,-5087.000,-7608.000,0.000,0.000,0
2026-01-31 00:14:44,1395294,6121.000,4804.000,1005.000,-301.000,-3559.000,-5527.000,0.000,0.000,0
2026-01-31 00:14:44,1395334,6665.000,5825.000,996.000,-2569.000,-908.000,-2499.000,0.000,0.000,0
2026-01-31 00:14:44,1395374,6353.000,7237.000,291.000,-5990.000,980.000,-1639.000,0.000,0.000,0
2026-01-31 00:14:44,1395416,4238.000,7295.000,-460.000,665.000,1638.000,-1692.000,0.000,0.000,0
2026-01-31 00:14:44,1395456,6208.000,6817.000,-2656.000,-7806.000,1093.000,-1622.000,0.000,0.000,0
2026-01-31 00:14:44,1395494,2232.000,7729.000,-2550.000,-1418.000,2772.000,-4125.000,0.000,0.000,0
2026-01-31 00:14:44,1395534,1678.000,7334.000,-3747.000,-2007.000,1200.000,-4661.000,0.000,0.000,0
2026-01-31 00:14:44,1395574,1675.000,4372.000,-3151.000,-2269.000,666.000,-3778.000,0.000,0.000,0
2026-01-31 00:14:44,1395614,4610.000,5137.000,-739.000,406.000,-51.000,-2349.000,0.000,0.000,0
2026-01-31 00:14:44,1395654,4508.000,3899.000,-309.000,2133.000,355.000,-846.000,0.000,0.000,0
2026-01-31 00:14:44,1395694,5734.000,6498.000,1322.000,4071.000,1382.000,-161.000,0.000,0.000,0
2026-01-31 00:14:44,1395737,4659.000,4242.000,418.000,-752.000,405.000,1112.000,0.000,0.000,0
2026-01-31 00:14:44,1395774,3073.000,1815.000,-1276.000,3307.000,-2165.000,682.000,0.000,0.000,0
2026-01-31 00:14:45,1395814,-2559.000,622.000,-7641.000,18852.000,-2561.000,3284.000,0.000,0.000,1
2026-01-31 00:14:45,1395854,-5875.000,7312.000,-11952.000,14079.000,-8642.000,8604.000,0.000,0.000,1
2026-01-31 00:14:45,1395894,-5230.000,8985.000,-10388.000,4352.000,-12852.000,9938.000,0.000,0.000,1
2026-01-31 00:14:45,1395934,1460.000,15676.000,-6055.000,-11392.000,-13402.000,8869.000,0.000,0.000,0
2026-01-31 00:14:45,1395974,3371.000,4200.000,-3951.000,-30661.000,-10031.000,13118.000,0.000,0.000,0
2026-01-31 00:14:45,1396014,9118.000,-12413.000,2571.000,-22855.000,-5327.000,12199.000,0.000,0.000,0
2026-01-31 00:14:45,1396054,8676.000,-652.000,-1420.000,-2945.000,-2445.000,9403.000,0.000,0.000,0
2026-01-31 00:14:45,1396094,8884.000,303.000,-3638.000,3515.000,-2654.000,9635.000,0.000,0.000,0
2026-01-31 00:14:45,1396134,8705.000,427.000,-9601.000,4577.000,-1988.000,11164.000,0.000,0.000,0
2026-01-31 00:14:45,1396174,9725.000,6439.000,-10224.000,16990.000,1966.000,5189.000,0.000,0.000,0
2026-01-31 00:14:45,1396214,3068.000,12033.000,-15461.000,32643.000,2007.000,-6235.000,0.000,0.000,0
2026-01-31 00:14:45,1396254,1709.000,-1119.000,-14381.000,32713.000,1878.000,-11431.000,0.000,0.000,0
2026-01-31 00:14:45,1396294,893.000,2961.000,-24079.000,32713.000,-435.000,-14063.000,0.000,0.000,0
2026-01-31 00:14:45,1396334,3848.000,2148.000,-12389.000,32713.000,-6205.000,-9961.000,0.000,0.000,0
2026-01-31 00:14:45,1396374,4951.000,7008.000,-7463.000,32713.000,-10296.000,-10076.000,0.000,0.000,0
2026-01-31 00:14:45,1396414,5367.000,9136.000,-6088.000,31678.000,-8234.000,-12515.000,0.000,0.000,0
2026-01-31 00:14:45,1396454,9537.000,10865.000,-5528.000,26957.000,-10112.000,-12916.000,0.000,0.000,0
2026-01-31 00:14:45,1396494,12142.000,16025.000,-2078.000,11122.000,-14264.000,-13807.000,0.000,0.000,0
2026-01-31 00:14:45,1396534,13582.000,12682.000,-4312.000,-10890.000,-15601.000,-11301.000,0.000,0.000,0
2026-01-31 00:14:45,1396574,14855.000,15786.000,-9163.000,-26633.000,-14931.000,-14564.000,0.000,0.000,0
2026-01-31 00:14:45,1396614,13283.000,11463.000,-5264.000,32721.000,-7527.000,-16894.000,0.000,0.000,0
2026-01-31 00:14:45,1396654,8071.000,11833.000,-2924.000,32721.000,-4101.000,-16435.000,0.000,0.000,0
2026-01-31 00:14:45,1396694,7752.000,3872.000,-4653.000,32721.000,-596.000,-15484.000,0.000,0.000,0
2026-01-31 00:14:45,1396734,7505.000,-3719.000,-903.000,-31885.000,3840.000,-12951.000,0.000,0.000,0
2026-01-31 00:14:45,1396774,5377.000,-8098.000,1749.000,-13241.000,5072.000,-13121.000,0.000,0.000,0
2026-01-31 00:14:46,1396814,4044.000,789.000,6371.000,-2953.000,3173.000,-11354.000,0.000,0.000,1
2026-01-31 00:14:46,1396854,-327.000,-3951.000,7199.000,-12591.000,2004.000,-9917.000,0.000,0.000,1
2026-01-31 00:14:46,1396894,-830.000,-4747.000,7720.000,-11219.000,-826.000,-10441.000,0.000,0.000,1
2026-01-31 00:14:46,1396934,-279.000,-4816.000,9338.000,-11940.000,-818.000,-10620.000,0.000,0.000,0
2026-01-31 00:14:46,1396974,742.000,-5440.000,7944.000,-10009.000,1053.000,-9094.000,0.000,0.000,0
2026-01-31 00:14:46,1397014,292.000,-6232.000,7782.000,-7409.000,4024.000,-5782.000,0.000,0.000,0
2026-01-31 00:14:46,1397054,2902.000,-6243.000,8160.000,3264.000,7585.000,-1234.000,0.000,0.000,0
2026-01-31 00:14:46,1397094,5352.000,102.000,4481.000,11831.000,14592.000,-1000.000,0.000,0.000,0
2026-01-31 00:14:46,1397134,5007.000,-3087.000,3457.000,18786.000,21959.000,-6030.000,0.000,0.000,0
2026-01-31 00:14:46,1397174,2199.000,3145.000,965.000,29273.000,21518.000,-16736.000,0.000,0.000,0
2026-01-31 00:14:46,1397214,987.000,2617.000,2225.000,21818.000,16416.000,-24301.000,0.000,0.000,0
2026-01-31 00:14:46,1397254,-2690.000,3203.000,256.000,20987.000,11152.000,-29224.000,0.000,0.000,0
2026-01-31 00:14:46,1397294,-8606.000,238.000,-404.000,18934.000,3877.000,-27832.000,0.000,0.000,0
2026-01-31 00:14:46,1397334,-8754.000,779.000,1636.000,14588.000,-4275.000,-23750.000,0.000,0.000,0
2026-01-31 00:14:46,1397374,-6359.000,2705.000,6684.000,8272.000,-11411.000,-13278.000,0.000,0.000,0
2026-01-31 00:14:46,1397414,-2001.000,1403.000,13584.000,-2908.000,-11398.000,-6331.000,0.000,0.000,0
2026-01-31 00:14:46,1397454,5210.000,-2308.000,21385.000,-4537.000,-919.000,-2138.000,0.000,0.000,0
2026-01-31 00:14:46,1397494,-5388.000,-4748.000,2691.000,-4017.000,4602.000,905.000,0.000,0.000,0
2026-01-31 00:14:46,1397534,-4619.000,1179.000,687.000,-3174.000,371.000,4210.000,0.000,0.000,0
2026-01-31 00:14:46,1397574,-767.000,1579.000,5005.000,-5859.000,916.000,7947.000,0.000,0.000,0
2026-01-31 00:14:46,1397614,-5920.000,-1463.000,2412.000,-19067.000,2944.000,13340.000,0.000,0.000,0
2026-01-31 00:14:46,1397654,-1528.000,-11137.000,1296.000,-10980.000,1675.000,16821.000,0.000,0.000,0
2026-01-31 00:14:46,1397694,-4678.000,7573.000,5876.000,880.000,3348.000,15810.000,0.000,0.000,0
2026-01-31 00:14:46,1397736,-2345.000,-2738.000,1577.000,3406.000,3072.000,21007.000,0.000,0.000,0
2026-01-31 00:14:46,1397774,-4863.000,1356.000,-893.000,5112.000,7382.000,24256.000,0.000,0.000,0
2026-01-31 00:14:47,1397814,-7696.000,7085.000,6458.000,1564.000,8791.000,26800.000,0.000,0.000,1
2026-01-31 00:14:47,1397854,-22366.000,27627.000,7507.000,15421.000,6813.000,13733.000,0.000,0.000,1
2026-01-31 00:14:47,1397894,-16830.000,19566.000,5073.000,-5137.000,-308.000,-1602.000,0.000,0.000,1
2026-01-31 00:14:47,1397934,-10334.000,4280.000,7500.000,-7248.000,-1620.000,-10036.000,0.000,0.000,0
2026-01-31 00:14:47,1397974,-6629.000,3988.000,2906.000,40.000,-4665.000,-14887.000,0.000,0.000,0
2026-01-31 00:14:47,1398014,-4332.000,1151.000,-446.000,1006.000,-7008.000,-13903.000,0.000,0.000,0
2026-01-31 00:14:47,1398054,-877.000,-1875.000,2829.000,2829.000,-9555.000,-11503.000,0.000,0.000,0
2026-01-31 00:14:47,1398094,-311.000,-3347.000,3189.000,1488.000,-8374.000,-6764.000,0.000,0.000,0
2026-01-31 00:14:47,1398134,-383.000,-3051.000,2848.000,6475.000,-5131.000,-3094.000,0.000,0.000,0
2026-01-31 00:14:47,1398174,-1290.000,1733.000,4921.000,11988.000,-2705.000,-1932.000,0.000,0.000,0
2026-01-31 00:14:47,1398214,-1283.000,3471.000,5064.000,8623.000,-744.000,-537.000,0.000,0.000,0
2026-01-31 00:14:47,1398254,-2402.000,2855.000,4951.000,6437.000,1962.000,-334.000,0.000,0.000,0
2026-01-31 00:14:47,1398294,-3381.000,2497.000,6365.000,6174.000,4330.000,878.000,0.000,0.000,0
2026-01-31 00:14:47,1398334,-3179.000,2771.000,5017.000,6379.000,5723.000,1411.000,0.000,0.000,0
2026-01-31 00:14:47,1398374,-3893.000,1930.000,6265.000,7678.000,7537.000,2651.000,0.000,0.000,0
2026-01-31 00:14:47,1398414,-3783.000,4000.000,1294.000,7078.000,11473.000,5483.000,0.000,0.000,0
2026-01-31 00:14:47,1398454,-3344.000,437.000,-3644.000,4833.000,16795.000,8631.000,0.000,0.000,0
2026-01-31 00:14:47,1398494,-3221.000,9410.000,-4966.000,8743.000,20676.000,12299.000,0.000,0.000,0
2026-01-31 00:14:47,1398534,-2558.000,16938.000,-6090.000,-3815.000,18016.000,14169.000,0.000,0.000,0
2026-01-31 00:14:47,1398574,-3161.000,19886.000,-2740.000,-29472.000,11271.000,20333.000,0.000,0.000,0
2026-01-31 00:14:47,1398614,-3443.000,13233.000,-7654.000,32721.000,-296.000,23590.000,0.000,0.000,0
2026-01-31 00:14:47,1398654,4029.000,9139.000,-4454.000,32721.000,-11717.000,15939.000,0.000,0.000,0
2026-01-31 00:14:47,1398694,2967.000,-6161.000,1720.000,-29788.000,-7947.000,5144.000,0.000,0.000,0
2026-01-31 00:14:47,1398734,4079.000,-1604.000,3952.000,-1277.000,-8959.000,-4468.000,0.000,0.000,0
2026-01-31 00:14:47,1398774,5926.000,5277.000,6009.000,8944.000,-10215.000,-7186.000,0.000,0.000,0
2026-01-31 00:14:48,1398814,7009.000,3851.000,8632.000,1166.000,-9023.000,-1548.000,0.000,0.000,1
2026-01-31 00:14:48,1398854,9455.000,1530.000,4910.000,-7269.000,-8038.000,828.000,0.000,0.000,1
2026-01-31 00:14:48,1398894,9403.000,-2761.000,3018.000,-4029.000,-5040.000,3494.000,0.000,0.000,1
2026-01-31 00:14:48,1398934,9167.000,-1281.000,2503.000,6794.000,-4720.000,3356.000,0.000,0.000,0
2026-01-31 00:14:48,1398974,8755.000,174.000,1807.000,15002.000,-4083.000,3670.000,0.000,0.000,0
2026-01-31 00:14:48,1399014,9719.000,1915.000,255.000,20194.000,-3218.000,4403.000,0.000,0.000,0
2026-01-31 00:14:48,1399054,10832.000,2558.000,-858.000,21623.000,-1354.000,4326.000,0.000,0.000,0
2026-01-31 00:14:48,1399094,9338.000,2823.000,-1112.000,22287.000,829.000,3028.000,0.000,0.000,0
2026-01-31 00:14:48,1399134,6628.000,2945.000,1438.000,20358.000,698.000,1068.000,0.000,0.000,0
2026-01-31 00:14:48,1399174,5620.000,3971.000,2515.000,16533.000,-927.000,160.000,0.000,0.000,0
2026-01-31 00:14:48,1399214,5320.000,4191.000,1432.000,9003.000,-1269.000,2149.000,0.000,0.000,0
2026-01-31 00:14:48,1399254,5370.000,2806.000,1280.000,3618.000,-1049.000,4176.000,0.000,0.000,0
2026-01-31 00:14:48,1399294,6572.000,3764.000,1407.000,2503.000,-1818.000,4843.000,0.000,0.000,0
2026-01-31 00:14:48,1399334,7830.000,3742.000,981.000,506.000,-1712.000,4926.000,0.000,0.000,0
2026-01-31 00:14:48,1399374,8804.000,4438.000,618.000,-976.000,-1772.000,4276.000,0.000,0.000,0
2026-01-31 00:14:48,1399416,9313.000,4079.000,869.000,-3085.000,-1459.000,2887.000,0.000,0.000,0
2026-01-31 00:14:48,1399456,9264.000,3686.000,574.000,-3675.000,-1319.000,641.000,0.000,0.000,0
2026-01-31 00:14:48,1399494,12718.000,3467.000,281.000,-3206.000,-1669.000,-1421.000,0.000,0.000,0
2026-01-31 00:14:48,1399534,10788.000,3437.000,837.000,-4042.000,380.000,-2994.000,0.000,0.000,0
2026-01-31 00:14:48,1399574,10435.000,2998.000,-218.000,-5930.000,1028.000,-3935.000,0.000,0.000,0
2026-01-31 00:14:48,1399614,12949.000,2513.000,-1339.000,-7960.000,1846.000,-4246.000,0.000,0.000,0
2026-01-31 00:14:48,1399654,9099.000,1993.000,-592.000,-9420.000,3628.000,-4780.000,0.000,0.000,0
2026-01-31 00:14:48,1399694,7527.000,1780.000,-290.000,-9134.000,3013.000,-5956.000,0.000,0.000,0
2026-01-31 00:14:48,1399737,7141.000,1560.000,-684.000,-9208.000,2935.000,-6605.000,0.000,0.000,0
2026-01-31 00:14:48,1399774,7108.000,1610.000,-1104.000,-9137.000,3375.000,-6828.000,0.000,0.000,0
2026-01-31 00:14:49,1399814,6886.000,844.000,-1312.000,-8879.000,4398.000,-5923.000,0.000,0.000,1
2026-01-31 00:14:49,1399854,6077.000,259.000,-1250.000,-6525.000,4849.000,-4750.000,0.000,0.000,1
2026-01-31 00:14:49,1399894,5338.000,-19.000,-774.000,-2583.000,4289.000,-3875.000,0.000,0.000,1
2026-01-31 00:14:49,1399934,5801.000,229.000,71.000,1239.000,2557.000,-2137.000,0.000,0.000,0
2026-01-31 00:14:49,1399974,5958.000,587.000,640.000,3480.000,950.000,152.000,0.000,0.000,0
2026-01-31 00:14:49,1400014,9286.000,736.000,922.000,4047.000,-1374.000,3153.000,0.000,0.000,0
2026-01-31 00:14:49,1400054,10042.000,774.000,1843.000,5164.000,-3862.000,8333.000,0.000,0.000,0
2026-01-31 00:14:49,1400094,11236.000,836.000,1337.000,6301.000,-5166.000,10514.000,0.000,0.000,0
2026-01-31 00:14:49,1400134,13399.000,1418.000,656.000,8604.000,-4962.000,10281.000,0.000,0.000,0
2026-01-31 00:14:49,1400174,10580.000,2370.000,653.000,9176.000,-2265.000,7709.000,0.000,0.000,0
2026-01-31 00:14:49,1400214,7004.000,1741.000,-78.000,7822.000,-548.000,5039.000,0.000,0.000,0
2026-01-31 00:14:49,1400254,6010.000,2020.000,402.000,8627.000,-361.000,2866.000,0.000,0.000,0
2026-01-31 00:14:49,1400294,5882.000,2407.000,142.000,9320.000,-239.000,2746.000,0.000,0.000,0
2026-01-31 00:14:49,1400334,5593.000,2505.000,-659.000,9126.000,1.000,3121.000,0.000,0.000,0
2026-01-31 00:14:49,1400374,6237.000,3236.000,273.000,8808.000,-642.000,3802.000,0.000,0.000,0
2026-01-31 00:14:49,1400414,7626.000,4210.000,824.000,6481.000,-994.000,5441.000,0.000,0.000,0
2026-01-31 00:14:49,1400454,7658.000,4531.000,87.000,5020.000,-1065.000,5031.000,0.000,0.000,0
2026-01-31 00:14:49,1400494,8657.000,6290.000,2100.000,2800.000,-1772.000,2623.000,0.000,0.000,0
2026-01-31 00:14:49,1400534,9323.000,5975.000,1418.000,-2655.000,-2358.000,-91.000,0.000,0.000,0
2026-01-31 00:14:49,1400574,12315.000,4579.000,966.000,-5083.000,-2404.000,-2349.000,0.000,0.000,0
2026-01-31 00:14:49,1400614,11318.000,4238.000,1586.000,-5246.000,-1082.000,-4244.000,0.000,0.000,0
2026-01-31 00:14:49,1400654,11732.000,3964.000,447.000,-6516.000,-111.000,-5431.000,0.000,0.000,0
2026-01-31 00:14:49,1400694,13474.000,3449.000,-719.000,-8544.000,1296.000,-6535.000,0.000,0.000,0
2026-01-31 00:14:49,1400734,12380.000,2905.000,-921.000,-10372.000,2653.000,-7271.000,0.000,0.000,0
2026-01-31 00:14:49,1400774,8882.000,1881.000,-984.000,-12012.000,3385.000,-7932.000,0.000,0.000,0
2026-01-31 00:14:50,1400814,8086.000,1746.000,-1096.000,-11428.000,3660.000,-8322.000,0.000,0.000,1
2026-01-31 00:14:50,1400854,7909.000,1326.000,-1410.000,-10744.000,4229.000,-8087.000,0.000,0.000,1
2026-01-31 00:14:50,1400894,7547.000,764.000,-1646.000,-8903.000,4927.000,-7176.000,0.000,0.000,1
2026-01-31 00:14:50,1400934,6808.000,417.000,-1544.000,-5746.000,5218.000,-5920.000,0.000,0.000,0
2026-01-31 00:14:50,1400974,5886.000,283.000,-1370.000,-1874.000,4890.000,-4781.000,0.000,0.000,0
2026-01-31 00:14:50,1401014,6139.000,817.000,-709.000,1833.000,3474.000,-3330.000,0.000,0.000,0
2026-01-31 00:14:50,1401054,5899.000,1219.000,149.000,2958.000,2268.000,-1137.000,0.000,0.000,0
2026-01-31 00:14:50,1401094,5535.000,1458.000,829.000,2146.000,825.000,1195.000,0.000,0.000,0
2026-01-31 00:14:50,1401134,7264.000,1121.000,1003.000,1483.000,-1087.000,4152.000,0.000,0.000,0
2026-01-31 00:14:50,1401174,9502.000,767.000,-18.000,4077.000,-2729.000,9603.000,0.000,0.000,0
2026-01-31 00:14:50,1401214,10248.000,865.000,-464.000,9020.000,-3536.000,11341.000,0.000,0.000,0
2026-01-31 00:14:50,1401254,12159.000,2190.000,-258.000,14535.000,-4261.000,11127.000,0.000,0.000,0
2026-01-31 00:14:50,1401294,12110.000,4192.000,760.000,14477.000,-3660.000,10503.000,0.000,0.000,0
2026-01-31 00:14:50,1401334,8750.000,4467.000,421.000,9212.000,-1913.000,9898.000,0.000,0.000,0
2026-01-31 00:14:50,1401374,7194.000,3390.000,530.000,5171.000,-1860.000,8202.000,0.000,0.000,0
2026-01-31 00:14:50,1401416,7080.000,3373.000,926.000,4933.000,-2046.000,6543.000,0.000,0.000,0
2026-01-31 00:14:50,1401454,7218.000,3713.000,914.000,5413.000,-1828.000,5573.000,0.000,0.000,0
2026-01-31 00:14:50,1401494,7398.000,4515.000,1209.000,5282.000,-1288.000,5105.000,0.000,0.000,0
2026-01-31 00:14:50,1401534,7207.000,6711.000,2381.000,3829.000,-960.000,4891.000,0.000,0.000,0
2026-01-31 00:14:50,1401574,7572.000,7558.000,2096.000,-2536.000,-1578.000,2345.000,0.000,0.000,0
2026-01-31 00:14:50,1401614,8636.000,5088.000,779.000,-5865.000,-1632.000,-912.000,0.000,0.000,0
2026-01-31 00:14:50,1401654,10757.000,4503.000,566.000,-4498.000,-1198.000,-3378.000,0.000,0.000,0
2026-01-31 00:14:50,1401694,10759.000,4782.000,620.000,-4066.000,40.000,-4519.000,0.000,0.000,0
2026-01-31 00:14:50,1401736,13010.000,5388.000,-372.000,-6959.000,16.000,-5237.000,0.000,0.000,0
2026-01-31 00:14:50,1401774,14187.000,4346.000,-2337.000,-11764.000,814.000,-5950.000,0.000,0.000,0
2026-01-31 00:14:51,1401814,15207.000,2720.000,-3393.000,-14583.000,2536.000,-6996.000,0.000,0.000,1
2026-01-31 00:14:51,1401854,13366.000,1692.000,-3070.000,-14595.000,4869.000,-8415.000,0.000,0.000,1
2026-01-31 00:14:51,1401894,10691.000,1616.000,-2095.000,-12676.000,5887.000,-9688.000,0.000,0.000,1
2026-01-31 00:14:51,1401934,10089.000,1553.000,-2128.000,-11907.000,6008.000,-10918.000,0.000,0.000,0
2026-01-31 00:14:51,1401974,9114.000,896.000,-2289.000,-10160.000,7190.000,-10657.000,0.000,0.000,0
2026-01-31 00:14:51,1402014,7014.000,-699.000,-2350.000,-8381.000,7747.000,-8781.000,0.000,0.000,0
2026-01-31 00:14:51,1402054,5511.000,-548.000,-1426.000,-4314.000,6843.000,-6716.000,0.000,0.000,0
2026-01-31 00:14:51,1402094,4630.000,-414.000,-729.000,-851.000,4883.000,-4569.000,0.000,0.000,0
2026-01-31 00:14:51,1402134,4661.000,-134.000,182.000,1033.000,2401.000,-1946.000,0.000,0.000,0
2026-01-31 00:14:51,1402174,4146.000,50.000,716.000,1755.000,259.000,872.000,0.000,0.000,0
2026-01-31 00:14:51,1402214,5088.000,489.000,1335.000,2543.000,-2412.000,4359.000,0.000,0.000,0
2026-01-31 00:14:51,1402254,7802.000,1050.000,1995.000,3650.000,-4890.000,8247.000,0.000,0.000,0
2026-01-31 00:14:51,1402294,10887.000,3213.000,1674.000,5856.000,-6517.000,11837.000,0.000,0.000,0
2026-01-31 00:14:51,1402334,11179.000,2901.000,813.000,8520.000,-6196.000,12457.000,0.000,0.000,0
2026-01-31 00:14:51,1402374,12128.000,3524.000,544.000,12135.000,-5487.000,10917.000,0.000,0.000,0
2026-01-31 00:14:51,1402414,11164.000,4356.000,1000.000,13207.000,-4052.000,9078.000,0.000,0.000,0
2026-01-31 00:14:51,1402454,8785.000,4061.000,875.000,11238.000,-2544.000,7242.000,0.000,0.000,0
2026-01-31 00:14:51,1402494,7024.000,3535.000,506.000,9322.000,-1534.000,5828.000,0.000,0.000,0
2026-01-31 00:14:51,1402534,7201.000,3521.000,373.000,9082.000,-1300.000,5287.000,0.000,0.000,0
2026-01-31 00:14:51,1402574,7287.000,3750.000,655.000,8803.000,-902.000,5093.000,0.000,0.000,0
2026-01-31 00:14:51,1402614,7643.000,4415.000,779.000,8359.000,-993.000,5332.000,0.000,0.000,0
2026-01-31 00:14:51,1402654,7464.000,5206.000,1253.000,7248.000,-926.000,5297.000,0.000,0.000,0
2026-01-31 00:14:51,1402694,7997.000,6953.000,1742.000,2377.000,-1357.000,3720.000,0.000,0.000,0
2026-01-31 00:14:51,1402734,7913.000,6064.000,994.000,-2495.000,-1600.000,1257.000,0.000,0.000,0
2026-01-31 00:14:51,1402774,9936.000,4844.000,331.000,-3494.000,-2101.000,-1875.000,0.000,0.000,0
2026-01-31 00:14:52,1402814,11493.000,4673.000,136.000,-3282.000,-1286.000,-3952.000,0.000,0.000,1
2026-01-31 00:14:52,1402854,11488.000,4396.000,25.000,-4256.000,-268.000,-5527.000,0.000,0.000,1
2026-01-31 00:14:52,1402894,11162.000,3999.000,-400.000,-6624.000,70.000,-7370.000,0.000,0.000,1
2026-01-31 00:14:52,1402934,13526.000,3697.000,-1223.000,-9852.000,454.000,-8173.000,0.000,0.000,0
2026-01-31 00:14:52,1402974,13212.000,2533.000,-1766.000,-12579.000,2157.000,-8396.000,0.000,0.000,0
2026-01-31 00:14:52,1403014,10983.000,1837.000,-1634.000,-13225.000,3007.000,-8801.000,0.000,0.000,0
2026-01-31 00:14:52,1403054,9484.000,1742.000,-1498.000,-12068.000,3210.000,-9235.000,0.000,0.000,0
2026-01-31 00:14:52,1403094,8397.000,1041.000,-1527.000,-11361.000,3926.000,-8848.000,0.000,0.000,0
2026-01-31 00:14:52,1403134,7691.000,520.000,-1511.000,-9841.000,4538.000,-8062.000,0.000,0.000,0
2026-01-31 00:14:52,1403174,6252.000,-657.000,-1478.000,-6843.000,4850.000,-6527.000,0.000,0.000,0
2026-01-31 00:14:52,1403214,5004.000,-708.000,-714.000,-1702.000,4222.000,-4882.000,0.000,0.000,0
2026-01-31 00:14:52,1403254,5247.000,364.000,473.000,1810.000,2585.000,-2625.000,0.000,0.000,0
2026-01-31 00:14:52,1403294,5326.000,681.000,469.000,1721.000,1311.000,394.000,0.000,0.000,0
2026-01-31 00:14:52,1403334,5358.000,837.000,824.000,991.000,-162.000,3578.000,0.000,0.000,0
2026-01-31 00:14:52,1403374,7667.000,1137.000,1039.000,1956.000,-2374.000,6739.000,0.000,0.000,0
2026-01-31 00:14:52,1403416,11020.000,1572.000,483.000,3804.000,-4082.000,10344.000,0.000,0.000,0
2026-01-31 00:14:52,1403456,10862.000,2089.000,597.000,7557.000,-4239.000,12203.000,0.000,0.000,0
2026-01-31 00:14:52,1403494,11507.000,2747.000,131.000,11094.000,-4477.000,10634.000,0.000,0.000,0
2026-01-31 00:14:52,1403534,10936.000,3547.000,132.000,12051.000,-3237.000,8551.000,0.000,0.000,0
2026-01-31 00:14:52,1403574,8224.000,3475.000,445.000,10927.000,-1594.000,7041.000,0.000,0.000,0
2026-01-31 00:14:52,1403614,6882.000,3553.000,429.000,9964.000,-1214.000,5946.000,0.000,0.000,0
2026-01-31 00:14:52,1403654,7005.000,3499.000,275.000,9039.000,-1050.000,5709.000,0.000,0.000,0
2026-01-31 00:14:52,1403694,7115.000,3822.000,194.000,7957.000,-789.000,5603.000,0.000,0.000,0
2026-01-31 00:14:52,1403737,7345.000,4195.000,763.000,7085.000,-957.000,5420.000,0.000,0.000,0
2026-01-31 00:14:52,1403774,7663.000,4890.000,1550.000,5307.000,-1326.000,4891.000,0.000,0.000,0
2026-01-31 00:14:53,1403814,7643.000,5198.000,1980.000,2957.000,-1415.000,3666.000,0.000,0.000,1
2026-01-31 00:14:53,1403854,8469.000,4987.000,1709.000,-556.000,-1335.000,604.000,0.000,0.000,1
2026-01-31 00:14:53,1403894,9981.000,4424.000,720.000,-1230.000,-1104.000,-1416.000,0.000,0.000,1
2026-01-31 00:14:53,1403934,11079.000,4618.000,912.000,-1706.000,-683.000,-3317.000,0.000,0.000,0
2026-01-31 00:14:53,1403974,11467.000,4743.000,819.000,-3968.000,-521.000,-4697.000,0.000,0.000,0
2026-01-31 00:14:53,1404014,10678.000,4090.000,45.000,-7656.000,-97.000,-6173.000,0.000,0.000,0
2026-01-31 00:14:53,1404054,12963.000,3500.000,-929.000,-11210.000,457.000,-6827.000,0.000,0.000,0
2026-01-31 00:14:53,1404094,12676.000,2142.000,-1591.000,-13047.000,2219.000,-7454.000,0.000,0.000,0
2026-01-31 00:14:53,1404134,10369.000,1475.000,-1318.000,-11585.000,3190.000,-8338.000,0.000,0.000,0
2026-01-31 00:14:53,1404174,8654.000,1550.000,-1080.000,-9444.000,3485.000,-8671.000,0.000,0.000,0
2026-01-31 00:14:53,1404214,7963.000,1351.000,-1092.000,-8709.000,3880.000,-8491.000,0.000,0.000,0
2026-01-31 00:14:53,1404254,7512.000,1164.000,-1242.000,-8041.000,4155.000,-7500.000,0.000,0.000,0
2026-01-31 00:14:53,1404294,6816.000,365.000,-1399.000,-6953.000,4429.000,-6157.000,0.000,0.000,0
2026-01-31 00:14:53,1404334,5766.000,-84.000,-893.000,-4115.000,4054.000,-4928.000,0.000,0.000,0
2026-01-31 00:14:53,1404374,5987.000,178.000,-341.000,-299.000,2660.000,-3312.000,0.000,0.000,0
2026-01-31 00:14:53,1404414,5961.000,488.000,160.000,2059.000,1389.000,-976.000,0.000,0.000,0
2026-01-31 00:14:53,1404454,6517.000,677.000,701.000,2542.000,-220.000,1796.000,0.000,0.000,0
2026-01-31 00:14:53,1404494,8446.000,534.000,895.000,3071.000,-2110.000,4993.000,0.000,0.000,0
2026-01-31 00:14:53,1404534,10358.000,776.000,1011.000,5070.000,-3594.000,8845.000,0.000,0.000,0
2026-01-31 00:14:53,1404574,10413.000,641.000,782.000,7148.000,-4084.000,11296.000,0.000,0.000,0
2026-01-31 00:14:53,1404614,12994.000,1972.000,853.000,11534.000,-4312.000,11010.000,0.000,0.000,0
2026-01-31 00:14:53,1404654,10471.000,2797.000,836.000,10978.000,-2418.000,9306.000,0.000,0.000,0
2026-01-31 00:14:53,1404694,7580.000,2207.000,114.000,8629.000,-833.000,7113.000,0.000,0.000,0
2026-01-31 00:14:53,1404734,7012.000,2498.000,370.000,8909.000,-397.000,5312.000,0.000,0.000,0
2026-01-31 00:14:53,1404774,6852.000,2882.000,101.000,9236.000,69.000,4664.000,0.000,0.000,0
2026-01-31 00:14:54,1404814,6833.000,3154.000,-33.000,8651.000,228.000,4716.000,0.000,0.000,1
2026-01-31 00:14:54,1404854,7189.000,3805.000,524.000,7716.000,55.000,5108.000,0.000,0.000,1
2026-01-31 00:14:54,1404894,7428.000,4447.000,755.000,5938.000,-253.000,5553.000,0.000,0.000,1
2026-01-31 00:14:54,1404934,8213.000,5888.000,1121.000,3883.000,-971.000,4835.000,0.000,0.000,0
2026-01-31 00:14:54,1404974,8029.000,4905.000,402.000,-207.000,-1355.000,667.000,0.000,0.000,0
2026-01-31 00:14:54,1405014,10629.000,4429.000,466.000,-2117.000,-2402.000,-2126.000,0.000,0.000,0
2026-01-31 00:14:54,1405054,10724.000,4425.000,788.000,-1948.000,-1704.000,-3651.000,0.000,0.000,0
2026-01-31 00:14:54,1405094,9945.000,4256.000,1050.000,-4174.000,-1244.000,-4966.000,0.000,0.000,0
2026-01-31 00:14:54,1405134,11356.000,4019.000,93.000,-7665.000,-1177.000,-6325.000,0.000,0.000,0
2026-01-31 00:14:54,1405174,13123.000,3169.000,-1169.000,-11147.000,110.000,-6800.000,0.000,0.000,0
2026-01-31 00:14:54,1405214,11712.000,1959.000,-1295.000,-12536.000,1849.000,-7200.000,0.000,0.000,0
2026-01-31 00:14:54,1405254,10017.000,1431.000,-1121.000,-11658.000,2356.000,-7968.000,0.000,0.000,0
2026-01-31 00:14:54,1405294,8782.000,1467.000,-1182.000,-10464.000,2626.000,-8734.000,0.000,0.000,0
2026-01-31 00:14:54,1405334,8737.000,1251.000,-984.000,-9896.000,3127.000,-9107.000,0.000,0.000,0
2026-01-31 00:14:54,1405374,7805.000,526.000,-1317.000,-8050.000,4591.000,-8344.000,0.000,0.000,0
2026-01-31 00:14:54,1405414,6620.000,-39.000,-1233.000,-4943.000,4822.000,-6878.000,0.000,0.000,0
2026-01-31 00:14:54,1405454,5588.000,143.000,-495.000,-1390.000,4210.000,-5402.000,0.000,0.000,0
2026-01-31 00:14:54,1405498,5732.000,560.000,228.000,1087.000,2655.000,-3130.000,0.000,0.000,0
2026-01-31 00:14:54,1405534,5789.000,696.000,236.000,1605.000,1422.000,-52.000,0.000,0.000,0
2026-01-31 00:14:54,1405574,6255.000,661.000,781.000,2121.000,-54.000,2988.000,0.000,0.000,0
2026-01-31 00:14:54,1405614,8376.000,649.000,943.000,3507.000,-1967.000,6282.000,0.000,0.000,0
2026-01-31 00:14:54,1405654,11156.000,1018.000,110.000,5879.000,-3368.000,10120.000,0.000,0.000,0
2026-01-31 00:14:54,1405694,10861.000,1393.000,467.000,7604.000,-3223.000,11993.000,0.000,0.000,0
2026-01-31 00:14:54,1405737,12693.000,2768.000,777.000,9458.000,-3737.000,11467.000,0.000,0.000,0
2026-01-31 00:14:54,1405775,9979.000,2996.000,574.000,6677.000,-1840.000,9871.000,0.000,0.000,0
2026-01-31 00:14:55,1405814,7939.000,2589.000,-77.000,5560.000,-1153.000,7623.000,0.000,0.000,1
2026-01-31 00:14:55,1405854,6885.000,2272.000,187.000,6816.000,-876.000,5552.000,0.000,0.000,1
2026-01-31 00:14:55,1405894,6484.000,2657.000,95.000,8210.000,-697.000,4448.000,0.000,0.000,1
2026-01-31 00:14:55,1405934,6398.000,3275.000,300.000,8599.000,-548.000,4166.000,0.000,0.000,0
2026-01-31 00:14:55,1405974,5956.000,4034.000,865.000,7020.000,-385.000,4443.000,0.000,0.000,0
2026-01-31 00:14:55,1406014,6595.000,3877.000,647.000,4691.000,-779.000,4187.000,0.000,0.000,0
2026-01-31 00:14:55,1406054,7447.000,3470.000,383.000,3875.000,-1200.000,2416.000,0.000,0.000,0
2026-01-31 00:14:55,1406094,8168.000,3516.000,904.000,4481.000,-1343.000,92.000,0.000,0.000,0
2026-01-31 00:14:55,1406134,9784.000,4059.000,453.000,2805.000,-1974.000,-1497.000,0.000,0.000,0
2026-01-31 00:14:55,1406174,10634.000,3708.000,484.000,239.000,-1701.000,-2064.000,0.000,0.000,0
2026-01-31 00:14:55,1406214,12316.000,3780.000,439.000,-1635.000,-2344.000,-3131.000,0.000,0.000,0
2026-01-31 00:14:55,1406254,10131.000,3577.000,966.000,-5481.000,-1653.000,-5112.000,0.000,0.000,0
2026-01-31 00:14:55,1406294,11506.000,3089.000,191.000,-9939.000,-1405.000,-6546.000,0.000,0.000,0
2026-01-31 00:14:55,1406334,11332.000,1321.000,-650.000,-12963.000,430.000,-7482.000,0.000,0.000,0
2026-01-31 00:14:55,1406374,9923.000,508.000,-582.000,-12029.000,1953.000,-7326.000,0.000,0.000,0
2026-01-31 00:14:55,1406414,7639.000,402.000,-616.000,-9153.000,2839.000,-6482.000,0.000,0.000,0
2026-01-31 00:14:55,1406454,6456.000,817.000,-319.000,-6390.000,2688.000,-5310.000,0.000,0.000,0
2026-01-31 00:14:55,1406494,6696.000,1152.000,-309.000,-4886.000,2322.000,-4161.000,0.000,0.000,0
2026-01-31 00:14:55,1406534,6841.000,1230.000,-757.000,-4893.000,2312.000,-1692.000,0.000,0.000,0
2026-01-31 00:14:55,1406574,6350.000,850.000,-972.000,-4144.000,2328.000,-548.000,0.000,0.000,0
2026-01-31 00:14:55,1406614,6977.000,504.000,-519.000,-2378.000,1423.000,-14.000,0.000,0.000,0
2026-01-31 00:14:55,1406654,7672.000,712.000,-443.000,-439.000,560.000,475.000,0.000,0.000,0
2026-01-31 00:14:55,1406694,8101.000,798.000,-126.000,1061.000,-243.000,1237.000,0.000,0.000,0
2026-01-31 00:14:55,1406734,9879.000,748.000,-200.000,2111.000,-1286.000,2458.000,0.000,0.000,0
2026-01-31 00:14:55,1406774,10932.000,1155.000,203.000,3493.000,-1850.000,4265.000,0.000,0.000,0
2026-01-31 00:14:56,1406814,8680.000,1273.000,1733.000,3812.000,-2314.000,5161.000,0.000,0.000,1
2026-01-31 00:14:56,1406854,9460.000,1062.000,2023.000,2542.000,-3830.000,5048.000,0.000,0.000,1
2026-01-31 00:14:56,1406894,8977.000,774.000,1707.000,1292.000,-2854.000,3355.000,0.000,0.000,1
2026-01-31 00:14:56,1406934,7000.000,-82.000,1311.000,2350.000,-1430.000,2028.000,0.000,0.000,0
2026-01-31 00:14:56,1406974,5627.000,545.000,1770.000,5670.000,-583.000,1271.000,0.000,0.000,0
2026-01-31 00:14:56,1407014,5342.000,1163.000,1399.000,7899.000,-192.000,1585.000,0.000,0.000,0
2026-01-31 00:14:56,1407054,5503.000,1913.000,1353.000,8285.000,-178.000,2454.000,0.000,0.000,0
2026-01-31 00:14:56,1407094,5869.000,2575.000,1708.000,6726.000,-415.000,3426.000,0.000,0.000,0
2026-01-31 00:14:56,1407134,6730.000,2864.000,1562.000,4314.000,-912.000,4336.000,0.000,0.000,0
2026-01-31 00:14:56,1407174,8290.000,2950.000,694.000,2371.000,-1325.000,4579.000,0.000,0.000,0
2026-01-31 00:14:56,1407214,9398.000,3422.000,1007.000,703.000,-1238.000,3880.000,0.000,0.000,0
2026-01-31 00:14:56,1407254,9130.000,3016.000,231.000,-1113.000,-1231.000,1890.000,0.000,0.000,0
2026-01-31 00:14:56,1407294,11511.000,2728.000,484.000,-1635.000,-1110.000,-1617.000,0.000,0.000,0
2026-01-31 00:14:56,1407334,10267.000,2892.000,857.000,-1179.000,-353.000,-3028.000,0.000,0.000,0
2026-01-31 00:14:56,1407374,9568.000,2955.000,761.000,-2830.000,168.000,-3922.000,0.000,0.000,0
2026-01-31 00:14:56,1407414,11290.000,2886.000,-218.000,-5640.000,961.000,-4031.000,0.000,0.000,0
2026-01-31 00:14:56,1407456,10628.000,2052.000,-671.000,-7973.000,2462.000,-4135.000,0.000,0.000,0
2026-01-31 00:14:56,1407495,8910.000,1056.000,-413.000,-8712.000,3185.000,-5006.000,0.000,0.000,0
2026-01-31 00:14:56,1407534,7500.000,1264.000,-322.000,-7330.000,3453.000,-6454.000,0.000,0.000,0
2026-01-31 00:14:56,1407574,7426.000,707.000,-573.000,-6402.000,3596.000,-6840.000,0.000,0.000,0
2026-01-31 00:14:56,1407614,7476.000,865.000,-738.000,-5195.000,4168.000,-7101.000,0.000,0.000,0
2026-01-31 00:14:56,1407654,6457.000,384.000,-978.000,-3023.000,4472.000,-5494.000,0.000,0.000,0
2026-01-31 00:14:56,1407694,6008.000,525.000,-600.000,-713.000,3667.000,-4049.000,0.000,0.000,0
2026-01-31 00:14:56,1407737,6380.000,855.000,-195.000,1134.000,2189.000,-2134.000,0.000,0.000,0
2026-01-31 00:14:56,1407774,7019.000,1383.000,233.000,1582.000,831.000,370.000,0.000,0.000,0
2026-01-31 00:14:57,1407814,7137.000,1101.000,549.000,815.000,-271.000,2546.000,0.000,0.000,1
2026-01-31 00:14:57,1407854,8916.000,628.000,356.000,1311.000,-1710.000,4481.000,0.000,0.000,1
2026-01-31 00:14:57,1407894,10983.000,547.000,-19.000,3834.000,-2588.000,6887.000,0.000,0.000,1
2026-01-31 00:14:57,1407934,9618.000,1456.000,1261.000,6480.000,-2463.000,8742.000,0.000,0.000,0
2026-01-31 00:14:57,1407974,8922.000,1696.000,1740.000,6928.000,-3451.000,9067.000,0.000,0.000,0
2026-01-31 00:14:57,1408014,10708.000,2753.000,1250.000,5394.000,-4079.000,8032.000,0.000,0.000,0
2026-01-31 00:14:57,1408054,7660.000,1533.000,871.000,799.000,-1698.000,5635.000,0.000,0.000,0
2026-01-31 00:14:57,1408094,6361.000,1173.000,1409.000,2102.000,-1266.000,3588.000,0.000,0.000,0
2026-01-31 00:14:57,1408134,6039.000,1548.000,1119.000,4494.000,-1118.000,2191.000,0.000,0.000,0
2026-01-31 00:14:57,1408174,6065.000,2195.000,956.000,5753.000,-752.000,1864.000,0.000,0.000,0
2026-01-31 00:14:57,1408214,6320.000,2872.000,1296.000,5101.000,-698.000,2020.000,0.000,0.000,0
2026-01-31 00:14:57,1408254,6976.000,3420.000,1514.000,3144.000,-930.000,2338.000,0.000,0.000,0
2026-01-31 00:14:57,1408294,7245.000,3252.000,1483.000,755.000,-1119.000,1957.000,0.000,0.000,0
2026-01-31 00:14:57,1408334,7949.000,3072.000,1101.000,-910.000,-1432.000,876.000,0.000,0.000,0
2026-01-31 00:14:57,1408374,8869.000,2778.000,765.000,-1711.000,-1096.000,-484.000,0.000,0.000,0
2026-01-31 00:14:57,1408414,10475.000,2481.000,121.000,-1203.000,-997.000,-2513.000,0.000,0.000,0
2026-01-31 00:14:57,1408454,11114.000,2736.000,272.000,-1419.000,-702.000,-3368.000,0.000,0.000,0
2026-01-31 00:14:57,1408494,10993.000,3128.000,461.000,-2576.000,-281.000,-3559.000,0.000,0.000,0
2026-01-31 00:14:57,1408534,10067.000,2843.000,-178.000,-5132.000,-4.000,-4022.000,0.000,0.000,0
2026-01-31 00:14:57,1408574,11775.000,2527.000,-782.000,-7876.000,594.000,-4475.000,0.000,0.000,0
2026-01-31 00:14:57,1408614,10742.000,1456.000,-1060.000,-9536.000,2223.000,-5291.000,0.000,0.000,0
2026-01-31 00:14:57,1408654,8774.000,954.000,-882.000,-8932.000,3098.000,-6226.000,0.000,0.000,0
2026-01-31 00:14:57,1408694,7742.000,851.000,-617.000,-7936.000,3105.000,-6866.000,0.000,0.000,0
2026-01-31 00:14:57,1408734,7470.000,773.000,-553.000,-6290.000,3266.000,-7344.000,0.000,0.000,0
2026-01-31 00:14:57,1408774,7079.000,882.000,-873.000,-5211.000,3503.000,-6901.000,0.000,0.000,0
2026-01-31 00:14:58,1408814,6136.000,415.000,-831.000,-3556.000,3440.000,-4607.000,0.000,0.000,1
2026-01-31 00:14:58,1408854,5539.000,538.000,-587.000,-1258.000,2652.000,-3006.000,0.000,0.000,1
2026-01-31 00:14:58,1408894,5459.000,705.000,-289.000,405.000,1399.000,-866.000,0.000,0.000,1
2026-01-31 00:14:58,1408934,6410.000,1121.000,-188.000,1638.000,-84.000,1542.000,0.000,0.000,0
2026-01-31 00:14:58,1408974,6833.000,1093.000,431.000,2170.000,-1275.000,3713.000,0.000,0.000,0
2026-01-31 00:14:58,1409014,8697.000,1028.000,547.000,2788.000,-2750.000,5735.000,0.000,0.000,0
2026-01-31 00:14:58,1409054,11721.000,875.000,-155.000,4242.000,-3511.000,8127.000,0.000,0.000,0
2026-01-31 00:14:58,1409094,11764.000,1942.000,422.000,6162.000,-2831.000,9988.000,0.000,0.000,0
2026-01-31 00:14:58,1409134,9283.000,2054.000,1971.000,6379.000,-2943.000,9654.000,0.000,0.000,0
2026-01-31 00:14:58,1409174,10156.000,3124.000,2066.000,3125.000,-3753.000,6678.000,0.000,0.000,0
2026-01-31 00:14:58,1409214,7676.000,1765.000,1179.000,-672.000,-1859.000,4753.000,0.000,0.000,0
2026-01-31 00:14:58,1409254,6731.000,581.000,1215.000,852.000,-1111.000,2840.000,0.000,0.000,0
2026-01-31 00:14:58,1409294,6016.000,1267.000,1196.000,4278.000,-304.000,1334.000,0.000,0.000,0
2026-01-31 00:14:58,1409334,5775.000,2144.000,1123.000,5760.000,-71.000,1063.000,0.000,0.000,0
2026-01-31 00:14:58,1409374,5866.000,2880.000,1349.000,4715.000,-105.000,1397.000,0.000,0.000,0
2026-01-31 00:14:58,1409414,6976.000,3165.000,1334.000,2689.000,-666.000,1766.000,0.000,0.000,0
2026-01-31 00:14:58,1409456,7012.000,3087.000,1261.000,417.000,-911.000,1432.000,0.000,0.000,0
2026-01-31 00:14:58,1409495,7389.000,2968.000,1264.000,-1599.000,-1372.000,305.000,0.000,0.000,0
2026-01-31 00:14:58,1409534,8407.000,2394.000,510.000,-2728.000,-1170.000,-811.000,0.000,0.000,0
2026-01-31 00:14:58,1409574,10222.000,1986.000,-365.000,-1326.000,-617.000,-2679.000,0.000,0.000,0
2026-01-31 00:14:58,1409614,10463.000,2145.000,15.000,-745.000,-250.000,-3901.000,0.000,0.000,0
2026-01-31 00:14:58,1409654,11422.000,2614.000,3.000,-1023.000,-573.000,-4179.000,0.000,0.000,0
2026-01-31 00:14:58,1409694,9296.000,2743.000,503.000,-3263.000,-91.000,-4124.000,0.000,0.000,0
2026-01-31 00:14:58,1409736,10446.000,2381.000,-259.000,-6230.000,-440.000,-3983.000,0.000,0.000,0
2026-01-31 00:14:58,1409774,11088.000,1497.000,-652.000,-8623.000,578.000,-4110.000,0.000,0.000,0
2026-01-31 00:14:59,1409814,9484.000,1691.000,-595.000,-9040.000,1681.000,-4679.000,0.000,0.000,1
2026-01-31 00:14:59,1409854,8120.000,234.000,-615.000,-9661.000,2484.000,-4894.000,0.000,0.000,1
2026-01-31 00:14:59,1409894,6403.000,639.000,128.000,-6249.000,2312.000,-5887.000,0.000,0.000,1
2026-01-31 00:14:59,1409934,6830.000,219.000,523.000,-4491.000,3035.000,-5362.000,0.000,0.000,0
2026-01-31 00:14:59,1409974,6199.000,217.000,-41.000,-1107.000,3906.000,-4004.000,0.000,0.000,0
2026-01-31 00:14:59,1410014,5583.000,478.000,-237.000,1165.000,4005.000,-1795.000,0.000,0.000,0
2026-01-31 00:14:59,1410054,6009.000,1011.000,48.000,2584.000,2983.000,665.000,0.000,0.000,0
2026-01-31 00:14:59,1410094,7278.000,1555.000,286.000,3557.000,1792.000,2852.000,0.000,0.000,0
2026-01-31 00:14:59,1410134,7654.000,1770.000,267.000,3394.000,818.000,4665.000,0.000,0.000,0
2026-01-31 00:14:59,1410174,9150.000,1794.000,-170.000,2883.000,-467.000,6084.000,0.000,0.000,0
2026-01-31 00:14:59,1410214,11448.000,1540.000,-607.000,3149.000,-1067.000,7482.000,0.000,0.000,0
2026-01-31 00:14:59,1410254,10921.000,1543.000,119.000,4910.000,-856.000,8195.000,0.000,0.000,0
2026-01-31 00:14:59,1410294,8814.000,2074.000,1112.000,7223.000,-1347.000,7434.000,0.000,0.000,0
2026-01-31 00:14:59,1410334,8289.000,3482.000,1882.000,4969.000,-2436.000,5316.000,0.000,0.000,0
2026-01-31 00:14:59,1410374,7598.000,2525.000,1455.000,434.000,-1943.000,3916.000,0.000,0.000,0
2026-01-31 00:14:59,1410414,6924.000,1394.000,1294.000,-71.000,-1475.000,2073.000,0.000,0.000,0
2026-01-31 00:14:59,1410454,5883.000,919.000,1385.000,1789.000,-850.000,710.000,0.000,0.000,0
2026-01-31 00:14:59,1410494,5715.000,1546.000,1500.000,4046.000,-622.000,103.000,0.000,0.000,0
2026-01-31 00:14:59,1410534,5734.000,2176.000,1780.000,4237.000,-591.000,206.000,0.000,0.000,0
2026-01-31 00:14:59,1410574,6360.000,2832.000,2094.000,2518.000,-953.000,867.000,0.000,0.000,0
2026-01-31 00:14:59,1410614,6895.000,2397.000,1948.000,-100.000,-1205.000,1275.000,0.000,0.000,0
2026-01-31 00:14:59,1410654,7300.000,1941.000,1538.000,-1015.000,-1201.000,952.000,0.000,0.000,0
2026-01-31 00:14:59,1410694,8698.000,2152.000,1073.000,-518.000,-1178.000,114.000,0.000,0.000,0
2026-01-31 00:14:59,1410734,9314.000,2284.000,479.000,-264.000,-884.000,-404.000,0.000,0.000,0
2026-01-31 00:14:59,1410774,11267.000,2761.000,683.000,-350.000,-1287.000,-944.000,0.000,0.000,0
2026-01-31 00:15:00,1410814,11611.000,3259.000,1771.000,-2306.000,-1099.000,-1560.000,0.000,0.000,1
2026-01-31 00:15:00,1410854,10103.000,2488.000,1269.000,-5348.000,-153.000,-1898.000,0.000,0.000,1
2026-01-31 00:15:00,1410894,10530.000,1836.000,202.000,-6927.000,576.000,-2261.000,0.000,0.000,1
2026-01-31 00:15:00,1410934,10902.000,1539.000,-253.000,-7548.000,1854.000,-2635.000,0.000,0.000,0
2026-01-31 00:15:00,1410974,9184.000,1259.000,-69.000,-7271.000,2928.000,-3092.000,0.000,0.000,0
2026-01-31 00:15:00,1411014,7098.000,1188.000,133.000,-6358.000,3253.000,-3727.000,0.000,0.000,0
2026-01-31 00:15:00,1411054,6417.000,1197.000,-137.000,-5391.000,2944.000,-4188.000,0.000,0.000,0
2026-01-31 00:15:00,1411094,6428.000,1060.000,-426.000,-4763.000,3060.000,-4021.000,0.000,0.000,0
2026-01-31 00:15:00,1411134,6473.000,903.000,-1019.000,-3719.000,3328.000,-3585.000,0.000,0.000,0
2026-01-31 00:15:00,1411174,6098.000,752.000,-1538.000,-1958.000,3316.000,-3082.000,0.000,0.000,0
2026-01-31 00:15:00,1411214,6426.000,914.000,-1474.000,579.000,2491.000,-2157.000,0.000,0.000,0
2026-01-31 00:15:00,1411254,6989.000,1107.000,-1321.000,3301.000,1426.000,-636.000,0.000,0.000,0
2026-01-31 00:15:00,1411294,7408.000,1796.000,-560.000,5722.000,87.000,704.000,0.000,0.000,0
2026-01-31 00:15:00,1411334,8302.000,1523.000,560.000,5056.000,-1424.000,1789.000,0.000,0.000,0
2026-01-31 00:15:00,1411374,9945.000,1007.000,601.000,4041.000,-2593.000,2827.000,0.000,0.000,0
2026-01-31 00:15:00,1411414,11207.000,1813.000,705.000,4395.000,-2962.000,4432.000,0.000,0.000,0
2026-01-31 00:15:00,1411454,8744.000,1867.000,3082.000,4926.000,-2405.000,5279.000,0.000,0.000,0
2026-01-31 00:15:00,1411494,10256.000,3296.000,3794.000,4331.000,-2762.000,4574.000,0.000,0.000,0
2026-01-31 00:15:00,1411534,7630.000,1668.000,2833.000,-3.000,-950.000,3797.000,0.000,0.000,0
2026-01-31 00:15:00,1411574,6651.000,919.000,2683.000,347.000,-216.000,2245.000,0.000,0.000,0
2026-01-31 00:15:00,1411614,5623.000,1290.000,1960.000,2770.000,605.000,1353.000,0.000,0.000,0
2026-01-31 00:15:00,1411654,5205.000,1951.000,1253.000,4227.000,894.000,920.000,0.000,0.000,0
2026-01-31 00:15:00,1411694,5333.000,2258.000,896.000,3705.000,828.000,840.000,0.000,0.000,0
2026-01-31 00:15:00,1411734,5989.000,2598.000,659.000,2196.000,297.000,1225.000,0.000,0.000,0
2026-01-31 00:15:00,1411774,6904.000,2385.000,163.000,780.000,-246.000,1556.000,0.000,0.000,0
2026-01-31 00:15:01,1411814,7630.000,2207.000,376.000,616.000,-872.000,1306.000,0.000,0.000,1
2026-01-31 00:15:01,1411854,8540.000,2309.000,561.000,889.000,-1432.000,273.000,0.000,0.000,1
2026-01-31 00:15:01,1411894,9453.000,2833.000,188.000,832.000,-1436.000,-166.000,0.000,0.000,1
2026-01-31 00:15:01,1411934,10759.000,2617.000,614.000,-120.000,-1048.000,-192.000,0.000,0.000,0
2026-01-31 00:15:01,1411974,11101.000,2865.000,1076.000,-712.000,-961.000,-31.000,0.000,0.000,0
2026-01-31 00:15:01,1412014,9867.000,3534.000,1340.000,-2513.000,-788.000,-206.000,0.000,0.000,0
2026-01-31 00:15:01,1412054,11408.000,3127.000,140.000,-6685.000,-460.000,-757.000,0.000,0.000,0
2026-01-31 00:15:01,1412094,10356.000,2235.000,-412.000,-10106.000,905.000,-2034.000,0.000,0.000,0
2026-01-31 00:15:01,1412134,8359.000,733.000,-63.000,-11429.000,1706.000,-2970.000,0.000,0.000,0
2026-01-31 00:15:01,1412174,6642.000,433.000,144.000,-8754.000,2154.000,-5120.000,0.000,0.000,0
2026-01-31 00:15:01,1412214,6146.000,650.000,-21.000,-5633.000,2358.000,-6465.000,0.000,0.000,0
2026-01-31 00:15:01,1412254,6818.000,726.000,-221.000,-3450.000,2695.000,-6222.000,0.000,0.000,0
2026-01-31 00:15:01,1412294,6278.000,570.000,-577.000,-2501.000,3264.000,-5088.000,0.000,0.000,0
2026-01-31 00:15:01,1412334,6282.000,536.000,-559.000,-508.000,2737.000,-2956.000,0.000,0.000,0
2026-01-31 00:15:01,1412374,6733.000,732.000,-285.000,1319.000,1718.000,-758.000,0.000,0.000,0
2026-01-31 00:15:01,1412414,7152.000,1209.000,-283.000,2379.000,680.000,1625.000,0.000,0.000,0
2026-01-31 00:15:01,1412454,7598.000,1261.000,-3.000,2915.000,-453.000,3430.000,0.000,0.000,0
2026-01-31 00:15:01,1412494,9243.000,1022.000,80.000,2917.000,-1648.000,4909.000,0.000,0.000,0
2026-01-31 00:15:01,1412534,11318.000,1144.000,356.000,3796.000,-2227.000,6409.000,0.000,0.000,0
2026-01-31 00:15:01,1412574,10991.000,1662.000,288.000,5537.000,-1836.000,7468.000,0.000,0.000,0
2026-01-31 00:15:01,1412614,9418.000,2408.000,1864.000,6585.000,-2295.000,5482.000,0.000,0.000,0
2026-01-31 00:15:01,1412654,9040.000,2142.000,1469.000,3866.000,-1689.000,2839.000,0.000,0.000,0
2026-01-31 00:15:01,1412694,6967.000,1369.000,891.000,2053.000,-610.000,737.000,0.000,0.000,0
2026-01-31 00:15:01,1412734,5865.000,1208.000,1000.000,3753.000,-113.000,-15.000,0.000,0.000,0
2026-01-31 00:15:01,1412774,5023.000,1771.000,875.000,5210.000,163.000,-4.000,0.000,0.000,0
2026-01-31 00:15:02,1412814,4997.000,2216.000,531.000,4820.000,109.000,765.000,0.000,0.000,1
2026-01-31 00:15:02,1412854,5549.000,2552.000,1243.000,3045.000,-402.000,1825.000,0.000,0.000,1
2026-01-31 00:15:02,1412894,6301.000,2325.000,1189.000,896.000,-953.000,2614.000,0.000,0.000,1
2026-01-31 00:15:02,1412934,7269.000,2209.000,861.000,79.000,-1287.000,2457.000,0.000,0.000,0
2026-01-31 00:15:02,1412974,8331.000,2225.000,647.000,-7.000,-1251.000,1746.000,0.000,0.000,0
2026-01-31 00:15:02,1413014,9094.000,2430.000,355.000,684.000,-885.000,172.000,0.000,0.000,0
2026-01-31 00:15:02,1413054,11016.000,2829.000,421.000,391.000,-1233.000,-683.000,0.000,0.000,0
2026-01-31 00:15:02,1413094,11716.000,3005.000,295.000,-978.000,-929.000,-1045.000,0.000,0.000,0
2026-01-31 00:15:02,1413134,10565.000,3364.000,300.000,-2586.000,-175.000,-1324.000,0.000,0.000,0
2026-01-31 00:15:02,1413174,10851.000,3033.000,-195.000,-5493.000,38.000,-2048.000,0.000,0.000,0
2026-01-31 00:15:02,1413214,11338.000,2476.000,-669.000,-9365.000,1130.000,-2739.000,0.000,0.000,0
2026-01-31 00:15:02,1413254,9848.000,1145.000,-1047.000,-12274.000,2575.000,-3459.000,0.000,0.000,0
2026-01-31 00:15:02,1413294,7234.000,373.000,-508.000,-10424.000,3288.000,-4982.000,0.000,0.000,0
2026-01-31 00:15:02,1413334,6131.000,225.000,90.000,-5980.000,3128.000,-6220.000,0.000,0.000,0
2026-01-31 00:15:02,1413374,6532.000,698.000,-472.000,-2729.000,3527.000,-6957.000,0.000,0.000,0
2026-01-31 00:15:02,1413414,6270.000,668.000,-644.000,-1846.000,4176.000,-6191.000,0.000,0.000,0
2026-01-31 00:15:02,1413456,5963.000,501.000,-764.000,-828.000,3897.000,-4761.000,0.000,0.000,0
2026-01-31 00:15:02,1413495,5880.000,541.000,-528.000,699.000,2993.000,-2633.000,0.000,0.000,0
2026-01-31 00:15:02,1413534,6836.000,1179.000,-89.000,2108.000,1486.000,-85.000,0.000,0.000,0
2026-01-31 00:15:02,1413574,6983.000,1126.000,-93.000,2072.000,325.000,2227.000,0.000,0.000,0
2026-01-31 00:15:02,1413614,8198.000,930.000,-73.000,2280.000,-1194.000,4310.000,0.000,0.000,0
2026-01-31 00:15:02,1413654,11092.000,650.000,-67.000,3368.000,-2488.000,6900.000,0.000,0.000,0
2026-01-31 00:15:02,1413694,11842.000,1593.000,320.000,5919.000,-2820.000,9300.000,0.000,0.000,0
2026-01-31 00:15:02,1413736,9314.000,1910.000,1971.000,6739.000,-2891.000,9447.000,0.000,0.000,0
2026-01-31 00:15:02,1413774,10226.000,2112.000,1242.000,3895.000,-3094.000,5486.000,0.000,0.000,0
2026-01-31 00:15:03,1413814,7385.000,1698.000,530.000,1683.000,-1353.000,3183.000,0.000,0.000,1
2026-01-31 00:15:03,1413854,6125.000,1063.000,727.000,2855.000,-557.000,1594.000,0.000,0.000,1
2026-01-31 00:15:03,1413894,5680.000,1683.000,789.000,5311.000,-231.000,1505.000,0.000,0.000,1
2026-01-31 00:15:03,1413934,5516.000,2163.000,509.000,6270.000,-305.000,2156.000,0.000,0.000,0
2026-01-31 00:15:03,1413974,5666.000,2776.000,946.000,5527.000,-545.000,2903.000,0.000,0.000,0
2026-01-31 00:15:03,1414014,6405.000,3279.000,1186.000,3204.000,-1036.000,3765.000,0.000,0.000,0
2026-01-31 00:15:03,1414054,6933.000,3252.000,978.000,718.000,-1233.000,3715.000,0.000,0.000,0
2026-01-31 00:15:03,1414094,7704.000,3164.000,958.000,-996.000,-1391.000,2526.000,0.000,0.000,0
2026-01-31 00:15:03,1414134,9451.000,2950.000,-70.000,-1549.000,-1103.000,-120.000,0.000,0.000,0
2026-01-31 00:15:03,1414174,12458.000,3151.000,-399.000,-1096.000,-1076.000,-1809.000,0.000,0.000,0
2026-01-31 00:15:03,1414214,13189.000,3426.000,158.000,-2242.000,-529.000,-3036.000,0.000,0.000,0
2026-01-31 00:15:03,1414254,10923.000,3223.000,-333.000,-5207.000,206.000,-4145.000,0.000,0.000,0
2026-01-31 00:15:03,1414294,12531.000,2741.000,-906.000,-8532.000,436.000,-5302.000,0.000,0.000,0
2026-01-31 00:15:03,1414334,12156.000,1813.000,-1189.000,-11438.000,1974.000,-6438.000,0.000,0.000,0
2026-01-31 00:15:03,1414374,10049.000,1784.000,-1241.000,-13143.000,3554.000,-6797.000,0.000,0.000,0
2026-01-31 00:15:03,1414414,7316.000,-135.000,-1049.000,-12767.000,4767.000,-7425.000,0.000,0.000,0
2026-01-31 00:15:03,1414454,6294.000,273.000,-594.000,-8117.000,4210.000,-7408.000,0.000,0.000,0
2026-01-31 00:15:03,1414494,6612.000,408.000,-891.000,-5157.000,3983.000,-7029.000,0.000,0.000,0
2026-01-31 00:15:03,1414534,5878.000,473.000,-1038.000,-2202.000,4119.000,-5048.000,0.000,0.000,0
2026-01-31 00:15:03,1414574,5682.000,493.000,-979.000,-308.000,3390.000,-3541.000,0.000,0.000,0
2026-01-31 00:15:03,1414614,6089.000,857.000,-780.000,1065.000,2304.000,-1460.000,0.000,0.000,0
2026-01-31 00:15:03,1414654,6763.000,1183.000,-555.000,1587.000,1167.000,938.000,0.000,0.000,0
2026-01-31 00:15:03,1414694,7095.000,1044.000,221.000,1689.000,-232.000,2815.000,0.000,0.000,0
2026-01-31 00:15:03,1414734,9064.000,543.000,254.000,2120.000,-2107.000,4897.000,0.000,0.000,0
2026-01-31 00:15:03,1414774,11177.000,774.000,718.000,4137.000,-3382.000,7486.000,0.000,0.000,0
2026-01-31 00:15:04,1414814,10035.000,1146.000,1291.000,5745.000,-3533.000,9198.000,0.000,0.000,1
2026-01-31 00:15:04,1414854,11416.000,1184.000,789.000,7368.000,-4093.000,9088.000,0.000,0.000,1
2026-01-31 00:15:04,1414894,9157.000,1925.000,1329.000,6470.000,-2318.000,6021.000,0.000,0.000,1
2026-01-31 00:15:04,1414934,7147.000,1814.000,942.000,5719.000,-1708.000,4438.000,0.000,0.000,0
2026-01-31 00:15:04,1414974,6273.000,1570.000,825.000,5701.000,-1206.000,3908.000,0.000,0.000,0
2026-01-31 00:15:04,1415014,5991.000,2241.000,585.000,6869.000,-894.000,4010.000,0.000,0.000,0
2026-01-31 00:15:04,1415054,5949.000,2686.000,954.000,6840.000,-723.000,4558.000,0.000,0.000,0
2026-01-31 00:15:04,1415094,6053.000,3612.000,1417.000,5242.000,-778.000,5198.000,0.000,0.000,0
2026-01-31 00:15:04,1415134,7213.000,3945.000,892.000,3121.000,-1064.000,5520.000,0.000,0.000,0
2026-01-31 00:15:04,1415174,9001.000,4919.000,909.000,1006.000,-1143.000,4608.000,0.000,0.000,0
2026-01-31 00:15:04,1415214,8356.000,4751.000,1450.000,-1943.000,-780.000,2248.000,0.000,0.000,0
2026-01-31 00:15:04,1415254,9406.000,3213.000,718.000,-3141.000,-1292.000,-659.000,0.000,0.000,0
2026-01-31 00:15:04,1415294,12233.000,3332.000,175.000,-2694.000,-435.000,-3900.000,0.000,0.000,0
2026-01-31 00:15:04,1415334,12318.000,3452.000,279.000,-3693.000,278.000,-5373.000,0.000,0.000,0
2026-01-31 00:15:04,1415374,12043.000,3114.000,-222.000,-7198.000,906.000,-6648.000,0.000,0.000,0
2026-01-31 00:15:04,1415416,12758.000,2843.000,-1298.000,-11475.000,2099.000,-6985.000,0.000,0.000,0
2026-01-31 00:15:04,1415456,11945.000,1073.000,-1817.000,-14553.000,3877.000,-7171.000,0.000,0.000,0
2026-01-31 00:15:04,1415494,8418.000,-442.000,-1015.000,-12706.000,5023.000,-7272.000,0.000,0.000,0
2026-01-31 00:15:04,1415534,7860.000,290.000,-1260.000,-8561.000,4568.000,-9067.000,0.000,0.000,0
2026-01-31 00:15:04,1415574,7892.000,598.000,-1440.000,-5453.000,4702.000,-9673.000,0.000,0.000,0
2026-01-31 00:15:04,1415614,7585.000,598.000,-1231.000,-4331.000,5039.000,-9395.000,0.000,0.000,0
2026-01-31 00:15:04,1415654,6286.000,10.000,-1382.000,-3577.000,4719.000,-7517.000,0.000,0.000,0
2026-01-31 00:15:04,1415694,5186.000,43.000,-790.000,48.000,3992.000,-5280.000,0.000,0.000,0
2026-01-31 00:15:04,1415736,5037.000,833.000,-79.000,2069.000,2388.000,-1942.000,0.000,0.000,0
2026-01-31 00:15:04,1415774,4768.000,883.000,742.000,1889.000,679.000,1278.000,0.000,0.000,0
2026-01-31 00:15:05,1415814,6751.000,807.000,942.000,1457.000,-1622.000,5025.000,0.000,0.000,1
2026-01-31 00:15:05,1415854,10291.000,1408.000,218.000,3757.000,-3560.000,9125.000,0.000,0.000,1
2026-01-31 00:15:05,1415894,11580.000,2324.000,1400.000,7170.000,-4114.000,11508.000,0.000,0.000,1
2026-01-31 00:15:05,1415934,12780.000,2049.000,1383.000,8408.000,-4424.000,11577.000,0.000,0.000,0
2026-01-31 00:15:05,1415974,12134.000,2887.000,679.000,9082.000,-3382.000,9379.000,0.000,0.000,0
2026-01-31 00:15:05,1416014,9052.000,2829.000,1028.000,8095.000,-1771.000,7231.000,0.000,0.000,0
2026-01-31 00:15:05,1416054,6584.000,2556.000,496.000,8886.000,-736.000,4719.000,0.000,0.000,0
2026-01-31 00:15:05,1416094,5749.000,2842.000,-127.000,9557.000,-121.000,4503.000,0.000,0.000,0
2026-01-31 00:15:05,1416134,5731.000,3693.000,150.000,8522.000,89.000,4776.000,0.000,0.000,0
2026-01-31 00:15:05,1416174,6119.000,3627.000,416.000,5908.000,72.000,5508.000,0.000,0.000,0
2026-01-31 00:15:05,1416214,6848.000,3966.000,58.000,4336.000,-295.000,5842.000,0.000,0.000,0
2026-01-31 00:15:05,1416254,8046.000,4775.000,349.000,3559.000,-711.000,5232.000,0.000,0.000,0
2026-01-31 00:15:05,1416294,8178.000,5688.000,724.000,1771.000,-934.000,3178.000,0.000,0.000,0
2026-01-31 00:15:05,1416334,8860.000,4782.000,575.000,-1086.000,-1500.000,87.000,0.000,0.000,0
2026-01-31 00:15:05,1416374,12080.000,5073.000,660.000,-2779.000,-2061.000,-2336.000,0.000,0.000,0
2026-01-31 00:15:05,1416414,12685.000,4542.000,-328.000,-6035.000,-675.000,-4637.000,0.000,0.000,0
2026-01-31 00:15:05,1416454,13129.000,4076.000,-327.000,-9592.000,8.000,-6233.000,0.000,0.000,0
2026-01-31 00:15:05,1416494,14391.000,3317.000,-1365.000,-15121.000,1649.000,-7293.000,0.000,0.000,0
2026-01-31 00:15:05,1416534,13152.000,1324.000,-2580.000,-18990.000,3600.000,-9485.000,0.000,0.000,0
2026-01-31 00:15:05,1416574,10048.000,312.000,-997.000,-13726.000,5342.000,-9194.000,0.000,0.000,0
2026-01-31 00:15:05,1416614,8711.000,-417.000,-1340.000,-10509.000,5587.000,-10824.000,0.000,0.000,0
2026-01-31 00:15:05,1416654,7853.000,363.000,-1205.000,-5607.000,5763.000,-10781.000,0.000,0.000,0
2026-01-31 00:15:05,1416694,6841.000,418.000,-760.000,-3683.000,5977.000,-10100.000,0.000,0.000,0
2026-01-31 00:15:05,1416734,6121.000,447.000,-787.000,-2906.000,5497.000,-8342.000,0.000,0.000,0
2026-01-31 00:15:05,1416774,5086.000,-239.000,-1041.000,-1395.000,5151.000,-6127.000,0.000,0.000,0
2026-01-31 00:15:06,1416814,4510.000,311.000,120.000,1810.000,3072.000,-2078.000,0.000,0.000,1
2026-01-31 00:15:06,1416854,4241.000,756.000,1051.000,1765.000,1171.000,1344.000,0.000,0.000,1
2026-01-31 00:15:06,1416894,5078.000,783.000,1777.000,738.000,-1564.000,5375.000,0.000,0.000,1
2026-01-31 00:15:06,1416934,8476.000,1802.000,2221.000,2177.000,-4535.000,9677.000,0.000,0.000,0
2026-01-31 00:15:06,1416974,12600.000,2058.000,1100.000,5220.000,-6137.000,13212.000,0.000,0.000,0
2026-01-31 00:15:06,1417014,11892.000,2547.000,598.000,8471.000,-4558.000,12892.000,0.000,0.000,0
2026-01-31 00:15:06,1417054,12783.000,2964.000,569.000,11416.000,-3655.000,11430.000,0.000,0.000,0
2026-01-31 00:15:06,1417094,11391.000,3799.000,393.000,12314.000,-1954.000,9120.000,0.000,0.000,0
2026-01-31 00:15:06,1417134,8442.000,3526.000,337.000,10593.000,-659.000,7381.000,0.000,0.000,0
2026-01-31 00:15:06,1417174,6580.000,3124.000,228.000,9381.000,-480.000,5515.000,0.000,0.000,0
2026-01-31 00:15:06,1417214,6762.000,3596.000,-108.000,8269.000,-312.000,5373.000,0.000,0.000,0
2026-01-31 00:15:06,1417254,6810.000,3674.000,147.000,6953.000,-51.000,5601.000,0.000,0.000,0
2026-01-31 00:15:06,1417294,6769.000,4142.000,594.000,6152.000,-37.000,5879.000,0.000,0.000,0
2026-01-31 00:15:06,1417334,6814.000,5066.000,614.000,5170.000,-268.000,5690.000,0.000,0.000,0
2026-01-31 00:15:06,1417374,7956.000,6192.000,860.000,2340.000,-679.000,4832.000,0.000,0.000,0
2026-01-31 00:15:06,1417414,7566.000,5707.000,442.000,-1540.000,-644.000,2333.000,0.000,0.000,0
2026-01-31 00:15:06,1417454,10229.000,4906.000,14.000,-3042.000,-1686.000,-641.000,0.000,0.000,0
2026-01-31 00:15:06,1417494,12043.000,4946.000,271.000,-4653.000,-1565.000,-2980.000,0.000,0.000,0
2026-01-31 00:15:06,1417534,13360.000,4675.000,-277.000,-6930.000,-1161.000,-4823.000,0.000,0.000,0
2026-01-31 00:15:06,1417574,14608.000,3063.000,-1419.000,-12130.000,211.000,-8155.000,0.000,0.000,0
2026-01-31 00:15:06,1417614,14497.000,2371.000,-2130.000,-14743.000,2603.000,-9492.000,0.000,0.000,0
2026-01-31 00:15:06,1417654,12362.000,654.000,-1996.000,-16050.000,4542.000,-10441.000,0.000,0.000,0
2026-01-31 00:15:06,1417694,8959.000,935.000,-631.000,-11806.000,5453.000,-9821.000,0.000,0.000,0
2026-01-31 00:15:06,1417736,8396.000,-159.000,-1519.000,-9582.000,4800.000,-10247.000,0.000,0.000,0
2026-01-31 00:15:06,1417774,7570.000,318.000,-1347.000,-6441.000,5022.000,-9825.000,0.000,0.000,0
2026-01-31 00:15:07,1417814,6696.000,435.000,-1032.000,-4658.000,5089.000,-8970.000,0.000,0.000,1
2026-01-31 00:15:07,1417854,6063.000,-67.000,-1209.000,-3616.000,4926.000,-7255.000,0.000,0.000,1
2026-01-31 00:15:07,1417894,5245.000,-129.000,-1076.000,-916.000,4580.000,-5128.000,0.000,0.000,1
2026-01-31 00:15:07,1417934,4940.000,431.000,-314.000,1733.000,3378.000,-2528.000,0.000,0.000,0
2026-01-31 00:15:07,1417974,4514.000,499.000,797.000,2690.000,951.000,1426.000,0.000,0.000,0
2026-01-31 00:15:07,1418014,6337.000,936.000,849.000,2666.000,-1844.000,5370.000,0.000,0.000,0
2026-01-31 00:15:07,1418054,9177.000,2409.000,2093.000,5284.000,-4428.000,10105.000,0.000,0.000,0
2026-01-31 00:15:07,1418094,10829.000,3023.000,3149.000,7202.000,-6278.000,13109.000,0.000,0.000,0
2026-01-31 00:15:07,1418134,12420.000,3033.000,1603.000,6788.000,-5345.000,12896.000,0.000,0.000,0
2026-01-31 00:15:07,1418174,12607.000,3698.000,543.000,7716.000,-3117.000,11456.000,0.000,0.000,0
2026-01-31 00:15:07,1418214,10592.000,3253.000,592.000,9877.000,-932.000,9832.000,0.000,0.000,0
2026-01-31 00:15:07,1418254,7301.000,2741.000,969.000,10850.000,-24.000,7009.000,0.000,0.000,0
2026-01-31 00:15:07,1418294,6635.000,3547.000,537.000,10748.000,-623.000,4668.000,0.000,0.000,0
2026-01-31 00:15:07,1418334,6462.000,3770.000,111.000,9832.000,-640.000,4354.000,0.000,0.000,0
2026-01-31 00:15:07,1418374,6072.000,3663.000,217.000,4202.000,-376.000,5021.000,0.000,0.000,0
2026-01-31 00:15:07,1418414,6756.000,3858.000,610.000,3000.000,-695.000,5541.000,0.000,0.000,0
2026-01-31 00:15:07,1418454,6951.000,4433.000,785.000,1920.000,-993.000,5250.000,0.000,0.000,0
2026-01-31 00:15:07,1418494,7924.000,5648.000,1233.000,-294.000,-1525.000,4496.000,0.000,0.000,0
2026-01-31 00:15:07,1418534,8591.000,3863.000,419.000,-4206.000,-1653.000,2326.000,0.000,0.000,0
2026-01-31 00:15:07,1418574,11513.000,4589.000,821.000,-5121.000,-1916.000,-398.000,0.000,0.000,0
2026-01-31 00:15:07,1418614,13815.000,4793.000,544.000,-7156.000,-1298.000,-2151.000,0.000,0.000,0
2026-01-31 00:15:07,1418654,12155.000,3992.000,-422.000,-9587.000,709.000,-3648.000,0.000,0.000,0
2026-01-31 00:15:07,1418694,14539.000,2194.000,-1515.000,-12662.000,1800.000,-5357.000,0.000,0.000,0
2026-01-31 00:15:07,1418734,14175.000,1252.000,-2288.000,-16117.000,5153.000,-8033.000,0.000,0.000,0
2026-01-31 00:15:07,1418774,10263.000,498.000,-1011.000,-12987.000,6803.000,-7970.000,0.000,0.000,0
2026-01-31 00:15:08,1418814,9076.000,379.000,-1439.000,-12565.000,6765.000,-9681.000,0.000,0.000,1
2026-01-31 00:15:08,1418854,8179.000,722.000,-1786.000,-9880.000,6986.000,-9669.000,0.000,0.000,1
2026-01-31 00:15:08,1418894,7448.000,421.000,-1841.000,-8128.000,7212.000,-8824.000,0.000,0.000,1
2026-01-31 00:15:08,1418934,6280.000,320.000,-1656.000,-4920.000,7018.000,-7197.000,0.000,0.000,0
2026-01-31 00:15:08,1418974,5358.000,-250.000,-1777.000,-1574.000,6482.000,-5795.000,0.000,0.000,0
2026-01-31 00:15:08,1419014,5236.000,117.000,-1539.000,2542.000,5127.000,-3949.000,0.000,0.000,0
2026-01-31 00:15:08,1419054,5605.000,635.000,-906.000,5439.000,3604.000,-1863.000,0.000,0.000,0
2026-01-31 00:15:08,1419094,5985.000,1087.000,-16.000,5277.000,-205.000,1453.000,0.000,0.000,0
2026-01-31 00:15:08,1419134,7804.000,1563.000,847.000,3612.000,-4025.000,5520.000,0.000,0.000,0
2026-01-31 00:15:08,1419174,8965.000,1655.000,2368.000,409.000,-7468.000,11213.000,0.000,0.000,0
2026-01-31 00:15:08,1419214,11431.000,51.000,1109.000,27.000,-10710.000,14845.000,0.000,0.000,0
2026-01-31 00:15:08,1419254,15088.000,-330.000,1275.000,2310.000,-12332.000,15191.000,0.000,0.000,0
2026-01-31 00:15:08,1419294,13704.000,626.000,2090.000,4340.000,-9981.000,12360.000,0.000,0.000,0
2026-01-31 00:15:08,1419334,8743.000,-259.000,177.000,4174.000,-5780.000,8965.000,0.000,0.000,0
2026-01-31 00:15:08,1419374,7999.000,173.000,-411.000,6807.000,-4759.000,5767.000,0.000,0.000,0
2026-01-31 00:15:08,1419414,8140.000,1026.000,-212.000,9132.000,-3277.000,3487.000,0.000,0.000,0
2026-01-31 00:15:08,1419454,7629.000,3164.000,980.000,11370.000,-2119.000,2587.000,0.000,0.000,0
2026-01-31 00:15:08,1419494,6562.000,4191.000,1749.000,10137.000,-1194.000,2962.000,0.000,0.000,0
2026-01-31 00:15:08,1419534,7031.000,5129.000,2033.000,5549.000,-1807.000,4176.000,0.000,0.000,0
2026-01-31 00:15:08,1419574,8458.000,5810.000,1628.000,-1407.000,-2054.000,4103.000,0.000,0.000,0
2026-01-31 00:15:08,1419614,8923.000,4587.000,727.000,-6940.000,-1637.000,2310.000,0.000,0.000,0
2026-01-31 00:15:08,1419654,10535.000,1199.000,-111.000,-8922.000,-1195.000,-372.000,0.000,0.000,0
2026-01-31 00:15:08,1419694,13072.000,1045.000,-71.000,-5999.000,306.000,-3474.000,0.000,0.000,0
2026-01-31 00:15:08,1419737,13092.000,1560.000,-283.000,-3000.000,2839.000,-6070.000,0.000,0.000,0
2026-01-31 00:15:08,1419775,13546.000,1646.000,-813.000,-2465.000,3921.000,-8361.000,0.000,0.000,0
2026-01-31 00:15:09,1419814,14513.000,1555.000,-1050.000,-5511.000,5151.000,-10037.000,0.000,0.000,1
2026-01-31 00:15:09,1419854,12207.000,526.000,-1164.000,-12187.000,7719.000,-10384.000,0.000,0.000,1
2026-01-31 00:15:09,1419894,8823.000,220.000,-549.000,-11176.000,7880.000,-10107.000,0.000,0.000,1
2026-01-31 00:15:09,1419934,8052.000,303.000,-853.000,-8528.000,6745.000,-9180.000,0.000,0.000,0
2026-01-31 00:15:09,1419974,6830.000,-318.000,-1615.000,-5320.000,6128.000,-9057.000,0.000,0.000,0
2026-01-31 00:15:09,1420014,5883.000,139.000,-1520.000,-4376.000,5585.000,-8651.000,0.000,0.000,0
2026-01-31 00:15:09,1420054,5387.000,-54.000,-1662.000,-4249.000,5359.000,-6893.000,0.000,0.000,0
2026-01-31 00:15:09,1420094,5349.000,-81.000,-1256.000,-2895.000,5047.000,-4313.000,0.000,0.000,0
2026-01-31 00:15:09,1420134,5595.000,100.000,-944.000,140.000,3938.000,-1467.000,0.000,0.000,0
2026-01-31 00:15:09,1420174,5238.000,596.000,-211.000,3639.000,2201.000,1349.000,0.000,0.000,0
2026-01-31 00:15:09,1420214,6265.000,354.000,1113.000,5121.000,-821.000,4296.000,0.000,0.000,0
2026-01-31 00:15:09,1420254,10540.000,1218.000,2095.000,4816.000,-6044.000,10366.000,0.000,0.000,0
2026-01-31 00:15:09,1420294,12127.000,941.000,1097.000,3610.000,-8488.000,14400.000,0.000,0.000,0
2026-01-31 00:15:09,1420334,15231.000,529.000,928.000,5578.000,-10401.000,15964.000,0.000,0.000,0
2026-01-31 00:15:09,1420374,13929.000,655.000,1698.000,5828.000,-8842.000,13461.000,0.000,0.000,0
2026-01-31 00:15:09,1420414,9198.000,88.000,450.000,4097.000,-5609.000,9977.000,0.000,0.000,0
2026-01-31 00:15:09,1420454,7513.000,-259.000,-364.000,4670.000,-4329.000,6762.000,0.000,0.000,0
2026-01-31 00:15:09,1420494,7520.000,509.000,-352.000,7676.000,-3095.000,4242.000,0.000,0.000,0
2026-01-31 00:15:09,1420534,7621.000,1872.000,188.000,10990.000,-2334.000,3328.000,0.000,0.000,0
2026-01-31 00:15:09,1420574,7278.000,4374.000,855.000,10886.000,-1343.000,3573.000,0.000,0.000,0
2026-01-31 00:15:09,1420614,6960.000,5293.000,2335.000,1839.000,-1622.000,5599.000,0.000,0.000,0
2026-01-31 00:15:09,1420654,8128.000,5011.000,2235.000,-2376.000,-2747.000,5415.000,0.000,0.000,0
2026-01-31 00:15:09,1420694,8761.000,4306.000,1835.000,-5170.000,-2737.000,3044.000,0.000,0.000,0
2026-01-31 00:15:09,1420734,8938.000,2052.000,541.000,-6191.000,-1755.000,-139.000,0.000,0.000,0
2026-01-31 00:15:09,1420774,11839.000,1195.000,50.000,-4947.000,-1088.000,-3218.000,0.000,0.000,0
2026-01-31 00:15:10,1420814,13409.000,2094.000,-144.000,-3030.000,1422.000,-5588.000,0.000,0.000,1
2026-01-31 00:15:10,1420854,12984.000,2260.000,-202.000,-3941.000,4603.000,-7254.000,0.000,0.000,1
2026-01-31 00:15:10,1420894,15498.000,1862.000,-1191.000,-7571.000,5759.000,-8742.000,0.000,0.000,1
2026-01-31 00:15:10,1420934,15723.000,845.000,-1505.000,-11755.000,8271.000,-9683.000,0.000,0.000,0
2026-01-31 00:15:10,1420974,13566.000,381.000,-1303.000,-13562.000,9421.000,-9598.000,0.000,0.000,0
2026-01-31 00:15:10,1421014,9338.000,477.000,-1610.000,-11234.000,9452.000,-9302.000,0.000,0.000,0
2026-01-31 00:15:10,1421054,8526.000,-72.000,-2075.000,-9326.000,9094.000,-9210.000,0.000,0.000,0
2026-01-31 00:15:10,1421094,7861.000,-470.000,-1251.000,-7765.000,8992.000,-8341.000,0.000,0.000,0
2026-01-31 00:15:10,1421134,7031.000,-67.000,-979.000,-5248.000,8896.000,-7087.000,0.000,0.000,0
2026-01-31 00:15:10,1421174,5689.000,-5.000,-989.000,-2145.000,8258.000,-4997.000,0.000,0.000,0
2026-01-31 00:15:10,1421214,4687.000,-377.000,-569.000,36.000,6631.000,-3591.000,0.000,0.000,0
2026-01-31 00:15:10,1421254,4199.000,-509.000,-53.000,1061.000,4386.000,-1549.000,0.000,0.000,0
2026-01-31 00:15:10,1421294,3397.000,-341.000,673.000,2186.000,1294.000,513.000,0.000,0.000,0
2026-01-31 00:15:10,1421334,4640.000,-359.000,1387.000,3066.000,-2802.000,3966.000,0.000,0.000,0
2026-01-31 00:15:10,1421374,11178.000,1499.000,1925.000,4748.000,-9273.000,11178.000,0.000,0.000,0
2026-01-31 00:15:10,1421414,12978.000,2828.000,2205.000,4456.000,-10456.000,13070.000,0.000,0.000,0
2026-01-31 00:15:10,1421454,13880.000,1343.000,1094.000,7437.000,-11030.000,12284.000,0.000,0.000,0
2026-01-31 00:15:10,1421494,13067.000,3066.000,1405.000,11009.000,-9603.000,10029.000,0.000,0.000,0
2026-01-31 00:15:10,1421534,10284.000,2949.000,1298.000,9472.000,-7494.000,8464.000,0.000,0.000,0
2026-01-31 00:15:10,1421574,7991.000,2091.000,654.000,8461.000,-5724.000,6723.000,0.000,0.000,0
2026-01-31 00:15:10,1421614,7819.000,2730.000,597.000,10380.000,-4934.000,6120.000,0.000,0.000,0
2026-01-31 00:15:10,1421654,7846.000,3197.000,691.000,10502.000,-3849.000,5454.000,0.000,0.000,0
2026-01-31 00:15:10,1421694,7357.000,3888.000,1319.000,8895.000,-2962.000,5246.000,0.000,0.000,0
2026-01-31 00:15:10,1421737,7667.000,4281.000,1505.000,6268.000,-2711.000,5082.000,0.000,0.000,0
2026-01-31 00:15:10,1421774,8163.000,4588.000,1876.000,1736.000,-2321.000,3828.000,0.000,0.000,0
2026-01-31 00:15:11,1421814,8838.000,4625.000,1967.000,-1029.000,-2030.000,1738.000,0.000,0.000,1
2026-01-31 00:15:11,1421854,10286.000,4156.000,1320.000,-2291.000,-1433.000,-1176.000,0.000,0.000,1
2026-01-31 00:15:11,1421894,11950.000,3717.000,1355.000,-3909.000,-570.000,-2928.000,0.000,0.000,1
2026-01-31 00:15:11,1421934,14088.000,4033.000,235.000,-5718.000,521.000,-4273.000,0.000,0.000,0
2026-01-31 00:15:11,1421974,12570.000,2599.000,-373.000,-8611.000,2914.000,-5758.000,0.000,0.000,0
2026-01-31 00:15:11,1422014,14191.000,1966.000,-1433.000,-10955.000,4143.000,-7314.000,0.000,0.000,0
2026-01-31 00:15:11,1422054,14677.000,1078.000,-2205.000,-12759.000,6570.000,-8168.000,0.000,0.000,0
2026-01-31 00:15:11,1422094,11699.000,832.000,-1679.000,-12092.000,8476.000,-8445.000,0.000,0.000,0
2026-01-31 00:15:11,1422134,8785.000,461.000,-1587.000,-10876.000,8488.000,-8319.000,0.000,0.000,0
2026-01-31 00:15:11,1422174,8370.000,950.000,-1582.000,-7278.000,7733.000,-8869.000,0.000,0.000,0
2026-01-31 00:15:11,1422214,7781.000,919.000,-1755.000,-6945.000,7509.000,-8145.000,0.000,0.000,0
2026-01-31 00:15:11,1422254,6661.000,452.000,-1794.000,-5775.000,7448.000,-6683.000,0.000,0.000,0
2026-01-31 00:15:11,1422294,5649.000,40.000,-1697.000,-2956.000,6793.000,-4903.000,0.000,0.000,0
2026-01-31 00:15:11,1422334,5158.000,100.000,-1242.000,-130.000,5323.000,-2959.000,0.000,0.000,0
2026-01-31 00:15:11,1422374,4564.000,348.000,-866.000,1661.000,3337.000,-1068.000,0.000,0.000,0
2026-01-31 00:15:11,1422414,4476.000,241.000,381.000,2076.000,488.000,987.000,0.000,0.000,0
2026-01-31 00:15:11,1422454,6145.000,50.000,823.000,2415.000,-3395.000,3897.000,0.000,0.000,0
2026-01-31 00:15:11,1422494,9321.000,-645.000,812.000,3844.000,-7295.000,7976.000,0.000,0.000,0
2026-01-31 00:15:11,1422534,13547.000,1987.000,2047.000,4755.000,-9401.000,11176.000,0.000,0.000,0
2026-01-31 00:15:11,1422574,14085.000,1986.000,2708.000,8210.000,-9704.000,11363.000,0.000,0.000,0
2026-01-31 00:15:11,1422614,11494.000,2603.000,1488.000,7746.000,-8141.000,10436.000,0.000,0.000,0
2026-01-31 00:15:11,1422654,8881.000,1740.000,723.000,5282.000,-5614.000,7960.000,0.000,0.000,0
2026-01-31 00:15:11,1422694,8040.000,1775.000,316.000,7534.000,-4628.000,6343.000,0.000,0.000,0
2026-01-31 00:15:11,1422734,8026.000,2258.000,579.000,9820.000,-4078.000,5906.000,0.000,0.000,0
2026-01-31 00:15:11,1422774,7813.000,3063.000,823.000,9617.000,-3413.000,5947.000,0.000,0.000,0
2026-01-31 00:15:12,1422814,7717.000,4076.000,1597.000,9358.000,-2777.000,6288.000,1.055,0.000,1
2026-01-31 00:15:12,1422854,7176.000,4976.000,2248.000,6650.000,-2052.000,6001.000,1.055,0.000,1
2026-01-31 00:15:12,1422894,6905.000,5463.000,2746.000,3178.000,-2042.000,2121.000,1.055,0.000,1
2026-01-31 00:15:12,1422934,8998.000,5007.000,1784.000,-878.000,-1453.000,-652.000,0.000,0.000,0
2026-01-31 00:15:12,1422974,13145.000,4824.000,868.000,-2160.000,-782.000,-2241.000,0.000,0.000,0
2026-01-31 00:15:12,1423014,13521.000,4880.000,837.000,-4386.000,477.000,-4469.000,0.000,0.000,0
2026-01-31 00:15:12,1423054,14031.000,3965.000,-255.000,-7925.000,1808.000,-7126.000,0.000,0.000,0
2026-01-31 00:15:12,1423094,14939.000,2883.000,-824.000,-10472.000,3463.000,-9621.000,0.000,0.000,0
2026-01-31 00:15:12,1423134,15976.000,1711.000,-1999.000,-11969.000,5450.000,-11301.000,0.000,0.000,0
2026-01-31 00:15:12,1423174,13668.000,1090.000,-1956.000,-11823.000,7195.000,-11821.000,0.000,0.000,0
2026-01-31 00:15:12,1423214,10489.000,1177.000,-1558.000,-10392.000,7737.000,-11607.000,0.000,0.000,0
2026-01-31 00:15:12,1423254,8994.000,353.000,-1817.000,-9790.000,7638.000,-11104.000,0.000,0.000,0
2026-01-31 00:15:12,1423294,7093.000,-9.000,-1317.000,-6296.000,7198.000,-10442.000,0.000,0.000,0
2026-01-31 00:15:12,1423334,6017.000,375.000,-1859.000,-3084.000,6362.000,-9007.000,0.000,0.000,0
2026-01-31 00:15:12,1423374,5032.000,285.000,-1561.000,-629.000,6101.000,-6542.000,0.000,0.000,0
2026-01-31 00:15:12,1423414,4509.000,694.000,-1290.000,217.000,4664.000,-3596.000,0.000,0.000,0
2026-01-31 00:15:12,1423454,4509.000,528.000,-473.000,1559.000,2643.000,258.000,0.000,0.000,0
2026-01-31 00:15:12,1423494,3946.000,691.000,461.000,2140.000,132.000,3251.000,0.000,0.000,0
2026-01-31 00:15:12,1423534,5826.000,208.000,862.000,2868.000,-3647.000,6370.000,0.000,0.000,0
2026-01-31 00:15:12,1423574,9713.000,-1755.000,-192.000,9120.000,-7084.000,10457.000,0.000,0.000,0
2026-01-31 00:15:12,1423614,14803.000,1321.000,-1116.000,17800.000,-7555.000,14942.000,0.000,0.000,0
2026-01-31 00:15:12,1423654,18957.000,5847.000,1175.000,17837.000,-4960.000,18265.000,0.000,0.000,0
2026-01-31 00:15:12,1423694,12187.000,4967.000,-263.000,7623.000,736.000,16278.000,0.000,0.000,0
2026-01-31 00:15:12,1423736,7138.000,3277.000,1255.000,5683.000,449.000,9839.000,0.000,0.000,0
2026-01-31 00:15:12,1423774,7706.000,2811.000,315.000,6620.000,-1235.000,4466.000,0.000,0.000,0
2026-01-31 00:15:13,1423814,7511.000,3154.000,103.000,6959.000,-443.000,3283.000,1.003,0.000,1
2026-01-31 00:15:13,1423854,6710.000,2764.000,-130.000,6327.000,780.000,4006.000,1.003,0.000,1
2026-01-31 00:15:13,1423894,6439.000,4023.000,375.000,5955.000,1351.000,5270.000,1.003,0.000,1
2026-01-31 00:15:13,1423934,7350.000,4248.000,122.000,5955.000,1332.000,6783.000,0.000,0.000,0
2026-01-31 00:15:13,1423974,6832.000,8636.000,-1066.000,6851.000,1795.000,4860.000,0.000,0.000,0
2026-01-31 00:15:13,1424014,6266.000,5994.000,-129.000,1535.000,-328.000,22.000,0.000,0.000,0
2026-01-31 00:15:13,1424054,7680.000,5350.000,-236.000,-1284.000,-2923.000,-4002.000,0.000,0.000,0
2026-01-31 00:15:13,1424094,11078.000,5799.000,-703.000,-4497.000,-3823.000,-4017.000,0.000,0.000,0
2026-01-31 00:15:13,1424134,13566.000,5276.000,-1238.000,-10741.000,-3112.000,-4689.000,0.000,0.000,0
2026-01-31 00:15:13,1424174,13838.000,4125.000,-1397.000,-16081.000,-1877.000,-6202.000,0.000,0.000,0
2026-01-31 00:15:13,1424214,15879.000,2690.000,-2745.000,-19397.000,-733.000,-8360.000,0.000,0.000,0
2026-01-31 00:15:13,1424254,16981.000,971.000,-3573.000,-19018.000,2082.000,-10134.000,0.000,0.000,0
2026-01-31 00:15:13,1424294,13469.000,780.000,-2523.000,-15546.000,4412.000,-10959.000,0.000,0.000,0
2026-01-31 00:15:13,1424334,10121.000,748.000,-1680.000,-11752.000,5376.000,-11274.000,0.000,0.000,0
2026-01-31 00:15:13,1424374,8191.000,568.000,-1416.000,-8034.000,5153.000,-11865.000,0.000,0.000,0
2026-01-31 00:15:13,1424414,7095.000,309.000,-1448.000,-5792.000,5093.000,-11637.000,0.000,0.000,0
2026-01-31 00:15:13,1424454,5493.000,261.000,-1159.000,-3297.000,5399.000,-10046.000,0.000,0.000,0
2026-01-31 00:15:13,1424494,4603.000,-549.000,-1059.000,-2270.000,4902.000,-7429.000,0.000,0.000,0
2026-01-31 00:15:13,1424534,3895.000,-788.000,-862.000,142.000,4134.000,-4493.000,0.000,0.000,0
2026-01-31 00:15:13,1424574,3268.000,-30.000,-10.000,1804.000,2712.000,-769.000,0.000,0.000,0
2026-01-31 00:15:13,1424614,3956.000,328.000,1420.000,1862.000,481.000,3784.000,0.000,0.000,0
2026-01-31 00:15:13,1424654,6930.000,-247.000,336.000,3634.000,-3202.000,10109.000,0.000,0.000,0
2026-01-31 00:15:13,1424694,12217.000,-64.000,-50.000,12531.000,-6471.000,15485.000,0.000,0.000,0
2026-01-31 00:15:13,1424734,16532.000,3479.000,1780.000,19334.000,-5614.000,16238.000,0.000,0.000,0
2026-01-31 00:15:13,1424774,18319.000,6970.000,-1598.000,17639.000,-1398.000,14551.000,0.000,0.000,0
2026-01-31 00:15:14,1424814,7906.000,4539.000,1117.000,3147.000,5316.000,13100.000,1.116,0.000,1
2026-01-31 00:15:14,1424854,8011.000,3491.000,192.000,4961.000,1789.000,9567.000,1.116,0.000,1
2026-01-31 00:15:14,1424894,6975.000,3212.000,11.000,5779.000,975.000,7616.000,1.116,0.000,1
2026-01-31 00:15:14,1424934,6043.000,3660.000,-490.000,6111.000,920.000,6345.000,0.000,0.000,0
2026-01-31 00:15:14,1424974,5793.000,3694.000,34.000,5522.000,685.000,5451.000,0.000,0.000,0
2026-01-31 00:15:14,1425014,6212.000,4015.000,-82.000,4968.000,457.000,5017.000,0.000,0.000,0
2026-01-31 00:15:14,1425054,7795.000,4330.000,-983.000,5037.000,138.000,4642.000,0.000,0.000,0
2026-01-31 00:15:14,1425094,8243.000,5054.000,-1025.000,8002.000,168.000,3110.000,0.000,0.000,0
2026-01-31 00:15:14,1425134,7674.000,5270.000,-1035.000,12361.000,-208.000,-96.000,0.000,0.000,0
2026-01-31 00:15:14,1425174,9472.000,6930.000,-272.000,12646.000,-1989.000,-3094.000,0.000,0.000,0
2026-01-31 00:15:14,1425214,11347.000,7595.000,-843.000,1651.000,-4787.000,-4232.000,0.000,0.000,0
2026-01-31 00:15:14,1425254,11227.000,6511.000,-707.000,-8166.000,-5583.000,-4576.000,0.000,0.000,0
2026-01-31 00:15:14,1425294,14851.000,5106.000,-1452.000,-16610.000,-6229.000,-5915.000,0.000,0.000,0
2026-01-31 00:15:14,1425334,15550.000,2993.000,-2042.000,-23263.000,-4052.000,-8328.000,0.000,0.000,0
2026-01-31 00:15:14,1425374,13654.000,1510.000,-2112.000,-25476.000,-747.000,-10328.000,0.000,0.000,0
2026-01-31 00:15:14,1425414,10426.000,676.000,-1615.000,-24319.000,2227.000,-10788.000,0.000,0.000,0
2026-01-31 00:15:14,1425454,7631.000,-746.000,-1516.000,-19695.000,4390.000,-10249.000,0.000,0.000,0
2026-01-31 00:15:14,1425494,5645.000,-874.000,-1186.000,-12740.000,5393.000,-9097.000,0.000,0.000,0
2026-01-31 00:15:14,1425534,4878.000,-1365.000,-617.000,-4942.000,4075.000,-6923.000,0.000,0.000,0
2026-01-31 00:15:14,1425574,4167.000,334.000,-1180.000,3913.000,2532.000,-5117.000,0.000,0.000,0
2026-01-31 00:15:14,1425614,5226.000,583.000,-1856.000,1391.000,2122.000,-2172.000,0.000,0.000,0
2026-01-31 00:15:14,1425654,6339.000,585.000,-1145.000,1422.000,1774.000,1355.000,0.000,0.000,0
2026-01-31 00:15:14,1425694,6641.000,714.000,317.000,1342.000,684.000,4727.000,0.000,0.000,0
2026-01-31 00:15:14,1425734,10672.000,182.000,-87.000,1796.000,-2093.000,8885.000,0.000,0.000,0
2026-01-31 00:15:14,1425774,12705.000,81.000,1707.000,6412.000,-5089.000,13111.000,0.000,0.000,0
2026-01-31 00:15:15,1425814,14454.000,755.000,2690.000,11981.000,-8726.000,15276.000,1.111,0.000,1
2026-01-31 00:15:15,1425854,16288.000,857.000,428.000,8452.000,-9017.000,14431.000,1.111,0.000,1
2026-01-31 00:15:15,1425894,11982.000,3221.000,817.000,4876.000,-4655.000,13041.000,1.111,0.000,1
2026-01-31 00:15:15,1425934,7950.000,1681.000,311.000,4725.000,-2151.000,10219.000,0.000,0.000,0
2026-01-31 00:15:15,1425974,7298.000,1484.000,154.000,6177.000,-1252.000,5653.000,0.000,0.000,0
2026-01-31 00:15:15,1426014,6726.000,1944.000,-2.000,9252.000,-582.000,3749.000,0.000,0.000,0
2026-01-31 00:15:15,1426054,6288.000,2695.000,-546.000,11119.000,-475.000,2768.000,0.000,0.000,0
2026-01-31 00:15:15,1426094,6414.000,4287.000,-307.000,10405.000,-683.000,3439.000,0.000,0.000,0
2026-01-31 00:15:15,1426134,7916.000,5102.000,-176.000,5704.000,-946.000,4289.000,0.000,0.000,0
2026-01-31 00:15:15,1426174,8286.000,5913.000,1011.000,1052.000,-1281.000,4180.000,0.000,0.000,0
2026-01-31 00:15:15,1426214,8259.000,5170.000,1080.000,-4644.000,-2062.000,1691.000,0.000,0.000,0
2026-01-31 00:15:15,1426254,11536.000,2920.000,600.000,-8191.000,-2820.000,-1777.000,0.000,0.000,0
2026-01-31 00:15:15,1426294,12589.000,3323.000,1111.000,-6621.000,-1988.000,-4298.000,0.000,0.000,0
2026-01-31 00:15:15,1426334,12899.000,2386.000,274.000,-9218.000,1379.000,-7171.000,0.000,0.000,0
2026-01-31 00:15:15,1426374,15659.000,1498.000,-951.000,-12231.000,3457.000,-9210.000,0.000,0.000,0
2026-01-31 00:15:15,1426414,16191.000,-247.000,-1700.000,-14420.000,6678.000,-11176.000,0.000,0.000,0
2026-01-31 00:15:15,1426454,12829.000,-1217.000,-1178.000,-13530.000,8975.000,-12634.000,0.000,0.000,0
2026-01-31 00:15:15,1426494,8760.000,-692.000,-418.000,-9852.000,8765.000,-12422.000,0.000,0.000,0
2026-01-31 00:15:15,1426534,7766.000,135.000,-795.000,-7122.000,7391.000,-11203.000,0.000,0.000,0
2026-01-31 00:15:15,1426574,5786.000,-694.000,-674.000,-5472.000,6961.000,-9533.000,0.000,0.000,0
2026-01-31 00:15:15,1426614,5453.000,-283.000,-593.000,-2622.000,5606.000,-7199.000,0.000,0.000,0
2026-01-31 00:15:15,1426654,5059.000,-62.000,-798.000,-895.000,4955.000,-4471.000,0.000,0.000,0
2026-01-31 00:15:15,1426694,4470.000,243.000,-911.000,373.000,4070.000,-1354.000,0.000,0.000,0
2026-01-31 00:15:15,1426734,4661.000,158.000,-1126.000,2515.000,2031.000,3482.000,0.000,0.000,0
2026-01-31 00:15:15,1426774,5704.000,289.000,-1312.000,5435.000,-97.000,5889.000,0.000,0.000,0
2026-01-31 00:15:16,1426814,9994.000,979.000,-1436.000,8084.000,-2932.000,9450.000,1.543,0.000,1
2026-01-31 00:15:16,1426854,12811.000,2579.000,792.000,8833.000,-5483.000,13886.000,1.543,0.000,1
2026-01-31 00:15:16,1426894,14936.000,2566.000,2623.000,4857.000,-8730.000,17200.000,1.543,0.000,1
2026-01-31 00:15:16,1426934,15714.000,1740.000,1001.000,-4547.000,-10635.000,15733.000,0.000,0.000,0
2026-01-31 00:15:16,1426974,11540.000,808.000,486.000,-6508.000,-8760.000,10772.000,0.000,0.000,0
2026-01-31 00:15:16,1427014,7789.000,-1327.000,556.000,-2824.000,-6626.000,6736.000,0.000,0.000,0
2026-01-31 00:15:16,1427054,7756.000,-1259.000,591.000,6140.000,-5825.000,4457.000,0.000,0.000,0
2026-01-31 00:15:16,1427094,7518.000,2425.000,1352.000,14382.000,-4087.000,3972.000,0.000,0.000,0
2026-01-31 00:15:16,1427134,6982.000,4183.000,1981.000,11504.000,-2861.000,5138.000,0.000,0.000,0
2026-01-31 00:15:16,1427174,7454.000,6275.000,3400.000,4552.000,-2614.000,6655.000,0.000,0.000,0
2026-01-31 00:15:16,1427214,7938.000,7772.000,3644.000,-5021.000,-2348.000,6391.000,0.000,0.000,0
2026-01-31 00:15:16,1427254,8873.000,3166.000,1763.000,-12547.000,-1217.000,3167.000,0.000,0.000,0
2026-01-31 00:15:16,1427294,9469.000,-242.000,868.000,-9439.000,6.000,-1096.000,0.000,0.000,0
2026-01-31 00:15:16,1427334,11809.000,1413.000,432.000,-2283.000,1063.000,-3870.000,0.000,0.000,0
2026-01-31 00:15:16,1427374,13476.000,3203.000,299.000,-736.000,3456.000,-5145.000,0.000,0.000,0
2026-01-31 00:15:16,1427416,15646.000,2356.000,4.000,-4434.000,5119.000,-6196.000,0.000,0.000,0
2026-01-31 00:15:16,1427455,14407.000,599.000,-233.000,-7512.000,7440.000,-8205.000,0.000,0.000,0
2026-01-31 00:15:16,1427494,15984.000,-470.000,-1740.000,-8082.000,9578.000,-11402.000,0.000,0.000,0
2026-01-31 00:15:16,1427534,14208.000,-279.000,-1128.000,-7941.000,11106.000,-12062.000,0.000,0.000,0
2026-01-31 00:15:16,1427574,10637.000,66.000,-1080.000,-7815.000,11647.000,-11257.000,0.000,0.000,0
2026-01-31 00:15:16,1427614,8184.000,603.000,-1148.000,-7721.000,10843.000,-9680.000,0.000,0.000,0
2026-01-31 00:15:16,1427654,5937.000,-487.000,-1076.000,-7062.000,9335.000,-7945.000,0.000,0.000,0
2026-01-31 00:15:16,1427694,5474.000,-168.000,-909.000,-3514.000,7848.000,-5770.000,0.000,0.000,0
2026-01-31 00:15:16,1427737,4642.000,742.000,-827.000,-1213.000,6355.000,-3674.000,0.000,0.000,0
2026-01-31 00:15:16,1427774,4253.000,418.000,-994.000,-1270.000,5052.000,-974.000,0.000,0.000,0
2026-01-31 00:15:17,1427814,4830.000,147.000,-1397.000,653.000,3448.000,1440.000,1.430,0.000,1
2026-01-31 00:15:17,1427854,5010.000,871.000,-1040.000,4297.000,434.000,3768.000,1.430,0.000,1
2026-01-31 00:15:17,1427894,7317.000,578.000,-85.000,5998.000,-2971.000,6030.000,1.430,0.000,1
2026-01-31 00:15:17,1427934,10482.000,1665.000,1550.000,7252.000,-6787.000,9830.000,0.000,0.000,0
2026-01-31 00:15:17,1427974,11543.000,2885.000,3642.000,8169.000,-10279.000,13416.000,0.000,0.000,0
2026-01-31 00:15:17,1428014,14429.000,1580.000,3050.000,6470.000,-12226.000,13946.000,0.000,0.000,0
2026-01-31 00:15:17,1428054,14083.000,2972.000,1823.000,2569.000,-9582.000,11433.000,0.000,0.000,0
2026-01-31 00:15:17,1428094,10239.000,3174.000,882.000,1998.000,-6008.000,8703.000,0.000,0.000,0
2026-01-31 00:15:17,1428134,8003.000,1040.000,2491.000,4144.000,-4742.000,6631.000,0.000,0.000,0
2026-01-31 00:15:17,1428174,7654.000,1545.000,1447.000,9860.000,-3910.000,4717.000,0.000,0.000,0
2026-01-31 00:15:17,1428214,7359.000,4121.000,2202.000,13178.000,-3515.000,4714.000,0.000,0.000,0
2026-01-31 00:15:17,1428254,6902.000,4478.000,3695.000,5017.000,-2599.000,5330.000,0.000,0.000,0
2026-01-31 00:15:17,1428294,7187.000,3392.000,2948.000,1070.000,-2308.000,5265.000,0.000,0.000,0
2026-01-31 00:15:17,1428334,8796.000,3301.000,2161.000,-445.000,-1842.000,4329.000,0.000,0.000,0
2026-01-31 00:15:17,1428374,8705.000,3698.000,1895.000,-1033.000,-189.000,2495.000,0.000,0.000,0
2026-01-31 00:15:17,1428414,10572.000,3469.000,753.000,-1576.000,231.000,218.000,0.000,0.000,0
2026-01-31 00:15:17,1428454,11832.000,3028.000,877.000,-2721.000,1626.000,-2099.000,0.000,0.000,0
2026-01-31 00:15:17,1428494,13561.000,3058.000,161.000,-3450.000,2160.000,-4131.000,0.000,0.000,0
2026-01-31 00:15:17,1428534,13918.000,2505.000,-210.000,-5565.000,3047.000,-6359.000,0.000,0.000,0
2026-01-31 00:15:17,1428574,14267.000,1471.000,-760.000,-8357.000,4346.000,-8789.000,0.000,0.000,0
2026-01-31 00:15:17,1428614,12485.000,323.000,-1249.000,-9954.000,5932.000,-11363.000,0.000,0.000,0
2026-01-31 00:15:17,1428654,10118.000,354.000,-667.000,-10007.000,7571.000,-11283.000,0.000,0.000,0
2026-01-31 00:15:17,1428694,8194.000,231.000,-823.000,-9033.000,7672.000,-10596.000,0.000,0.000,0
2026-01-31 00:15:17,1428734,6848.000,-251.000,-956.000,-7119.000,7054.000,-9712.000,0.000,0.000,0
2026-01-31 00:15:17,1428774,6490.000,-208.000,-695.000,-5155.000,5989.000,-8159.000,0.000,0.000,0
2026-01-31 00:15:18,1428814,5649.000,93.000,-942.000,-3072.000,5561.000,-6639.000,1.610,0.000,1
2026-01-31 00:15:18,1428854,5280.000,-460.000,-1267.000,-873.000,4723.000,-4813.000,1.610,0.000,1
2026-01-31 00:15:18,1428894,5674.000,-132.000,-1157.000,1781.000,3605.000,-2713.000,1.610,0.000,1
2026-01-31 00:15:18,1428934,4915.000,-742.000,-942.000,4217.000,2461.000,-524.000,0.000,0.000,0
2026-01-31 00:15:18,1428974,4940.000,-1562.000,224.000,6434.000,164.000,2334.000,0.000,0.000,0
2026-01-31 00:15:18,1429014,11242.000,2911.000,1054.000,8767.000,-5613.000,10319.000,0.000,0.000,0
2026-01-31 00:15:18,1429054,13224.000,2527.000,1618.000,3936.000,-7560.000,17481.000,0.000,0.000,0
2026-01-31 00:15:18,1429094,15878.000,189.000,1194.000,332.000,-10312.000,18823.000,0.000,0.000,0
2026-01-31 00:15:18,1429134,16207.000,2326.000,1967.000,2558.000,-10748.000,15095.000,0.000,0.000,0
2026-01-31 00:15:18,1429174,8965.000,2429.000,2052.000,-534.000,-6715.000,11158.000,0.000,0.000,0
2026-01-31 00:15:18,1429214,7319.000,-367.000,-195.000,-1052.000,-5423.000,6868.000,0.000,0.000,0
2026-01-31 00:15:18,1429254,7490.000,-1248.000,506.000,4092.000,-4665.000,3676.000,0.000,0.000,0
2026-01-31 00:15:18,1429294,7381.000,834.000,1258.000,10173.000,-3533.000,2315.000,0.000,0.000,0
2026-01-31 00:15:18,1429334,6823.000,3360.000,2277.000,11923.000,-2545.000,2684.000,0.000,0.000,0
2026-01-31 00:15:18,1429374,6342.000,6121.000,3519.000,7614.000,-2050.000,4114.000,0.000,0.000,0
2026-01-31 00:15:18,1429414,8956.000,6693.000,2646.000,-4413.000,-2434.000,4511.000,0.000,0.000,0
2026-01-31 00:15:18,1429454,8163.000,2310.000,1176.000,-10147.000,-319.000,1980.000,0.000,0.000,0
2026-01-31 00:15:18,1429494,10785.000,222.000,333.000,-6491.000,-160.000,-1669.000,0.000,0.000,0
2026-01-31 00:15:18,1429534,14972.000,2107.000,-194.000,-1472.000,1689.000,-4499.000,0.000,0.000,0
2026-01-31 00:15:18,1429574,13821.000,1946.000,-216.000,-488.000,4811.000,-7175.000,0.000,0.000,0
2026-01-31 00:15:18,1429614,14511.000,1236.000,-618.000,-1257.000,5229.000,-10176.000,0.000,0.000,0
2026-01-31 00:15:18,1429654,14965.000,1364.000,-1136.000,-3040.000,6179.000,-12441.000,0.000,0.000,0
2026-01-31 00:15:18,1429694,13698.000,1048.000,-1264.000,-6168.000,7096.000,-13163.000,0.000,0.000,0
2026-01-31 00:15:18,1429736,10660.000,1010.000,-635.000,-8852.000,7293.000,-12671.000,0.000,0.000,0
2026-01-31 00:15:18,1429774,8005.000,408.000,-757.000,-10101.000,6112.000,-10806.000,0.000,0.000,0
2026-01-31 00:15:19,1429814,6804.000,136.000,-1259.000,-8062.000,5544.000,-9599.000,2.402,0.000,1
2026-01-31 00:15:19,1429854,5790.000,-171.000,-1351.000,-6171.000,5466.000,-7937.000,2.402,0.000,1
2026-01-31 00:15:19,1429894,5075.000,-319.000,-1252.000,-3194.000,4977.000,-6387.000,2.402,0.000,1
2026-01-31 00:15:19,1429934,4597.000,-434.000,-1359.000,82.000,4613.000,-4459.000,0.000,0.000,0
2026-01-31 00:15:19,1429974,4952.000,103.000,-1225.000,3128.000,3493.000,-1996.000,0.000,0.000,0
2026-01-31 00:15:19,1430014,4652.000,730.000,-584.000,4398.000,2260.000,664.000,0.000,0.000,0
2026-01-31 00:15:19,1430054,6351.000,500.000,277.000,3815.000,-180.000,3623.000,0.000,0.000,0
2026-01-31 00:15:19,1430094,9609.000,1472.000,1458.000,3458.000,-2789.000,7920.000,0.000,0.000,0
2026-01-31 00:15:19,1430134,12155.000,1524.000,1591.000,2158.000,-5866.000,13330.000,0.000,0.000,0
2026-01-31 00:15:19,1430174,16413.000,1937.000,2337.000,6370.000,-9579.000,16263.000,0.000,0.000,0
2026-01-31 00:15:19,1430214,15407.000,3200.000,2478.000,7782.000,-9429.000,15688.000,0.000,0.000,0
2026-01-31 00:15:19,1430254,11058.000,3277.000,956.000,6016.000,-6924.000,12891.000,0.000,0.000,0
2026-01-31 00:15:19,1430294,8180.000,1945.000,429.000,3198.000,-4642.000,9391.000,0.000,0.000,0
2026-01-31 00:15:19,1430334,7540.000,1569.000,1082.000,5047.000,-3838.000,6611.000,0.000,0.000,0
2026-01-31 00:15:19,1430374,6931.000,1918.000,912.000,7361.000,-2886.000,4910.000,0.000,0.000,0
2026-01-31 00:15:19,1430414,6730.000,2912.000,873.000,8624.000,-2176.000,4337.000,0.000,0.000,0
2026-01-31 00:15:19,1430454,6352.000,3883.000,1440.000,7451.000,-1694.000,4538.000,0.000,0.000,0
2026-01-31 00:15:19,1430494,6428.000,5346.000,2006.000,3921.000,-1787.000,4614.000,0.000,0.000,0
2026-01-31 00:15:19,1430534,7925.000,7144.000,1405.000,1322.000,-2077.000,3349.000,0.000,0.000,0
2026-01-31 00:15:19,1430574,9698.000,1683.000,303.000,-6721.000,-1356.000,-1345.000,0.000,0.000,0
2026-01-31 00:15:19,1430614,12789.000,2507.000,704.000,-3137.000,-651.000,-4271.000,0.000,0.000,0
2026-01-31 00:15:19,1430654,14683.000,2894.000,130.000,-2331.000,918.000,-6267.000,0.000,0.000,0
2026-01-31 00:15:19,1430694,14254.000,1738.000,-332.000,-4963.000,3146.000,-8455.000,0.000,0.000,0
2026-01-31 00:15:19,1430734,15773.000,1093.000,-940.000,-7367.000,4840.000,-10752.000,0.000,0.000,0
2026-01-31 00:15:19,1430774,16414.000,280.000,-1343.000,-10081.000,7027.000,-12527.000,0.000,0.000,0
2026-01-31 00:15:20,1430814,13077.000,-50.000,-1077.000,-11741.000,9136.000,-12668.000,2.479,0.000,1
2026-01-31 00:15:20,1430854,9389.000,-211.000,-656.000,-11548.000,9255.000,-11451.000,2.479,0.000,1
2026-01-31 00:15:20,1430894,7481.000,-116.000,-902.000,-8963.000,8397.000,-10474.000,2.479,0.000,1
2026-01-31 00:15:20,1430934,5868.000,-281.000,-637.000,-4756.000,6807.000,-7553.000,0.000,0.000,0
2026-01-31 00:15:20,1430974,5552.000,224.000,-580.000,-3023.000,5974.000,-5609.000,0.000,0.000,0
2026-01-31 00:15:20,1431014,4852.000,-53.000,-962.000,-2161.000,5343.000,-3070.000,0.000,0.000,0
2026-01-31 00:15:20,1431054,5151.000,-47.000,-1193.000,-26.000,3897.000,-200.000,0.000,0.000,0
2026-01-31 00:15:20,1431094,4977.000,214.000,-1009.000,2787.000,2423.000,2632.000,0.000,0.000,0
2026-01-31 00:15:20,1431134,5021.000,886.000,-297.000,4879.000,-135.000,5323.000,0.000,0.000,0
2026-01-31 00:15:20,1431174,8205.000,868.000,532.000,5176.000,-3910.000,8599.000,0.000,0.000,0
2026-01-31 00:15:20,1431214,11622.000,3114.000,2928.000,4745.000,-7930.000,12947.000,0.000,0.000,0
2026-01-31 00:15:20,1431254,12817.000,1653.000,2581.000,1250.000,-11396.000,15798.000,0.000,0.000,0
2026-01-31 00:15:20,1431294,14259.000,297.000,-49.000,1040.000,-12249.000,13420.000,0.000,0.000,0
2026-01-31 00:15:20,1431334,12497.000,940.000,504.000,2627.000,-9067.000,10304.000,0.000,0.000,0
2026-01-31 00:15:20,1431374,8733.000,269.000,367.000,4589.000,-6216.000,7634.000,0.000,0.000,0
2026-01-31 00:15:20,1431414,7783.000,1374.000,727.000,9217.000,-5442.000,5173.000,0.000,0.000,0
2026-01-31 00:15:20,1431454,7959.000,2265.000,1462.000,11409.000,-4922.000,4007.000,0.000,0.000,0
2026-01-31 00:15:20,1431494,7117.000,4115.000,1378.000,11825.000,-3419.000,3713.000,0.000,0.000,0
2026-01-31 00:15:20,1431534,6745.000,5432.000,1999.000,7295.000,-2728.000,4248.000,0.000,0.000,0
2026-01-31 00:15:20,1431574,6726.000,6217.000,2654.000,233.000,-2436.000,4438.000,0.000,0.000,0
2026-01-31 00:15:20,1431614,7663.000,7288.000,2715.000,-6887.000,-2322.000,3632.000,0.000,0.000,0
2026-01-31 00:15:20,1431654,8793.000,2339.000,180.000,-12350.000,-1045.000,1180.000,0.000,0.000,0
2026-01-31 00:15:20,1431694,12479.000,-374.000,609.000,-9044.000,668.000,-4014.000,0.000,0.000,0
2026-01-31 00:15:20,1431735,16434.000,-39.000,-430.000,-4719.000,3750.000,-7098.000,0.000,0.000,0
2026-01-31 00:15:20,1431775,16991.000,706.000,-1774.000,-1404.000,8213.000,-9767.000,0.000,0.000,0
2026-01-31 00:15:21,1431815,18127.000,-208.000,-1906.000,-1408.000,10463.000,-12466.000,2.557,0.000,1
2026-01-31 00:15:21,1431854,15847.000,-526.000,-1104.000,-2800.000,11744.000,-15142.000,2.557,0.000,1
2026-01-31 00:15:21,1431894,12591.000,1257.000,-165.000,-5241.000,10250.000,-14668.000,2.557,0.000,1
2026-01-31 00:15:21,1431934,8872.000,654.000,-372.000,-9489.000,8957.000,-12709.000,0.000,0.000,0
2026-01-31 00:15:21,1431974,6164.000,355.000,-891.000,-8012.000,7677.000,-11018.000,0.000,0.000,0
2026-01-31 00:15:21,1432014,5497.000,-495.000,-963.000,-6550.000,6235.000,-9087.000,0.000,0.000,0
2026-01-31 00:15:21,1432054,4355.000,149.000,-852.000,-3496.000,4928.000,-5975.000,0.000,0.000,0
2026-01-31 00:15:21,1432094,4297.000,-132.000,-840.000,-1963.000,3691.000,-2996.000,0.000,0.000,0
2026-01-31 00:15:21,1432134,4786.000,-128.000,-982.000,454.000,2550.000,426.000,0.000,0.000,0
2026-01-31 00:15:21,1432174,4935.000,176.000,-1064.000,3102.000,1227.000,3463.000,0.000,0.000,0
2026-01-31 00:15:21,1432214,5234.000,526.000,-581.000,5638.000,-927.000,6212.000,0.000,0.000,0
2026-01-31 00:15:21,1432254,8899.000,3234.000,737.000,6364.000,-4097.000,10079.000,0.000,0.000,0
2026-01-31 00:15:21,1432294,11561.000,5812.000,3570.000,1322.000,-7609.000,15052.000,0.000,0.000,0
2026-01-31 00:15:21,1432334,11816.000,3097.000,3222.000,-6201.000,-11808.000,16625.000,0.000,0.000,0
2026-01-31 00:15:21,1432374,13218.000,-660.000,1154.000,-7712.000,-14954.000,13639.000,0.000,0.000,0
2026-01-31 00:15:21,1432414,11465.000,-1273.000,1703.000,-1847.000,-13102.000,8632.000,0.000,0.000,0
2026-01-31 00:15:21,1432454,8545.000,-834.000,270.000,7595.000,-7063.000,3837.000,0.000,0.000,0
2026-01-31 00:15:21,1432494,7478.000,314.000,960.000,12068.000,-5707.000,2640.000,0.000,0.000,0
2026-01-31 00:15:21,1432534,7405.000,1770.000,1427.000,13692.000,-4120.000,2191.000,0.000,0.000,0
2026-01-31 00:15:21,1432574,7398.000,3817.000,2303.000,13759.000,-3121.000,2624.000,0.000,0.000,0
2026-01-31 00:15:21,1432614,7048.000,5311.000,3404.000,9305.000,-2238.000,3840.000,0.000,0.000,0
2026-01-31 00:15:21,1432654,7927.000,5274.000,3306.000,1674.000,-2106.000,4668.000,0.000,0.000,0
2026-01-31 00:15:21,1432694,9668.000,4444.000,2526.000,-5079.000,-1972.000,3942.000,0.000,0.000,0
2026-01-31 00:15:21,1432734,9365.000,2111.000,1177.000,-7946.000,-392.000,1627.000,0.000,0.000,0
2026-01-31 00:15:21,1432774,10806.000,755.000,-16.000,-5835.000,468.000,-1424.000,0.000,0.000,0
2026-01-31 00:15:22,1432814,13605.000,1560.000,420.000,-2107.000,2930.000,-5231.000,2.500,0.000,1
2026-01-31 00:15:22,1432854,12655.000,2122.000,177.000,-1920.000,5472.000,-7018.000,2.500,0.000,1
2026-01-31 00:15:22,1432894,14441.000,1387.000,-780.000,-3854.000,6023.000,-8759.000,2.500,0.000,1
2026-01-31 00:15:22,1432934,14726.000,272.000,-1316.000,-6987.000,7816.000,-10522.000,0.000,0.000,0
2026-01-31 00:15:22,1432974,12859.000,-101.000,-1134.000,-8128.000,9180.000,-11616.000,0.000,0.000,0
2026-01-31 00:15:22,1433014,9659.000,267.000,-511.000,-8289.000,9477.000,-11542.000,0.000,0.000,0
2026-01-31 00:15:22,1433054,7929.000,451.000,-479.000,-7840.000,8748.000,-10700.000,0.000,0.000,0
2026-01-31 00:15:22,1433094,7444.000,-175.000,-934.000,-7252.000,8099.000,-9173.000,0.000,0.000,0
2026-01-31 00:15:22,1433134,5884.000,-642.000,-1062.000,-4453.000,7186.000,-7512.000,0.000,0.000,0
2026-01-31 00:15:22,1433174,4902.000,-5.000,-968.000,-1027.000,6249.000,-5798.000,0.000,0.000,0
2026-01-31 00:15:22,1433214,4594.000,431.000,-580.000,1854.000,3943.000,-1899.000,0.000,0.000,0
2026-01-31 00:15:22,1433254,4863.000,454.000,-243.000,2890.000,1824.000,1135.000,0.000,0.000,0
2026-01-31 00:15:22,1433294,4776.000,601.000,461.000,3718.000,-989.000,4280.000,0.000,0.000,0
2026-01-31 00:15:22,1433334,7672.000,923.000,1430.000,3423.000,-4917.000,8347.000,0.000,0.000,0
2026-01-31 00:15:22,1433374,11063.000,1458.000,1286.000,2331.000,-8665.000,13206.000,0.000,0.000,0
2026-01-31 00:15:22,1433414,13556.000,1731.000,1537.000,1450.000,-11565.000,16564.000,0.000,0.000,0
2026-01-31 00:15:22,1433455,15518.000,17.000,1326.000,1072.000,-13577.000,16146.000,0.000,0.000,0
2026-01-31 00:15:22,1433494,13761.000,250.000,-14.000,1841.000,-10940.000,12201.000,0.000,0.000,0
2026-01-31 00:15:22,1433534,9399.000,-462.000,45.000,1620.000,-6835.000,8206.000,0.000,0.000,0
2026-01-31 00:15:22,1433574,7721.000,-392.000,-127.000,6502.000,-5458.000,3768.000,0.000,0.000,0
2026-01-31 00:15:22,1433614,7962.000,1831.000,248.000,14586.000,-4282.000,2740.000,0.000,0.000,0
2026-01-31 00:15:22,1433654,7510.000,3656.000,1113.000,14595.000,-2956.000,2800.000,0.000,0.000,0
2026-01-31 00:15:22,1433694,7527.000,5260.000,2267.000,10028.000,-2448.000,3872.000,0.000,0.000,0
2026-01-31 00:15:22,1433737,7074.000,5443.000,3117.000,1410.000,-2175.000,4903.000,0.000,0.000,0
2026-01-31 00:15:22,1433774,8122.000,4398.000,3122.000,-5758.000,-2990.000,4238.000,0.000,0.000,0
2026-01-31 00:15:23,1433814,9191.000,2339.000,2116.000,-9377.000,-2266.000,2128.000,2.629,0.000,1
2026-01-31 00:15:23,1433854,9928.000,928.000,456.000,-7456.000,-565.000,-827.000,2.629,0.000,1
2026-01-31 00:15:23,1433894,12486.000,74.000,339.000,-4910.000,1165.000,-3699.000,2.629,0.000,1
2026-01-31 00:15:23,1433934,12954.000,727.000,843.000,-2679.000,4124.000,-6279.000,0.000,0.000,0
2026-01-31 00:15:23,1433974,16179.000,820.000,-1105.000,-2262.000,6757.000,-9598.000,0.000,0.000,0
2026-01-31 00:15:23,1434014,17097.000,43.000,-1593.000,-4556.000,9921.000,-11356.000,0.000,0.000,0
2026-01-31 00:15:23,1434054,13960.000,34.000,-1013.000,-6230.000,11747.000,-12574.000,0.000,0.000,0
2026-01-31 00:15:23,1434094,10306.000,425.000,-685.000,-8491.000,11341.000,-12639.000,0.000,0.000,0
2026-01-31 00:15:23,1434134,7913.000,-121.000,-380.000,-9103.000,10060.000,-11818.000,0.000,0.000,0
2026-01-31 00:15:23,1434174,7274.000,133.000,-705.000,-8376.000,8578.000,-10383.000,0.000,0.000,0
2026-01-31 00:15:23,1434214,5420.000,-905.000,-965.000,-6547.000,7863.000,-8421.000,0.000,0.000,0
2026-01-31 00:15:23,1434254,4578.000,-78.000,-906.000,-3359.000,6326.000,-6319.000,0.000,0.000,0
2026-01-31 00:15:23,1434294,4835.000,80.000,-685.000,-1521.000,4536.000,-3266.000,0.000,0.000,0
2026-01-31 00:15:23,1434334,5580.000,146.000,-759.000,819.000,2583.000,1851.000,0.000,0.000,0
2026-01-31 00:15:23,1434374,5272.000,189.000,-435.000,5357.000,-681.000,4542.000,0.000,0.000,0
2026-01-31 00:15:23,1434414,6651.000,885.000,803.000,6251.000,-3757.000,7263.000,0.000,0.000,0
2026-01-31 00:15:23,1434454,9693.000,3864.000,3007.000,4503.000,-7304.000,11316.000,0.000,0.000,0
2026-01-31 00:15:23,1434494,12097.000,4448.000,3702.000,-2235.000,-11142.000,15240.000,0.000,0.000,0
2026-01-31 00:15:23,1434534,13295.000,1015.000,2277.000,-5949.000,-13214.000,14309.000,0.000,0.000,0
2026-01-31 00:15:23,1434574,12373.000,-2396.000,673.000,-4844.000,-12977.000,10069.000,0.000,0.000,0
2026-01-31 00:15:23,1434614,10389.000,-2047.000,583.000,4154.000,-10228.000,5313.000,0.000,0.000,0
2026-01-31 00:15:23,1434654,8754.000,-1139.000,1380.000,9591.000,-7706.000,3186.000,0.000,0.000,0
2026-01-31 00:15:23,1434694,8489.000,854.000,1442.000,14295.000,-6083.000,2552.000,0.000,0.000,0
2026-01-31 00:15:23,1434734,6669.000,4030.000,2338.000,14272.000,-2413.000,3595.000,0.000,0.000,0
2026-01-31 00:15:23,1434774,6354.000,4638.000,2799.000,8868.000,-2103.000,4360.000,0.000,0.000,0
2026-01-31 00:15:24,1434814,7923.000,4746.000,2691.000,1676.000,-2089.000,4741.000,2.695,0.000,1
2026-01-31 00:15:24,1434854,8438.000,3974.000,2588.000,-4299.000,-1340.000,3929.000,2.695,0.000,1
2026-01-31 00:15:24,1434894,8898.000,1716.000,1750.000,-6771.000,-575.000,1500.000,2.695,0.000,1
2026-01-31 00:15:24,1434934,9275.000,416.000,462.000,-4798.000,451.000,-1765.000,0.000,0.000,0
2026-01-31 00:15:24,1434974,10535.000,-3.000,-265.000,-1426.000,1650.000,-4959.000,0.000,0.000,0
2026-01-31 00:15:24,1435014,12010.000,538.000,-83.000,1637.000,2484.000,-7209.000,0.000,0.000,0
2026-01-31 00:15:24,1435054,12383.000,2129.000,992.000,2741.000,3308.000,-8735.000,0.000,0.000,0
2026-01-31 00:15:24,1435094,14429.000,2156.000,-529.000,52.000,3248.000,-9490.000,0.000,0.000,0
2026-01-31 00:15:24,1435134,13993.000,954.000,-1178.000,-7382.000,4676.000,-10133.000,0.000,0.000,0
2026-01-31 00:15:24,1435174,11538.000,467.000,-904.000,-9897.000,5828.000,-10567.000,0.000,0.000,0
2026-01-31 00:15:24,1435214,8324.000,108.000,-271.000,-10982.000,6201.000,-10519.000,0.000,0.000,0
2026-01-31 00:15:24,1435254,6261.000,-280.000,-261.000,-10046.000,5850.000,-9911.000,0.000,0.000,0
2026-01-31 00:15:24,1435294,5042.000,-742.000,-43.000,-7174.000,5263.000,-8703.000,0.000,0.000,0
2026-01-31 00:15:24,1435334,5388.000,-142.000,-37.000,-3343.000,3940.000,-6875.000,0.000,0.000,0
2026-01-31 00:15:24,1435374,4282.000,-314.000,-75.000,-1748.000,3371.000,-4406.000,0.000,0.000,0
2026-01-31 00:15:24,1435414,5108.000,184.000,102.000,-349.000,1781.000,-1088.000,0.000,0.000,0
2026-01-31 00:15:24,1435454,5944.000,124.000,361.000,604.000,399.000,2482.000,0.000,0.000,0
2026-01-31 00:15:24,1435494,6622.000,282.000,362.000,3859.000,-2309.000,7095.000,0.000,0.000,0
2026-01-31 00:15:24,1435534,9010.000,352.000,-244.000,5840.000,-4781.000,10027.000,0.000,0.000,0
2026-01-31 00:15:24,1435574,14138.000,1158.000,-782.000,8341.000,-7227.000,13733.000,0.000,0.000,0
2026-01-31 00:15:24,1435614,15157.000,3209.000,2100.000,8867.000,-8016.000,16397.000,0.000,0.000,0
2026-01-31 00:15:24,1435654,13816.000,2275.000,2740.000,5171.000,-8404.000,15523.000,0.000,0.000,0
2026-01-31 00:15:24,1435694,10980.000,1311.000,1466.000,-1534.000,-6551.000,10753.000,0.000,0.000,0
2026-01-31 00:15:24,1435736,7826.000,-1345.000,187.000,-3051.000,-4703.000,5754.000,0.000,0.000,0
2026-01-31 00:15:24,1435774,6464.000,-1011.000,130.000,2468.000,-3313.000,2382.000,0.000,0.000,0
2026-01-31 00:15:25,1435814,6025.000,-209.000,190.000,8640.000,-2034.000,704.000,2.701,0.000,1
2026-01-31 00:15:25,1435854,5985.000,2937.000,812.000,12259.000,-1128.000,294.000,2.701,0.000,1
2026-01-31 00:15:25,1435894,6260.000,3963.000,1915.000,8350.000,-630.000,1046.000,2.701,0.000,1
2026-01-31 00:15:25,1435934,7066.000,4259.000,2616.000,2834.000,-899.000,2173.000,0.000,0.000,0
2026-01-31 00:15:25,1435974,7392.000,3133.000,2327.000,-2669.000,-1351.000,2144.000,0.000,0.000,0
2026-01-31 00:15:25,1436014,8926.000,2224.000,1459.000,-5908.000,-1910.000,825.000,0.000,0.000,0
2026-01-31 00:15:25,1436054,10161.000,1085.000,-73.000,-6226.000,-1155.000,-1219.000,0.000,0.000,0
2026-01-31 00:15:25,1436094,11844.000,493.000,-514.000,-4006.000,-52.000,-3241.000,0.000,0.000,0
2026-01-31 00:15:25,1436134,12313.000,966.000,859.000,-2660.000,1433.000,-5075.000,0.000,0.000,0
2026-01-31 00:15:25,1436174,11779.000,1549.000,670.000,-2967.000,2764.000,-6357.000,0.000,0.000,0
2026-01-31 00:15:25,1436214,13393.000,1554.000,-781.000,-4496.000,3176.000,-7188.000,0.000,0.000,0
2026-01-31 00:15:25,1436254,13659.000,740.000,-1304.000,-5929.000,4007.000,-8161.000,0.000,0.000,0
2026-01-31 00:15:25,1436294,10010.000,-70.000,-659.000,-8436.000,7059.000,-9299.000,0.000,0.000,0
2026-01-31 00:15:25,1436334,7739.000,-5.000,-150.000,-7270.000,6968.000,-9715.000,0.000,0.000,0
2026-01-31 00:15:25,1436374,6435.000,238.000,-287.000,-5172.000,6208.000,-9444.000,0.000,0.000,0
2026-01-31 00:15:25,1436414,6301.000,277.000,-624.000,-3683.000,5203.000,-8059.000,0.000,0.000,0
2026-01-31 00:15:25,1436454,5792.000,256.000,-709.000,-2200.000,4574.000,-6133.000,0.000,0.000,0
2026-01-31 00:15:25,1436494,5376.000,335.000,-574.000,-439.000,3677.000,-3832.000,0.000,0.000,0
2026-01-31 00:15:25,1436534,5813.000,498.000,-294.000,951.000,2321.000,-1297.000,0.000,0.000,0
2026-01-31 00:15:25,1436574,6709.000,878.000,-160.000,1600.000,878.000,1388.000,0.000,0.000,0
2026-01-31 00:15:25,1436614,6773.000,697.000,278.000,1989.000,-527.000,4849.000,0.000,0.000,0
2026-01-31 00:15:25,1436654,8680.000,772.000,370.000,2501.000,-3675.000,7658.000,0.000,0.000,0
2026-01-31 00:15:25,1436694,11651.000,1387.000,305.000,3154.000,-5848.000,11415.000,0.000,0.000,0
2026-01-31 00:15:25,1436734,11540.000,1836.000,1753.000,2733.000,-7131.000,13862.000,0.000,0.000,0
2026-01-31 00:15:25,1436774,12708.000,1062.000,2395.000,2081.000,-9105.000,13327.000,0.000,0.000,0
2026-01-31 00:15:26,1436814,12191.000,1227.000,1987.000,414.000,-7935.000,9829.000,2.711,0.000,1
2026-01-31 00:15:26,1436854,7752.000,-492.000,1087.000,-2876.000,-4891.000,6340.000,2.711,0.000,1
2026-01-31 00:15:26,1436894,7026.000,-1261.000,157.000,2118.000,-3867.000,3395.000,2.711,0.000,1
2026-01-31 00:15:26,1436934,6411.000,-153.000,377.000,7488.000,-2369.000,1880.000,0.000,0.000,0
2026-01-31 00:15:26,1436974,5997.000,1638.000,988.000,9964.000,-1144.000,1354.000,0.000,0.000,0
2026-01-31 00:15:26,1437014,6336.000,3574.000,2365.000,8115.000,-1257.000,1665.000,0.000,0.000,0
2026-01-31 00:15:26,1437054,7388.000,3645.000,2634.000,3556.000,-1345.000,2260.000,0.000,0.000,0
2026-01-31 00:15:26,1437094,8146.000,3128.000,2253.000,-970.000,-1596.000,2139.000,0.000,0.000,0
2026-01-31 00:15:26,1437134,9337.000,2032.000,1478.000,-3834.000,-1525.000,977.000,0.000,0.000,0
2026-01-31 00:15:26,1437174,9760.000,1740.000,721.000,-4243.000,-581.000,-738.000,0.000,0.000,0
2026-01-31 00:15:26,1437214,10389.000,772.000,718.000,-4090.000,37.000,-2748.000,0.000,0.000,0
2026-01-31 00:15:26,1437254,11226.000,582.000,797.000,-2516.000,1031.000,-4434.000,0.000,0.000,0
2026-01-31 00:15:26,1437294,11169.000,1830.000,1019.000,-1343.000,1947.000,-5161.000,0.000,0.000,0
2026-01-31 00:15:26,1437334,11350.000,2089.000,396.000,-3395.000,2486.000,-5526.000,0.000,0.000,0
2026-01-31 00:15:26,1437374,14259.000,978.000,-1343.000,-7382.000,3378.000,-5912.000,0.000,0.000,0
2026-01-31 00:15:26,1437416,11624.000,166.000,-1261.000,-10441.000,7233.000,-7140.000,0.000,0.000,0
2026-01-31 00:15:26,1437455,9003.000,-859.000,-932.000,-9334.000,8143.000,-8226.000,0.000,0.000,0
2026-01-31 00:15:26,1437494,6986.000,-875.000,-716.000,-5322.000,7961.000,-9390.000,0.000,0.000,0
2026-01-31 00:15:26,1437534,6024.000,41.000,-329.000,-1771.000,6768.000,-9407.000,0.000,0.000,0
2026-01-31 00:15:26,1437574,5690.000,490.000,-251.000,-229.000,5602.000,-7953.000,0.000,0.000,0
2026-01-31 00:15:26,1437614,5417.000,666.000,-467.000,1010.000,4511.000,-5612.000,0.000,0.000,0
2026-01-31 00:15:26,1437654,5494.000,637.000,-376.000,1669.000,3308.000,-2928.000,0.000,0.000,0
2026-01-31 00:15:26,1437694,6341.000,860.000,-170.000,1816.000,1878.000,7.000,0.000,0.000,0
2026-01-31 00:15:26,1437737,7099.000,745.000,-72.000,1836.000,422.000,2753.000,0.000,0.000,0
2026-01-31 00:15:26,1437774,8081.000,706.000,236.000,2574.000,-2682.000,6674.000,0.000,0.000,0
2026-01-31 00:15:27,1437814,10263.000,1206.000,773.000,3020.000,-5033.000,10076.000,2.737,0.000,1
2026-01-31 00:15:27,1437854,10463.000,1569.000,1585.000,2319.000,-6748.000,12981.000,2.737,0.000,1
2026-01-31 00:15:27,1437894,11642.000,1165.000,1974.000,1314.000,-8763.000,13726.000,2.737,0.000,1
2026-01-31 00:15:27,1437934,13470.000,709.000,1169.000,1122.000,-9126.000,11873.000,0.000,0.000,0
2026-01-31 00:15:27,1437974,10203.000,454.000,1038.000,1168.000,-5831.000,8609.000,0.000,0.000,0
2026-01-31 00:15:27,1438014,7647.000,-601.000,516.000,2588.000,-4126.000,5315.000,0.000,0.000,0
2026-01-31 00:15:27,1438054,6573.000,-377.000,220.000,6992.000,-2919.000,2600.000,0.000,0.000,0
2026-01-31 00:15:27,1438094,6304.000,1426.000,300.000,10829.000,-1903.000,1656.000,0.000,0.000,0
2026-01-31 00:15:27,1438134,6452.000,2874.000,1411.000,11267.000,-1673.000,1480.000,0.000,0.000,0
2026-01-31 00:15:27,1438174,7371.000,4221.000,2006.000,5662.000,-1498.000,2305.000,0.000,0.000,0
2026-01-31 00:15:27,1438214,7672.000,3683.000,2461.000,-287.000,-1717.000,2589.000,0.000,0.000,0
2026-01-31 00:15:27,1438254,8600.000,2620.000,2038.000,-4606.000,-2291.000,1554.000,0.000,0.000,0
2026-01-31 00:15:27,1438294,9436.000,1330.000,1090.000,-5811.000,-1641.000,-331.000,0.000,0.000,0
2026-01-31 00:15:27,1438334,9671.000,672.000,413.000,-4998.000,-509.000,-2260.000,0.000,0.000,0
2026-01-31 00:15:27,1438374,10550.000,611.000,944.000,-3359.000,418.000,-3866.000,0.000,0.000,0
2026-01-31 00:15:27,1438414,11670.000,1494.000,1160.000,-2435.000,1370.000,-4662.000,0.000,0.000,0
2026-01-31 00:15:27,1438454,12194.000,1967.000,86.000,-3704.000,2685.000,-5134.000,0.000,0.000,0
2026-01-31 00:15:27,1438494,14383.000,1344.000,-1413.000,-6155.000,4129.000,-5740.000,0.000,0.000,0
2026-01-31 00:15:27,1438534,12875.000,699.000,-1453.000,-7357.000,5464.000,-6166.000,0.000,0.000,0
2026-01-31 00:15:27,1438574,8701.000,190.000,-1053.000,-9132.000,7408.000,-7319.000,0.000,0.000,0
2026-01-31 00:15:27,1438614,6666.000,-199.000,-585.000,-6805.000,6864.000,-7919.000,0.000,0.000,0
2026-01-31 00:15:27,1438654,5918.000,269.000,-421.000,-3721.000,5784.000,-8346.000,0.000,0.000,0
2026-01-31 00:15:27,1438694,5917.000,877.000,-543.000,-1927.000,4741.000,-7594.000,0.000,0.000,0
2026-01-31 00:15:27,1438734,5598.000,819.000,-976.000,-1630.000,4303.000,-5976.000,0.000,0.000,0
2026-01-31 00:15:27,1438774,6166.000,579.000,-1210.000,-396.000,3627.000,-3746.000,0.000,0.000,0
2026-01-31 00:15:28,1438814,7277.000,769.000,-696.000,1292.000,2741.000,-1246.000,2.541,0.000,1
2026-01-31 00:15:28,1438854,7539.000,569.000,-524.000,2989.000,1933.000,774.000,2.541,0.000,1
2026-01-31 00:15:28,1438894,7488.000,740.000,291.000,4244.000,464.000,2118.000,2.541,0.000,1
2026-01-31 00:15:28,1438934,9759.000,1325.000,1549.000,2583.000,-2798.000,5958.000,0.000,0.000,0
2026-01-31 00:15:28,1438974,9181.000,1402.000,2225.000,7.000,-4545.000,9137.000,0.000,0.000,0
2026-01-31 00:15:28,1439014,10708.000,284.000,1554.000,-155.000,-6912.000,10702.000,0.000,0.000,0
2026-01-31 00:15:28,1439054,12070.000,175.000,1971.000,1342.000,-7522.000,9676.000,0.000,0.000,0
2026-01-31 00:15:28,1439094,9580.000,-13.000,1772.000,2482.000,-6060.000,7666.000,0.000,0.000,0
2026-01-31 00:15:28,1439134,7461.000,-81.000,829.000,3953.000,-4384.000,5931.000,0.000,0.000,0
2026-01-31 00:15:28,1439174,6058.000,-121.000,453.000,7119.000,-2893.000,4827.000,0.000,0.000,0
2026-01-31 00:15:28,1439214,6530.000,1332.000,551.000,9876.000,-2291.000,4187.000,0.000,0.000,0
2026-01-31 00:15:28,1439254,6967.000,2776.000,1251.000,9445.000,-1741.000,4023.000,0.000,0.000,0
2026-01-31 00:15:28,1439294,7455.000,4056.000,2202.000,4074.000,-1592.000,4318.000,0.000,0.000,0
2026-01-31 00:15:28,1439334,8164.000,3711.000,2204.000,-1132.000,-2243.000,3919.000,0.000,0.000,0
2026-01-31 00:15:28,1439374,9429.000,2869.000,1588.000,-4668.000,-2383.000,2593.000,0.000,0.000,0
2026-01-31 00:15:28,1439414,9619.000,1568.000,611.000,-4583.000,-1495.000,399.000,0.000,0.000,0
2026-01-31 00:15:28,1439454,11287.000,1323.000,527.000,-3080.000,-691.000,-1997.000,0.000,0.000,0
2026-01-31 00:15:28,1439494,11677.000,1480.000,1166.000,-1781.000,346.000,-4118.000,0.000,0.000,0
2026-01-31 00:15:28,1439534,10892.000,2144.000,1217.000,-2111.000,1782.000,-5491.000,0.000,0.000,0
2026-01-31 00:15:28,1439574,13266.000,2177.000,-368.000,-4952.000,2440.000,-6314.000,0.000,0.000,0
2026-01-31 00:15:28,1439614,13304.000,1057.000,-1213.000,-8817.000,4978.000,-6945.000,0.000,0.000,0
2026-01-31 00:15:28,1439654,11226.000,416.000,-831.000,-10984.000,6724.000,-7432.000,0.000,0.000,0
2026-01-31 00:15:28,1439694,7581.000,-499.000,-578.000,-9389.000,7195.000,-7949.000,0.000,0.000,0
2026-01-31 00:15:28,1439734,6499.000,-462.000,-560.000,-4763.000,6655.000,-8453.000,0.000,0.000,0
2026-01-31 00:15:28,1439774,5824.000,208.000,-566.000,-1377.000,5802.000,-8194.000,0.000,0.000,0
2026-01-31 00:15:29,1439814,5449.000,622.000,-595.000,77.000,5040.000,-6942.000,2.515,0.000,1
2026-01-31 00:15:29,1439854,5308.000,409.000,-896.000,904.000,4305.000,-4878.000,2.515,0.000,1
2026-01-31 00:15:29,1439894,5774.000,690.000,-900.000,2487.000,3221.000,-2234.000,2.515,0.000,1
2026-01-31 00:15:29,1439934,7296.000,1301.000,-502.000,3599.000,1823.000,866.000,0.000,0.000,0
2026-01-31 00:15:29,1439974,7529.000,993.000,-261.000,3876.000,533.000,3491.000,0.000,0.000,0
2026-01-31 00:15:29,1440014,9082.000,1165.000,127.000,3748.000,-1889.000,5913.000,0.000,0.000,0
2026-01-31 00:15:29,1440054,11022.000,2005.000,2096.000,2003.000,-5667.000,10913.000,0.000,0.000,0
2026-01-31 00:15:29,1440094,10794.000,1634.000,2509.000,-2696.000,-7756.000,13097.000,0.000,0.000,0
2026-01-31 00:15:29,1440134,11373.000,446.000,1876.000,-3519.000,-8916.000,12214.000,0.000,0.000,0
2026-01-31 00:15:29,1440174,10708.000,-540.000,632.000,-1521.000,-6419.000,8802.000,0.000,0.000,0
2026-01-31 00:15:29,1440214,7636.000,-1450.000,512.000,2987.000,-4610.000,5426.000,0.000,0.000,0
2026-01-31 00:15:29,1440254,6735.000,-651.000,349.000,7355.000,-2730.000,2506.000,0.000,0.000,0
2026-01-31 00:15:29,1440294,5861.000,1001.000,779.000,10347.000,-1762.000,1488.000,0.000,0.000,0
2026-01-31 00:15:29,1440334,6058.000,2209.000,924.000,10802.000,-988.000,1133.000,0.000,0.000,0
2026-01-31 00:15:29,1440374,6155.000,2911.000,1767.000,9057.000,-550.000,1291.000,0.000,0.000,0
2026-01-31 00:15:29,1440414,6582.000,3006.000,2018.000,5174.000,-796.000,1830.000,0.000,0.000,0
2026-01-31 00:15:29,1440454,8591.000,2595.000,1452.000,-506.000,-1815.000,2134.000,0.000,0.000,0
2026-01-31 00:15:29,1440494,9259.000,2324.000,1364.000,-2897.000,-1741.000,1663.000,0.000,0.000,0
2026-01-31 00:15:29,1440534,9400.000,1580.000,835.000,-3243.000,-1297.000,166.000,0.000,0.000,0
2026-01-31 00:15:29,1440574,11114.000,1110.000,507.000,-2530.000,-1132.000,-1903.000,0.000,0.000,0
2026-01-31 00:15:29,1440614,12277.000,1844.000,1125.000,-2808.000,-305.000,-3473.000,0.000,0.000,0
2026-01-31 00:15:29,1440654,11269.000,2245.000,1259.000,-4281.000,1126.000,-4394.000,0.000,0.000,0
2026-01-31 00:15:29,1440694,13735.000,1647.000,-99.000,-7552.000,1890.000,-5554.000,0.000,0.000,0
2026-01-31 00:15:29,1440734,13715.000,443.000,-1129.000,-10306.000,5029.000,-6999.000,0.000,0.000,0
2026-01-31 00:15:29,1440774,11010.000,-101.000,-896.000,-10738.000,7524.000,-7962.000,0.000,0.000,0
2026-01-31 00:15:30,1440814,7191.000,-1069.000,-209.000,-8764.000,8336.000,-8622.000,2.582,0.000,1
2026-01-31 00:15:30,1440854,5835.000,-672.000,-283.000,-3683.000,7799.000,-8822.000,2.582,0.000,1
2026-01-31 00:15:30,1440894,5458.000,-41.000,-321.000,-577.000,6652.000,-8098.000,2.582,0.000,1
