datetime_local,uptime_ms,acc_x,acc_y,acc_z,gyro_x,gyro_y,gyro_z,speed_mps,turn_rate_deg_s,gps_valid
2026-01-30 23:29:18,1782534,957.000,-3255.000,7623.000,-572.000,-135.000,-191.000,0.000,0.000,0
2026-01-30 23:29:18,1782574,1190.000,-2935.000,7971.000,353.000,-215.000,-470.000,0.000,0.000,0
2026-01-30 23:29:18,1782614,1133.000,-2822.000,7810.000,355.000,-1.000,-390.000,0.000,0.000,0
2026-01-30 23:29:18,1782654,1128.000,-2897.000,7866.000,233.000,121.000,-180.000,0.000,0.000,0
2026-01-30 23:29:18,1782694,1186.000,-2505.000,7851.000,236.000,5.000,-44.000,0.000,0.000,0
2026-01-30 23:29:18,1782734,1097.000,-2752.000,7883.000,72.000,-43.000,-50.000,0.000,0.000,0
2026-01-30 23:29:18,1782774,1092.000,-2854.000,7821.000,-105.000,-62.000,-57.000,0.000,0.000,0
2026-01-30 23:29:18,1782814,1082.000,-2897.000,7916.000,-172.000,-139.000,-35.000,0.000,0.000,0
2026-01-30 23:29:18,1782854,1142.000,-2728.000,7774.000,23.000,-134.000,-68.000,0.000,0.000,0
2026-01-30 23:29:18,1782894,1075.000,-2795.000,7943.000,32.000,-75.000,2.000,0.000,0.000,0
2026-01-30 23:29:18,1782934,1159.000,-2819.000,7795.000,-191.000,5.000,-34.000,0.000,0.000,0
2026-01-30 23:29:18,1782974,1173.000,-2800.000,7874.000,-27.000,15.000,-9.000,0.000,0.000,0
2026-01-30 23:29:18,1783014,1016.000,-2948.000,7951.000,31.000,212.000,142.000,0.000,0.000,0
2026-01-30 23:29:18,1783054,1018.000,-2907.000,8031.000,257.000,7.000,54.000,0.000,0.000,0
2026-01-30 23:29:18,1783094,1036.000,-2939.000,8001.000,766.000,-133.000,-53.000,0.000,0.000,0
2026-01-30 23:29:18,1783134,1076.000,-2800.000,8000.000,857.000,-424.000,-70.000,0.000,0.000,0
2026-01-30 23:29:18,1783174,1157.000,-2727.000,7874.000,857.000,-480.000,-152.000,0.000,0.000,0
2026-01-30 23:29:19,1783214,1191.000,-2416.000,7885.000,231.000,-121.000,168.000,0.000,0.000,0
2026-01-30 23:29:19,1783254,1368.000,-2390.000,7984.000,-316.000,11.000,303.000,0.000,0.000,0
2026-01-30 23:29:19,1783294,987.000,-2669.000,7936.000,-751.000,223.000,401.000,0.000,0.000,0
2026-01-30 23:29:19,1783334,1142.000,-2830.000,7858.000,-334.000,29.000,43.000,0.000,0.000,0
2026-01-30 23:29:19,1783374,1168.000,-2699.000,7946.000,190.000,55.000,-120.000,0.000,0.000,0
2026-01-30 23:29:19,1783414,1174.000,-2610.000,7936.000,172.000,29.000,-130.000,0.000,0.000,0
2026-01-30 23:29:19,1783454,1139.000,-2678.000,7979.000,-103.000,-19.000,-35.000,0.000,0.000,0
2026-01-30 23:29:19,1783495,1186.000,-2642.000,7882.000,-39.000,-53.000,-35.000,0.000,0.000,0
2026-01-30 23:29:19,1783535,1166.000,-2602.000,7989.000,-8.000,-42.000,-54.000,0.000,0.000,0
2026-01-30 23:29:19,1783582,1259.000,-2584.000,7992.000,-99.000,-19.000,-66.000,0.000,0.000,0
2026-01-30 23:29:19,1783614,1308.000,-2635.000,7904.000,-218.000,22.000,-47.000,0.000,0.000,0
2026-01-30 23:29:19,1783664,1139.000,-2694.000,7908.000,-136.000,118.000,2.000,0.000,0.000,0
2026-01-30 23:29:19,1783694,1214.000,-2617.000,7990.000,-49.000,134.000,-26.000,0.000,0.000,0
2026-01-30 23:29:19,1783734,1009.000,-2710.000,7897.000,-92.000,51.000,59.000,0.000,0.000,0
2026-01-30 23:29:19,1783774,1244.000,-2650.000,7872.000,-276.000,-117.000,81.000,0.000,0.000,0
2026-01-30 23:29:19,1783814,1286.000,-2675.000,7639.000,-52.000,-39.000,83.000,0.000,0.000,0
2026-01-30 23:29:19,1783854,1288.000,-2631.000,7342.000,336.000,18.000,176.000,0.000,0.000,0
2026-01-30 23:29:19,1783894,1837.000,-2238.000,6898.000,599.000,-224.000,726.000,0.000,0.000,0
2026-01-30 23:29:19,1783934,2742.000,-3283.000,5852.000,866.000,-664.000,2278.000,0.000,0.000,0
2026-01-30 23:29:19,1783974,2788.000,-1931.000,5319.000,4986.000,-429.000,3376.000,0.000,0.000,0
2026-01-30 23:29:19,1784014,3326.000,-702.000,6447.000,5375.000,-1591.000,4202.000,0.000,0.000,0
2026-01-30 23:29:19,1784054,2737.000,-772.000,6087.000,5212.000,-2652.000,6064.000,0.000,0.000,0
2026-01-30 23:29:19,1784094,2725.000,-749.000,5947.000,5694.000,-3320.000,8149.000,0.000,0.000,0
2026-01-30 23:29:19,1784134,2884.000,-1066.000,5881.000,7891.000,-3555.000,10382.000,0.000,0.000,0
2026-01-30 23:29:19,1784174,4288.000,2542.000,7783.000,11096.000,-3677.000,12737.000,0.000,0.000,0
2026-01-30 23:29:20,1784214,3933.000,1534.000,7801.000,9312.000,-2595.000,15162.000,0.000,0.000,0
2026-01-30 23:29:20,1784257,4321.000,3527.000,8070.000,9388.000,-1912.000,16110.000,0.000,0.000,0
2026-01-30 23:29:20,1784297,2966.000,1580.000,8024.000,7723.000,-1984.000,15372.000,0.000,0.000,0
2026-01-30 23:29:20,1784334,4373.000,3555.000,8165.000,8269.000,-2195.000,13758.000,0.000,0.000,0
2026-01-30 23:29:20,1784374,2916.000,1076.000,8454.000,6188.000,-1398.000,12100.000,0.000,0.000,0
2026-01-30 23:29:20,1784414,5025.000,2489.000,9154.000,8167.000,-1593.000,11231.000,0.000,0.000,0
2026-01-30 23:29:20,1784454,3643.000,1117.000,7432.000,7553.000,-1205.000,10365.000,0.000,0.000,0
2026-01-30 23:29:20,1784494,4842.000,3265.000,7148.000,7624.000,-1479.000,9544.000,0.000,0.000,0
2026-01-30 23:29:20,1784534,3268.000,3136.000,6461.000,6913.000,-1905.000,7328.000,0.000,0.000,0
2026-01-30 23:29:20,1784574,4255.000,4877.000,6407.000,5521.000,-2457.000,4938.000,0.000,0.000,0
2026-01-30 23:29:20,1784614,5022.000,3330.000,6306.000,4043.000,-2882.000,2674.000,0.000,0.000,0
2026-01-30 23:29:20,1784654,6050.000,2380.000,5248.000,4541.000,-2352.000,579.000,0.000,0.000,0
2026-01-30 23:29:20,1784694,7212.000,3320.000,6763.000,4967.000,-702.000,-227.000,0.000,0.000,0
2026-01-30 23:29:20,1784734,12301.000,1162.000,8643.000,-1475.000,2576.000,-3027.000,0.000,0.000,0
2026-01-30 23:29:20,1784774,5644.000,4618.000,14769.000,613.000,3050.000,-3723.000,0.000,0.000,0
2026-01-30 23:29:20,1784814,4745.000,3290.000,10638.000,-1135.000,2150.000,-3762.000,0.000,0.000,0
2026-01-30 23:29:20,1784854,2406.000,-1368.000,7530.000,-1098.000,2124.000,-3734.000,0.000,0.000,0
2026-01-30 23:29:20,1784894,3363.000,2799.000,8059.000,-1923.000,1852.000,-3227.000,0.000,0.000,0
2026-01-30 23:29:20,1784934,2771.000,2466.000,9286.000,-3516.000,2198.000,-2396.000,0.000,0.000,0
2026-01-30 23:29:20,1784974,3452.000,2603.000,7530.000,-1033.000,1541.000,-2263.000,0.000,0.000,0
2026-01-30 23:29:20,1785014,3385.000,3780.000,6708.000,-1296.000,202.000,-2471.000,0.000,0.000,0
2026-01-30 23:29:20,1785054,4166.000,3382.000,5753.000,-3943.000,-1331.000,-2846.000,0.000,0.000,0
2026-01-30 23:29:20,1785094,4503.000,3104.000,5517.000,-5206.000,-2965.000,-3679.000,0.000,0.000,0
2026-01-30 23:29:20,1785134,4771.000,3125.000,4473.000,-4488.000,-2794.000,-3701.000,0.000,0.000,0
2026-01-30 23:29:20,1785174,4487.000,3531.000,5544.000,-5070.000,-2331.000,-3247.000,0.000,0.000,0
2026-01-30 23:29:21,1785214,5558.000,2140.000,7042.000,-7764.000,-1546.000,-1999.000,0.000,0.000,0
2026-01-30 23:29:21,1785254,3575.000,2350.000,5096.000,-1832.000,-652.000,-1198.000,0.000,0.000,0
2026-01-30 23:29:21,1785294,5505.000,2074.000,5770.000,-3742.000,-569.000,-631.000,0.000,0.000,0
2026-01-30 23:29:21,1785334,4874.000,83.000,6049.000,-3022.000,264.000,-20.000,0.000,0.000,0
2026-01-30 23:29:21,1785374,4372.000,-1166.000,6584.000,-1723.000,952.000,-124.000,0.000,0.000,0
2026-01-30 23:29:21,1785414,3929.000,-546.000,6323.000,-91.000,944.000,-273.000,0.000,0.000,0
2026-01-30 23:29:21,1785454,4326.000,-590.000,7867.000,-886.000,1077.000,-575.000,0.000,0.000,0
2026-01-30 23:29:21,1785494,3915.000,-1377.000,8115.000,131.000,651.000,-324.000,0.000,0.000,0
2026-01-30 23:29:21,1785534,3754.000,-946.000,6285.000,812.000,430.000,-561.000,0.000,0.000,0
2026-01-30 23:29:21,1785574,4248.000,287.000,7880.000,-433.000,-219.000,-337.000,0.000,0.000,0
2026-01-30 23:29:21,1785614,4149.000,-759.000,5930.000,-797.000,-761.000,9.000,0.000,0.000,0
2026-01-30 23:29:21,1785654,5008.000,-751.000,4948.000,-488.000,-2067.000,33.000,0.000,0.000,0
2026-01-30 23:29:21,1785694,7440.000,2634.000,6772.000,889.000,-4129.000,-547.000,0.000,0.000,0
2026-01-30 23:29:21,1785734,6816.000,1701.000,6772.000,695.000,-4292.000,-838.000,0.000,0.000,0
2026-01-30 23:29:21,1785774,9800.000,-264.000,5302.000,3078.000,-4757.000,-1062.000,0.000,0.000,0
2026-01-30 23:29:21,1785814,10262.000,-35.000,3063.000,4433.000,-1169.000,12.000,0.000,0.000,0
2026-01-30 23:29:21,1785854,6717.000,813.000,3751.000,8240.000,3357.000,2840.000,0.000,0.000,0
2026-01-30 23:29:21,1785894,5071.000,2124.000,4187.000,12340.000,3754.000,5306.000,0.000,0.000,0
2026-01-30 23:29:21,1785934,3610.000,2015.000,3226.000,13144.000,3087.000,7262.000,0.000,0.000,0
2026-01-30 23:29:21,1785974,2669.000,1098.000,885.000,13502.000,1817.000,8772.000,0.000,0.000,0
2026-01-30 23:29:21,1786014,3079.000,3352.000,459.000,11769.000,707.000,9486.000,0.000,0.000,0
2026-01-30 23:29:21,1786054,4237.000,4436.000,984.000,7263.000,-300.000,10412.000,0.000,0.000,0
2026-01-30 23:29:21,1786094,5027.000,4247.000,2098.000,6008.000,-1934.000,11289.000,0.000,0.000,0
2026-01-30 23:29:21,1786134,8217.000,5392.000,4319.000,6913.000,-4129.000,10563.000,0.000,0.000,0
2026-01-30 23:29:21,1786174,8039.000,5041.000,4438.000,8385.000,-4696.000,7657.000,0.000,0.000,0
2026-01-30 23:29:22,1786217,10067.000,6136.000,6091.000,6280.000,-4676.000,3102.000,0.000,0.000,0
2026-01-30 23:29:22,1786257,10398.000,5288.000,5890.000,2556.000,-3259.000,1671.000,0.000,0.000,0
2026-01-30 23:29:22,1786294,10425.000,5294.000,6475.000,2292.000,-2771.000,1338.000,0.000,0.000,0
2026-01-30 23:29:22,1786334,9695.000,4835.000,6965.000,851.000,-1673.000,576.000,0.000,0.000,0
2026-01-30 23:29:22,1786374,9145.000,4977.000,4804.000,-3139.000,-171.000,-492.000,0.000,0.000,0
2026-01-30 23:29:22,1786414,9449.000,4285.000,3380.000,-7563.000,1739.000,-851.000,0.000,0.000,0
2026-01-30 23:29:22,1786454,9223.000,2560.000,2705.000,-9974.000,3182.000,-844.000,0.000,0.000,0
2026-01-30 23:29:22,1786494,7891.000,1794.000,2364.000,-8627.000,3798.000,-1253.000,0.000,0.000,0
2026-01-30 23:29:22,1786537,6063.000,1032.000,1808.000,-5826.000,3998.000,-3058.000,0.000,0.000,0
2026-01-30 23:29:22,1786574,5701.000,1126.000,1650.000,-4809.000,4031.000,-3516.000,0.000,0.000,0
2026-01-30 23:29:22,1786614,5782.000,1299.000,1033.000,-3739.000,3911.000,-3392.000,0.000,0.000,0
2026-01-30 23:29:22,1786654,5776.000,1066.000,608.000,-3037.000,3534.000,-2807.000,0.000,0.000,0
2026-01-30 23:29:22,1786694,6174.000,845.000,360.000,-1866.000,2602.000,-2281.000,0.000,0.000,0
2026-01-30 23:29:22,1786734,7293.000,422.000,653.000,-37.000,1008.000,-1943.000,0.000,0.000,0
2026-01-30 23:29:22,1786774,8030.000,608.000,1347.000,1518.000,-872.000,-1114.000,0.000,0.000,0
2026-01-30 23:29:22,1786814,9210.000,-76.000,2266.000,1213.000,-2843.000,-253.000,0.000,0.000,0
2026-01-30 23:29:22,1786854,9779.000,-3293.000,466.000,1830.000,-4403.000,940.000,0.000,0.000,0
2026-01-30 23:29:22,1786894,9668.000,-1876.000,117.000,6725.000,-5316.000,2207.000,0.000,0.000,0
2026-01-30 23:29:22,1786934,10086.000,285.000,1702.000,8055.000,-5486.000,4143.000,0.000,0.000,0
2026-01-30 23:29:22,1786974,10688.000,-246.000,1996.000,5014.000,-5153.000,5394.000,0.000,0.000,0
2026-01-30 23:29:22,1787014,8961.000,-441.000,649.000,3480.000,-2824.000,4292.000,0.000,0.000,0
2026-01-30 23:29:22,1787054,7719.000,-726.000,951.000,5884.000,-2313.000,3310.000,0.000,0.000,0
2026-01-30 23:29:22,1787094,6849.000,1265.000,1397.000,7668.000,-1424.000,2229.000,0.000,0.000,0
2026-01-30 23:29:22,1787134,5505.000,1942.000,765.000,6386.000,-294.000,2713.000,0.000,0.000,0
2026-01-30 23:29:22,1787174,5205.000,2375.000,707.000,4884.000,-838.000,3854.000,0.000,0.000,0
2026-01-30 23:29:23,1787214,6046.000,1531.000,496.000,3875.000,-1432.000,4207.000,0.000,0.000,0
2026-01-30 23:29:23,1787254,8022.000,2013.000,1175.000,4608.000,-2797.000,4980.000,0.000,0.000,0
2026-01-30 23:29:23,1787294,8332.000,2569.000,2843.000,5617.000,-3487.000,4612.000,0.000,0.000,0
2026-01-30 23:29:23,1787334,8951.000,2319.000,2679.000,4689.000,-4280.000,3460.000,0.000,0.000,0
2026-01-30 23:29:23,1787374,10599.000,3471.000,1708.000,2633.000,-4126.000,1738.000,0.000,0.000,0
2026-01-30 23:29:23,1787414,11610.000,3063.000,1551.000,-1376.000,-2067.000,451.000,0.000,0.000,0
2026-01-30 23:29:23,1787454,12787.000,2345.000,2607.000,-3341.000,-569.000,-1300.000,0.000,0.000,0
2026-01-30 23:29:23,1787494,11590.000,1954.000,2338.000,-5565.000,1483.000,-2935.000,0.000,0.000,0
2026-01-30 23:29:23,1787534,13157.000,1483.000,768.000,-7448.000,2802.000,-4180.000,0.000,0.000,0
2026-01-30 23:29:23,1787574,12121.000,1228.000,-46.000,-10314.000,5881.000,-4492.000,0.000,0.000,0
2026-01-30 23:29:23,1787614,10251.000,474.000,19.000,-13315.000,7892.000,-4155.000,0.000,0.000,0
2026-01-30 23:29:23,1787654,7496.000,160.000,610.000,-12107.000,9128.000,-4333.000,0.000,0.000,0
2026-01-30 23:29:23,1787694,6628.000,-553.000,-174.000,-9448.000,8882.000,-4616.000,0.000,0.000,0
2026-01-30 23:29:23,1787734,5623.000,31.000,-654.000,-5456.000,8357.000,-4799.000,0.000,0.000,0
2026-01-30 23:29:23,1787774,5182.000,393.000,-1008.000,-1754.000,6959.000,-4607.000,0.000,0.000,0
2026-01-30 23:29:23,1787814,5768.000,687.000,-762.000,-39.000,5693.000,-3945.000,0.000,0.000,0
2026-01-30 23:29:23,1787854,7052.000,1685.000,-54.000,738.000,3624.000,-2429.000,0.000,0.000,0
2026-01-30 23:29:23,1787894,7900.000,1047.000,195.000,-800.000,1211.000,-677.000,0.000,0.000,0
2026-01-30 23:29:23,1787934,8310.000,138.000,1556.000,-1096.000,-1175.000,-37.000,0.000,0.000,0
2026-01-30 23:29:23,1787974,9503.000,-748.000,663.000,-1483.000,-3206.000,300.000,0.000,0.000,0
2026-01-30 23:29:23,1788014,9376.000,-2113.000,147.000,1351.000,-4022.000,1131.000,0.000,0.000,0
2026-01-30 23:29:23,1788054,9835.000,-2135.000,997.000,4064.000,-4531.000,2167.000,0.000,0.000,0
2026-01-30 23:29:23,1788094,10888.000,-1256.000,1502.000,5973.000,-5098.000,3476.000,0.000,0.000,0
2026-01-30 23:29:23,1788134,9385.000,-991.000,1667.000,5920.000,-5102.000,4182.000,0.000,0.000,0
2026-01-30 23:29:23,1788174,6712.000,-270.000,1843.000,7090.000,-4437.000,3801.000,0.000,0.000,0
2026-01-30 23:29:24,1788217,5120.000,225.000,1423.000,8966.000,-4432.000,3606.000,0.000,0.000,0
2026-01-30 23:29:24,1788254,5409.000,909.000,899.000,9679.000,-4332.000,3732.000,0.000,0.000,0
2026-01-30 23:29:24,1788294,5877.000,1446.000,590.000,9698.000,-3317.000,4661.000,0.000,0.000,0
2026-01-30 23:29:24,1788334,7138.000,2340.000,985.000,8617.000,-3561.000,5832.000,0.000,0.000,0
2026-01-30 23:29:24,1788374,9170.000,3240.000,1424.000,6109.000,-3563.000,7168.000,0.000,0.000,0
2026-01-30 23:29:24,1788414,10741.000,3201.000,2673.000,1338.000,-4093.000,7335.000,0.000,0.000,0
2026-01-30 23:29:24,1788454,11176.000,3190.000,2945.000,-1908.000,-4431.000,6000.000,0.000,0.000,0
2026-01-30 23:29:24,1788494,11754.000,2506.000,1786.000,-4155.000,-3657.000,2768.000,0.000,0.000,0
2026-01-30 23:29:24,1788537,10728.000,998.000,2403.000,-3785.000,2143.000,-3302.000,0.000,0.000,0
2026-01-30 23:29:24,1788574,11373.000,1082.000,1607.000,-3419.000,2852.000,-4333.000,0.000,0.000,0
2026-01-30 23:29:24,1788614,13085.000,1643.000,234.000,-4070.000,5230.000,-5555.000,0.000,0.000,0
2026-01-30 23:29:24,1788654,12939.000,1293.000,-727.000,-6583.000,8034.000,-5906.000,0.000,0.000,0
2026-01-30 23:29:24,1788694,10311.000,695.000,-364.000,-9337.000,10007.000,-5823.000,0.000,0.000,0
2026-01-30 23:29:24,1788734,6378.000,328.000,992.000,-10532.000,9571.000,-6355.000,0.000,0.000,0
2026-01-30 23:29:24,1788774,6270.000,-64.000,154.000,-9654.000,7778.000,-6506.000,0.000,0.000,0
2026-01-30 23:29:24,1788814,5238.000,18.000,-398.000,-6743.000,6881.000,-6260.000,0.000,0.000,0
2026-01-30 23:29:24,1788854,5533.000,227.000,-541.000,-3868.000,5835.000,-5496.000,0.000,0.000,0
2026-01-30 23:29:24,1788894,6373.000,759.000,-784.000,-1842.000,5167.000,-3906.000,0.000,0.000,0
2026-01-30 23:29:24,1788934,7059.000,702.000,-1021.000,-335.000,3596.000,-659.000,0.000,0.000,0
2026-01-30 23:29:24,1788974,6833.000,-676.000,-993.000,748.000,1689.000,1315.000,0.000,0.000,0
2026-01-30 23:29:24,1789014,7709.000,-901.000,377.000,2308.000,-1713.000,2515.000,0.000,0.000,0
2026-01-30 23:29:24,1789054,10440.000,-1499.000,603.000,2742.000,-5297.000,3719.000,0.000,0.000,0
2026-01-30 23:29:24,1789094,11077.000,-1166.000,321.000,2526.000,-7546.000,5105.000,0.000,0.000,0
2026-01-30 23:29:24,1789134,11075.000,-1166.000,480.000,1490.000,-8492.000,5740.000,0.000,0.000,0
2026-01-30 23:29:24,1789174,11617.000,-1584.000,-305.000,1642.000,-8353.000,4753.000,0.000,0.000,0
2026-01-30 23:29:25,1789214,10740.000,-1486.000,-997.000,3329.000,-6735.000,3338.000,0.000,0.000,0
2026-01-30 23:29:25,1789254,8294.000,-2718.000,-293.000,11189.000,-4864.000,1560.000,0.000,0.000,0
2026-01-30 23:29:25,1789294,6774.000,3333.000,1020.000,23329.000,-3249.000,946.000,0.000,0.000,0
2026-01-30 23:29:25,1789334,4936.000,3854.000,1018.000,18887.000,-1817.000,2616.000,0.000,0.000,0
2026-01-30 23:29:25,1789374,5409.000,4285.000,427.000,10025.000,-1175.000,3602.000,0.000,0.000,0
2026-01-30 23:29:25,1789414,7880.000,4415.000,879.000,3764.000,-999.000,4933.000,0.000,0.000,0
2026-01-30 23:29:25,1789454,8315.000,2896.000,1117.000,889.000,68.000,6125.000,0.000,0.000,0
2026-01-30 23:29:25,1789494,10429.000,3553.000,2601.000,1710.000,-905.000,5340.000,0.000,0.000,0
2026-01-30 23:29:25,1789534,9655.000,3942.000,2906.000,595.000,-128.000,3744.000,0.000,0.000,0
2026-01-30 23:29:25,1789574,10704.000,4431.000,1586.000,-4657.000,-854.000,390.000,0.000,0.000,0
2026-01-30 23:29:25,1789614,13224.000,3490.000,1685.000,-11101.000,-259.000,-2287.000,0.000,0.000,0
2026-01-30 23:29:25,1789654,12058.000,1894.000,834.000,-14967.000,2130.000,-3451.000,0.000,0.000,0
2026-01-30 23:29:25,1789694,14523.000,78.000,-1714.000,-14917.000,5610.000,-4721.000,0.000,0.000,0
2026-01-30 23:29:25,1789734,14435.000,763.000,-2059.000,-12707.000,9337.000,-5062.000,0.000,0.000,0
2026-01-30 23:29:25,1789774,11297.000,-398.000,-839.000,-14283.000,11806.000,-4638.000,0.000,0.000,0
2026-01-30 23:29:25,1789814,7871.000,-480.000,233.000,-11963.000,11246.000,-4679.000,0.000,0.000,0
2026-01-30 23:29:25,1789854,5859.000,-428.000,-115.000,-7768.000,9664.000,-5088.000,0.000,0.000,0
2026-01-30 23:29:25,1789894,4951.000,-126.000,-292.000,-3281.000,8099.000,-5499.000,0.000,0.000,0
2026-01-30 23:29:25,1789934,4939.000,-97.000,-379.000,-175.000,6953.000,-5194.000,0.000,0.000,0
2026-01-30 23:29:25,1789974,5097.000,203.000,-752.000,2372.000,6065.000,-4487.000,0.000,0.000,0
2026-01-30 23:29:25,1790014,5736.000,642.000,-867.000,3528.000,5131.000,-3081.000,0.000,0.000,0
2026-01-30 23:29:25,1790054,6345.000,897.000,-379.000,4292.000,2928.000,-432.000,0.000,0.000,0
2026-01-30 23:29:25,1790094,6252.000,457.000,679.000,4508.000,506.000,1079.000,0.000,0.000,0
2026-01-30 23:29:25,1790134,8491.000,984.000,1747.000,4090.000,-3104.000,3104.000,0.000,0.000,0
2026-01-30 23:29:25,1790174,9672.000,562.000,2481.000,1331.000,-6498.000,5976.000,0.000,0.000,0
2026-01-30 23:29:26,1790214,9919.000,-1123.000,3036.000,-1097.000,-9257.000,7949.000,0.000,0.000,0
2026-01-30 23:29:26,1790254,12170.000,-2430.000,1083.000,475.000,-11113.000,8144.000,0.000,0.000,0
2026-01-30 23:29:26,1790294,12375.000,-1741.000,798.000,6527.000,-9410.000,7267.000,0.000,0.000,0
2026-01-30 23:29:26,1790334,10454.000,-320.000,1079.000,11750.000,-6915.000,6320.000,0.000,0.000,0
2026-01-30 23:29:26,1790374,7816.000,1145.000,2104.000,12803.000,-5036.000,5493.000,0.000,0.000,0
2026-01-30 23:29:26,1790414,6297.000,2602.000,1179.000,12217.000,-3976.000,5132.000,0.000,0.000,0
2026-01-30 23:29:26,1790454,6696.000,3186.000,1037.000,9196.000,-2706.000,5140.000,0.000,0.000,0
2026-01-30 23:29:26,1790494,7511.000,2661.000,1031.000,5627.000,-2228.000,4968.000,0.000,0.000,0
2026-01-30 23:29:26,1790537,9035.000,2844.000,2065.000,5354.000,-2309.000,4007.000,0.000,0.000,0
2026-01-30 23:29:26,1790574,8933.000,3188.000,2880.000,5172.000,-2437.000,3409.000,0.000,0.000,0
2026-01-30 23:29:26,1790614,9514.000,4091.000,3552.000,2363.000,-2852.000,1663.000,0.000,0.000,0
2026-01-30 23:29:26,1790654,10658.000,3442.000,2099.000,-1501.000,-2147.000,-500.000,0.000,0.000,0
2026-01-30 23:29:26,1790694,12624.000,3259.000,1681.000,-3611.000,-848.000,-2459.000,0.000,0.000,0
2026-01-30 23:29:26,1790734,12730.000,2395.000,2730.000,-6515.000,1381.000,-3912.000,0.000,0.000,0
2026-01-30 23:29:26,1790774,11678.000,1870.000,2169.000,-9763.000,2815.000,-5399.000,0.000,0.000,0
2026-01-30 23:29:26,1790814,14867.000,1698.000,-203.000,-14052.000,5986.000,-6514.000,0.000,0.000,0
2026-01-30 23:29:26,1790854,14038.000,217.000,-1633.000,-15804.000,9744.000,-6305.000,0.000,0.000,0
2026-01-30 23:29:26,1790894,10488.000,-974.000,-728.000,-13453.000,12098.000,-6010.000,0.000,0.000,0
2026-01-30 23:29:26,1790934,7420.000,-832.000,-45.000,-7742.000,11660.000,-6329.000,0.000,0.000,0
2026-01-30 23:29:26,1790974,5982.000,-242.000,-254.000,-3496.000,10190.000,-6894.000,0.000,0.000,0
2026-01-30 23:29:26,1791014,4848.000,67.000,-420.000,-653.000,8639.000,-6934.000,0.000,0.000,0
2026-01-30 23:29:26,1791054,4634.000,197.000,-662.000,1140.000,6936.000,-6234.000,0.000,0.000,0
2026-01-30 23:29:26,1791094,4807.000,733.000,-570.000,2511.000,5033.000,-4700.000,0.000,0.000,0
2026-01-30 23:29:26,1791134,5216.000,933.000,-171.000,2755.000,2832.000,-2422.000,0.000,0.000,0
2026-01-30 23:29:26,1791174,5807.000,940.000,638.000,2172.000,383.000,370.000,0.000,0.000,0
2026-01-30 23:29:27,1791214,7424.000,758.000,1548.000,-90.000,-3908.000,3876.000,0.000,0.000,0
2026-01-30 23:29:27,1791254,9198.000,382.000,1680.000,-2030.000,-6831.000,6150.000,0.000,0.000,0
2026-01-30 23:29:27,1791294,10112.000,-482.000,1900.000,-2093.000,-9272.000,7976.000,0.000,0.000,0
2026-01-30 23:29:27,1791334,11915.000,-1379.000,1080.000,845.000,-11037.000,8443.000,0.000,0.000,0
2026-01-30 23:29:27,1791374,12863.000,-1079.000,367.000,4545.000,-10515.000,7394.000,0.000,0.000,0
2026-01-30 23:29:27,1791414,10910.000,-510.000,905.000,5652.000,-7938.000,5944.000,0.000,0.000,0
2026-01-30 23:29:27,1791454,7955.000,301.000,2129.000,7371.000,-6670.000,4358.000,0.000,0.000,0
2026-01-30 23:29:27,1791494,6951.000,480.000,2054.000,7841.000,-5719.000,3811.000,0.000,0.000,0
2026-01-30 23:29:27,1791534,6104.000,1150.000,1254.000,9244.000,-4544.000,3721.000,0.000,0.000,0
2026-01-30 23:29:27,1791574,8078.000,2359.000,1736.000,8888.000,-4095.000,4045.000,0.000,0.000,0
2026-01-30 23:29:27,1791614,8444.000,2638.000,2644.000,5745.000,-3576.000,4607.000,0.000,0.000,0
2026-01-30 23:29:27,1791654,9048.000,2497.000,3436.000,3930.000,-3772.000,4371.000,0.000,0.000,0
2026-01-30 23:29:27,1791694,10424.000,3710.000,4409.000,860.000,-3684.000,3109.000,0.000,0.000,0
2026-01-30 23:29:27,1791734,9959.000,3160.000,2634.000,-3666.000,-1729.000,990.000,0.000,0.000,0
2026-01-30 23:29:27,1791774,12097.000,1343.000,1369.000,-4588.000,-20.000,-1533.000,0.000,0.000,0
2026-01-30 23:29:27,1791814,12391.000,1856.000,2676.000,-4102.000,2796.000,-3159.000,0.000,0.000,0
2026-01-30 23:29:27,1791854,11669.000,1568.000,1792.000,-5411.000,4778.000,-4354.000,0.000,0.000,0
2026-01-30 23:29:27,1791894,14914.000,2305.000,609.000,-7701.000,5724.000,-5531.000,0.000,0.000,0
2026-01-30 23:29:27,1791934,15773.000,587.000,-1736.000,-11117.000,9320.000,-6461.000,0.000,0.000,0
2026-01-30 23:29:27,1791974,11591.000,242.000,-861.000,-11705.000,13354.000,-7245.000,0.000,0.000,0
2026-01-30 23:29:27,1792014,8647.000,-162.000,-183.000,-9782.000,12869.000,-7227.000,0.000,0.000,0
2026-01-30 23:29:27,1792054,6352.000,-167.000,-353.000,-6289.000,11554.000,-7412.000,0.000,0.000,0
2026-01-30 23:29:27,1792094,5074.000,-310.000,-370.000,-2866.000,9774.000,-7316.000,0.000,0.000,0
2026-01-30 23:29:27,1792134,4550.000,53.000,-522.000,206.000,7864.000,-6512.000,0.000,0.000,0
2026-01-30 23:29:27,1792174,4198.000,495.000,-491.000,2551.000,5877.000,-5187.000,0.000,0.000,0
2026-01-30 23:29:28,1792214,4573.000,727.000,-264.000,3228.000,3642.000,-2931.000,0.000,0.000,0
2026-01-30 23:29:28,1792254,5144.000,1269.000,197.000,3576.000,1383.000,-112.000,0.000,0.000,0
2026-01-30 23:29:28,1792294,5251.000,724.000,1157.000,2682.000,-997.000,2550.000,0.000,0.000,0
2026-01-30 23:29:28,1792334,8536.000,69.000,933.000,902.000,-5925.000,6257.000,0.000,0.000,0
2026-01-30 23:29:28,1792374,10010.000,-5943.000,-1221.000,4140.000,-8522.000,8180.000,0.000,0.000,0
2026-01-30 23:29:28,1792414,15375.000,1239.000,535.000,13978.000,-11004.000,10322.000,0.000,0.000,0
2026-01-30 23:29:28,1792454,14603.000,3861.000,3511.000,10103.000,-10562.000,14167.000,0.000,0.000,0
2026-01-30 23:29:28,1792494,12555.000,1522.000,831.000,451.000,-7348.000,12343.000,0.000,0.000,0
2026-01-30 23:29:28,1792537,8597.000,-987.000,1428.000,-2776.000,-6182.000,5266.000,0.000,0.000,0
2026-01-30 23:29:28,1792574,7784.000,-308.000,1718.000,251.000,-5628.000,3600.000,0.000,0.000,0
2026-01-30 23:29:28,1792614,6998.000,495.000,1556.000,6911.000,-4728.000,1963.000,0.000,0.000,0
2026-01-30 23:29:28,1792654,7308.000,1709.000,1677.000,9897.000,-4219.000,2707.000,0.000,0.000,0
2026-01-30 23:29:28,1792694,7743.000,3427.000,3497.000,7105.000,-3773.000,4259.000,0.000,0.000,0
2026-01-30 23:29:28,1792734,8562.000,3414.000,4383.000,-1320.000,-4153.000,5753.000,0.000,0.000,0
2026-01-30 23:29:28,1792774,10155.000,3683.000,4292.000,-6260.000,-3850.000,4640.000,0.000,0.000,0
2026-01-30 23:29:28,1792814,10449.000,845.000,2290.000,-8242.000,-1513.000,1758.000,0.000,0.000,0
2026-01-30 23:29:28,1792854,11430.000,161.000,1068.000,-3871.000,790.000,-1681.000,0.000,0.000,0
2026-01-30 23:29:28,1792894,12669.000,232.000,1423.000,-718.000,3363.000,-4150.000,0.000,0.000,0
2026-01-30 23:29:28,1792934,11543.000,647.000,2457.000,673.000,5803.000,-5788.000,0.000,0.000,0
2026-01-30 23:29:28,1792974,11915.000,1087.000,1009.000,-1084.000,6330.000,-7301.000,0.000,0.000,0
2026-01-30 23:29:28,1793014,14169.000,1667.000,-519.000,-4452.000,7524.000,-7801.000,0.000,0.000,0
2026-01-30 23:29:28,1793054,13183.000,1221.000,-1079.000,-8460.000,9444.000,-7086.000,0.000,0.000,0
2026-01-30 23:29:28,1793094,8254.000,715.000,582.000,-10574.000,9287.000,-5026.000,0.000,0.000,0
2026-01-30 23:29:28,1793134,6765.000,151.000,81.000,-9233.000,7713.000,-4986.000,0.000,0.000,0
2026-01-30 23:29:28,1793174,5864.000,347.000,-376.000,-6399.000,6590.000,-5223.000,0.000,0.000,0
2026-01-30 23:29:29,1793214,5589.000,252.000,-518.000,-4520.000,5961.000,-5103.000,0.000,0.000,0
2026-01-30 23:29:29,1793254,5700.000,111.000,-677.000,-2718.000,5532.000,-4480.000,0.000,0.000,0
2026-01-30 23:29:29,1793294,5431.000,84.000,-660.000,-605.000,4748.000,-3361.000,0.000,0.000,0
2026-01-30 23:29:29,1793334,5545.000,575.000,-571.000,1748.000,3381.000,-1933.000,0.000,0.000,0
2026-01-30 23:29:29,1793374,5813.000,332.000,-182.000,3734.000,1471.000,-269.000,0.000,0.000,0
2026-01-30 23:29:29,1793414,6721.000,637.000,825.000,5558.000,-1332.000,1392.000,0.000,0.000,0
2026-01-30 23:29:29,1793454,8173.000,901.000,2028.000,4656.000,-4559.000,3458.000,0.000,0.000,0
2026-01-30 23:29:29,1793494,10430.000,-92.000,1465.000,1739.000,-9006.000,6864.000,0.000,0.000,0
2026-01-30 23:29:29,1793534,12267.000,277.000,961.000,1146.000,-10799.000,8264.000,0.000,0.000,0
2026-01-30 23:29:29,1793574,12619.000,354.000,1607.000,-14.000,-10977.000,8109.000,0.000,0.000,0
2026-01-30 23:29:29,1793614,11253.000,214.000,882.000,-2996.000,-9210.000,6212.000,0.000,0.000,0
2026-01-30 23:29:29,1793654,7827.000,-634.000,944.000,-4087.000,-6574.000,3749.000,0.000,0.000,0
2026-01-30 23:29:29,1793694,6211.000,-2114.000,1044.000,891.000,-5321.000,1633.000,0.000,0.000,0
2026-01-30 23:29:29,1793734,6052.000,-544.000,900.000,8824.000,-4497.000,455.000,0.000,0.000,0
2026-01-30 23:29:29,1793774,6409.000,1421.000,1732.000,11764.000,-3980.000,825.000,0.000,0.000,0
2026-01-30 23:29:29,1793814,7197.000,2974.000,2894.000,7753.000,-3852.000,2499.000,0.000,0.000,0
2026-01-30 23:29:29,1793854,8637.000,1939.000,4199.000,-214.000,-4271.000,4338.000,0.000,0.000,0
2026-01-30 23:29:29,1793894,9956.000,1144.000,4369.000,-3584.000,-4092.000,3291.000,0.000,0.000,0
2026-01-30 23:29:29,1793934,10625.000,-216.000,2564.000,-4373.000,-2288.000,1506.000,0.000,0.000,0
2026-01-30 23:29:29,1793974,11719.000,-839.000,445.000,-2172.000,54.000,-478.000,0.000,0.000,0
2026-01-30 23:29:29,1794014,13179.000,-341.000,577.000,329.000,3085.000,-2264.000,0.000,0.000,0
2026-01-30 23:29:29,1794054,11211.000,189.000,1411.000,1446.000,7076.000,-3991.000,0.000,0.000,0
2026-01-30 23:29:29,1794094,11930.000,489.000,206.000,2227.000,8016.000,-5649.000,0.000,0.000,0
2026-01-30 23:29:29,1794134,13046.000,650.000,-352.000,1594.000,9291.000,-6576.000,0.000,0.000,0
2026-01-30 23:29:29,1794174,11570.000,920.000,-215.000,240.000,10280.000,-6646.000,0.000,0.000,0
2026-01-30 23:29:30,1794214,8755.000,1257.000,662.000,-1901.000,9530.000,-6091.000,0.000,0.000,0
2026-01-30 23:29:30,1794254,5978.000,436.000,583.000,-4612.000,7037.000,-5648.000,0.000,0.000,0
2026-01-30 23:29:30,1794294,5760.000,388.000,426.000,-4433.000,5685.000,-5489.000,0.000,0.000,0
2026-01-30 23:29:30,1794334,5850.000,49.000,492.000,-4172.000,5184.000,-5186.000,0.000,0.000,0
2026-01-30 23:29:30,1794374,5996.000,-23.000,-249.000,-2946.000,5029.000,-4384.000,0.000,0.000,0
2026-01-30 23:29:30,1794414,6094.000,-181.000,-527.000,-858.000,4279.000,-3155.000,0.000,0.000,0
2026-01-30 23:29:30,1794454,6301.000,-18.000,601.000,1038.000,2760.000,-1585.000,0.000,0.000,0
2026-01-30 23:29:30,1794494,6677.000,400.000,1043.000,1367.000,330.000,170.000,0.000,0.000,0
2026-01-30 23:29:30,1794537,8395.000,85.000,1616.000,1301.000,-4434.000,3684.000,0.000,0.000,0
2026-01-30 23:29:30,1794574,8748.000,-187.000,1297.000,1292.000,-5735.000,4764.000,0.000,0.000,0
2026-01-30 23:29:30,1794614,10008.000,506.000,853.000,3023.000,-8810.000,7829.000,0.000,0.000,0
2026-01-30 23:29:30,1794654,11838.000,656.000,2321.000,2705.000,-10523.000,8615.000,0.000,0.000,0
2026-01-30 23:29:30,1794694,12094.000,606.000,2168.000,-1108.000,-10666.000,7609.000,0.000,0.000,0
2026-01-30 23:29:30,1794734,9485.000,431.000,788.000,-4047.000,-8648.000,5512.000,0.000,0.000,0
2026-01-30 23:29:30,1794774,7104.000,-1222.000,796.000,-2048.000,-6123.000,3272.000,0.000,0.000,0
2026-01-30 23:29:30,1794814,5735.000,-1207.000,909.000,2996.000,-4568.000,1339.000,0.000,0.000,0
2026-01-30 23:29:30,1794854,5748.000,459.000,690.000,8803.000,-3762.000,453.000,0.000,0.000,0
2026-01-30 23:29:30,1794894,6438.000,1387.000,1362.000,8706.000,-3317.000,643.000,0.000,0.000,0
2026-01-30 23:29:30,1794934,7560.000,2118.000,2185.000,7336.000,-3441.000,1345.000,0.000,0.000,0
2026-01-30 23:29:30,1794974,8848.000,2342.000,3908.000,4090.000,-4105.000,2128.000,0.000,0.000,0
2026-01-30 23:29:30,1795014,10251.000,1735.000,4712.000,-4342.000,-4845.000,1655.000,0.000,0.000,0
2026-01-30 23:29:30,1795054,11241.000,-25.000,2093.000,-7080.000,-2705.000,529.000,0.000,0.000,0
2026-01-30 23:29:30,1795094,12804.000,-1126.000,30.000,-5841.000,118.000,-259.000,0.000,0.000,0
2026-01-30 23:29:30,1795134,12134.000,-1006.000,1603.000,-3132.000,4024.000,-929.000,0.000,0.000,0
2026-01-30 23:29:30,1795174,11447.000,-423.000,806.000,-707.000,6870.000,-2114.000,0.000,0.000,0
2026-01-30 23:29:31,1795214,14421.000,259.000,-917.000,1372.000,8573.000,-3473.000,0.000,0.000,0
2026-01-30 23:29:31,1795254,12583.000,1073.000,-385.000,1854.000,11563.000,-4451.000,0.000,0.000,0
2026-01-30 23:29:31,1795294,9186.000,1160.000,440.000,457.000,11783.000,-5365.000,0.000,0.000,0
2026-01-30 23:29:31,1795334,7303.000,1177.000,875.000,-3465.000,10036.000,-6099.000,0.000,0.000,0
2026-01-30 23:29:31,1795374,6201.000,505.000,-174.000,-6052.000,7743.000,-5948.000,0.000,0.000,0
2026-01-30 23:29:31,1795414,6572.000,397.000,-701.000,-5012.000,6916.000,-5473.000,0.000,0.000,0
2026-01-30 23:29:31,1795454,6301.000,145.000,-903.000,-3741.000,6528.000,-4462.000,0.000,0.000,0
2026-01-30 23:29:31,1795494,6091.000,182.000,-825.000,-1786.000,5467.000,-3280.000,0.000,0.000,0
2026-01-30 23:29:31,1795534,6090.000,-101.000,-829.000,166.000,3805.000,-1910.000,0.000,0.000,0
2026-01-30 23:29:31,1795574,4235.000,-3495.000,-2449.000,4837.000,2112.000,-946.000,0.000,0.000,0
2026-01-30 23:29:31,1795614,6848.000,543.000,-25.000,11790.000,-1940.000,862.000,0.000,0.000,0
2026-01-30 23:29:31,1795654,9742.000,2600.000,1651.000,10942.000,-5158.000,5176.000,0.000,0.000,0
2026-01-30 23:29:31,1795694,11155.000,2039.000,1271.000,4639.000,-7839.000,9756.000,0.000,0.000,0
2026-01-30 23:29:31,1795734,10710.000,1362.000,916.000,-3281.000,-9168.000,11006.000,0.000,0.000,0
2026-01-30 23:29:31,1795774,12195.000,467.000,190.000,-10269.000,-10391.000,7287.000,0.000,0.000,0
2026-01-30 23:29:31,1795814,10860.000,-1863.000,-435.000,-9776.000,-8178.000,3590.000,0.000,0.000,0
2026-01-30 23:29:31,1795854,8075.000,-2600.000,534.000,-2018.000,-5884.000,477.000,0.000,0.000,0
2026-01-30 23:29:31,1795894,6931.000,-3055.000,1657.000,8601.000,-4813.000,-2254.000,0.000,0.000,0
2026-01-30 23:29:31,1795934,5487.000,1127.000,1573.000,14968.000,-3425.000,-1650.000,0.000,0.000,0
2026-01-30 23:29:31,1795974,6150.000,3050.000,1739.000,11982.000,-3297.000,-124.000,0.000,0.000,0
2026-01-30 23:29:31,1796014,6471.000,3167.000,2068.000,5278.000,-2975.000,2478.000,0.000,0.000,0
2026-01-30 23:29:31,1796054,7726.000,2423.000,3062.000,-1308.000,-3529.000,4324.000,0.000,0.000,0
2026-01-30 23:29:31,1796094,8369.000,1019.000,3721.000,-5573.000,-4375.000,4459.000,0.000,0.000,0
2026-01-30 23:29:31,1796134,10973.000,-700.000,2765.000,-5464.000,-3812.000,2221.000,0.000,0.000,0
2026-01-30 23:29:31,1796174,12718.000,-380.000,396.000,-286.000,-1465.000,381.000,0.000,0.000,0
2026-01-30 23:29:32,1796217,13671.000,162.000,1732.000,1708.000,3618.000,-2647.000,0.000,0.000,0
2026-01-30 23:29:32,1796257,10470.000,468.000,2276.000,436.000,6932.000,-4284.000,0.000,0.000,0
2026-01-30 23:29:32,1796297,12300.000,493.000,443.000,-1544.000,7827.000,-5518.000,0.000,0.000,0
2026-01-30 23:29:32,1796334,13455.000,968.000,-363.000,-3036.000,8895.000,-5733.000,0.000,0.000,0
2026-01-30 23:29:32,1796374,13078.000,-170.000,-958.000,-5460.000,11492.000,-4957.000,0.000,0.000,0
2026-01-30 23:29:32,1796414,10654.000,1025.000,194.000,-4532.000,12822.000,-4440.000,0.000,0.000,0
2026-01-30 23:29:32,1796454,8459.000,105.000,763.000,-4487.000,11658.000,-4236.000,0.000,0.000,0
2026-01-30 23:29:32,1796494,6585.000,280.000,469.000,-2698.000,10216.000,-5073.000,0.000,0.000,0
2026-01-30 23:29:32,1796534,5291.000,307.000,-177.000,-1623.000,8503.000,-5053.000,0.000,0.000,0
2026-01-30 23:29:32,1796574,4697.000,357.000,-652.000,194.000,7556.000,-4242.000,0.000,0.000,0
2026-01-30 23:29:32,1796614,4049.000,418.000,-631.000,2245.000,5982.000,-3145.000,0.000,0.000,0
2026-01-30 23:29:32,1796654,4091.000,1183.000,-314.000,2991.000,4003.000,-1824.000,0.000,0.000,0
2026-01-30 23:29:32,1796694,4590.000,1079.000,232.000,2107.000,1327.000,270.000,0.000,0.000,0
2026-01-30 23:29:32,1796734,5747.000,918.000,1213.000,2198.000,-2295.000,2663.000,0.000,0.000,0
2026-01-30 23:29:32,1796774,8305.000,143.000,2047.000,2376.000,-6780.000,5137.000,0.000,0.000,0
2026-01-30 23:29:32,1796814,10677.000,246.000,2555.000,1598.000,-10871.000,7635.000,0.000,0.000,0
2026-01-30 23:29:32,1796854,11575.000,27.000,2157.000,263.000,-13703.000,9593.000,0.000,0.000,0
2026-01-30 23:29:32,1796894,14775.000,-478.000,1351.000,-626.000,-13267.000,9161.000,0.000,0.000,0
2026-01-30 23:29:32,1796934,11180.000,-1320.000,-203.000,-1032.000,-7948.000,6670.000,0.000,0.000,0
2026-01-30 23:29:32,1796974,7686.000,-2290.000,490.000,1677.000,-4929.000,3444.000,0.000,0.000,0
2026-01-30 23:29:32,1797014,6463.000,-2121.000,559.000,7259.000,-3285.000,446.000,0.000,0.000,0
2026-01-30 23:29:32,1797054,6340.000,288.000,429.000,14134.000,-2509.000,-399.000,0.000,0.000,0
2026-01-30 23:29:32,1797094,6408.000,2827.000,778.000,16023.000,-1533.000,343.000,0.000,0.000,0
2026-01-30 23:29:32,1797134,6734.000,3878.000,1811.000,12334.000,-1426.000,2450.000,0.000,0.000,0
2026-01-30 23:29:32,1797174,7470.000,3901.000,4006.000,4396.000,-2370.000,4618.000,0.000,0.000,0
2026-01-30 23:29:33,1797214,8540.000,2979.000,4537.000,-4090.000,-4162.000,5526.000,0.000,0.000,0
2026-01-30 23:29:33,1797254,10286.000,1328.000,3154.000,-8769.000,-4926.000,4874.000,0.000,0.000,0
2026-01-30 23:29:33,1797294,11367.000,-350.000,655.000,-5008.000,-2259.000,2119.000,0.000,0.000,0
2026-01-30 23:29:33,1797334,11795.000,-64.000,810.000,-2659.000,1072.000,-434.000,0.000,0.000,0
2026-01-30 23:29:33,1797374,10697.000,63.000,1753.000,-1596.000,4444.000,-3108.000,0.000,0.000,0
2026-01-30 23:29:33,1797414,12625.000,1025.000,647.000,-717.000,5747.000,-4782.000,0.000,0.000,0
2026-01-30 23:29:33,1797454,14443.000,2277.000,-32.000,-1961.000,8190.000,-5495.000,0.000,0.000,0
2026-01-30 23:29:33,1797494,12574.000,1186.000,-197.000,-4362.000,11223.000,-6146.000,0.000,0.000,0
2026-01-30 23:29:33,1797534,9914.000,1193.000,424.000,-6569.000,11478.000,-8274.000,0.000,0.000,0
2026-01-30 23:29:33,1797574,7992.000,-312.000,136.000,-9137.000,10451.000,-9454.000,0.000,0.000,0
2026-01-30 23:29:33,1797614,7182.000,48.000,-157.000,-8095.000,9309.000,-9422.000,0.000,0.000,0
2026-01-30 23:29:33,1797654,5813.000,87.000,-207.000,-6131.000,8528.000,-7461.000,0.000,0.000,0
2026-01-30 23:29:33,1797694,5468.000,202.000,-372.000,-1790.000,6669.000,-5165.000,0.000,0.000,0
2026-01-30 23:29:33,1797734,5904.000,390.000,-421.000,520.000,4854.000,-2667.000,0.000,0.000,0
2026-01-30 23:29:33,1797774,6239.000,486.000,-203.000,2087.000,2849.000,-721.000,0.000,0.000,0
2026-01-30 23:29:33,1797814,6253.000,416.000,157.000,2843.000,342.000,895.000,0.000,0.000,0
2026-01-30 23:29:33,1797854,8727.000,503.000,1065.000,2866.000,-3171.000,2791.000,0.000,0.000,0
2026-01-30 23:29:33,1797894,9609.000,441.000,1952.000,1867.000,-5930.000,4915.000,0.000,0.000,0
2026-01-30 23:29:33,1797934,10371.000,304.000,2035.000,362.000,-8432.000,6683.000,0.000,0.000,0
2026-01-30 23:29:33,1797974,11217.000,-537.000,858.000,-18.000,-9784.000,7232.000,0.000,0.000,0
2026-01-30 23:29:33,1798014,11371.000,-777.000,150.000,1854.000,-9247.000,6743.000,0.000,0.000,0
2026-01-30 23:29:33,1798054,8177.000,-580.000,826.000,4472.000,-6785.000,5422.000,0.000,0.000,0
2026-01-30 23:29:33,1798094,6866.000,164.000,1411.000,7236.000,-6438.000,4383.000,0.000,0.000,0
2026-01-30 23:29:33,1798134,7095.000,328.000,996.000,10569.000,-6182.000,4342.000,0.000,0.000,0
2026-01-30 23:29:33,1798174,7664.000,2877.000,1114.000,11873.000,-5560.000,5487.000,0.000,0.000,0
2026-01-30 23:29:34,1798217,9111.000,3223.000,2752.000,4206.000,-5255.000,7074.000,0.000,0.000,0
2026-01-30 23:29:34,1798257,9068.000,2632.000,4357.000,-1912.000,-5629.000,6336.000,0.000,0.000,0
2026-01-30 23:29:34,1798294,9330.000,2274.000,4670.000,-4484.000,-6007.000,5521.000,0.000,0.000,0
2026-01-30 23:29:34,1798334,10886.000,733.000,4134.000,-6300.000,-4839.000,3221.000,0.000,0.000,0
2026-01-30 23:29:34,1798374,10482.000,-104.000,2744.000,-4735.000,-2616.000,1436.000,0.000,0.000,0
2026-01-30 23:29:34,1798414,13044.000,-264.000,1679.000,-2652.000,-373.000,-1408.000,0.000,0.000,0
2026-01-30 23:29:34,1798454,11042.000,-206.000,2071.000,-2155.000,6759.000,-3754.000,0.000,0.000,0
2026-01-30 23:29:34,1798494,12686.000,233.000,-57.000,-2354.000,8395.000,-5287.000,0.000,0.000,0
2026-01-30 23:29:34,1798534,14985.000,448.000,-1457.000,-2610.000,11274.000,-5993.000,0.000,0.000,0
2026-01-30 23:29:34,1798574,11942.000,1225.000,106.000,-5713.000,13821.000,-5549.000,0.000,0.000,0
2026-01-30 23:29:34,1798614,8666.000,767.000,912.000,-10856.000,12453.000,-4979.000,0.000,0.000,0
2026-01-30 23:29:34,1798654,7143.000,595.000,298.000,-11962.000,9787.000,-4251.000,0.000,0.000,0
2026-01-30 23:29:34,1798694,6552.000,33.000,-664.000,-9362.000,7862.000,-3752.000,0.000,0.000,0
2026-01-30 23:29:34,1798734,6388.000,21.000,-891.000,-5457.000,6682.000,-3529.000,0.000,0.000,0
2026-01-30 23:29:34,1798774,6193.000,193.000,-972.000,-1405.000,6106.000,-3026.000,0.000,0.000,0
2026-01-30 23:29:34,1798814,7040.000,538.000,-778.000,1399.000,4859.000,-2604.000,0.000,0.000,0
2026-01-30 23:29:34,1798854,7070.000,-426.000,-940.000,2422.000,3753.000,-2257.000,0.000,0.000,0
2026-01-30 23:29:34,1798894,6647.000,-1578.000,-1328.000,6506.000,1936.000,-2142.000,0.000,0.000,0
2026-01-30 23:29:34,1798934,8122.000,-485.000,-119.000,9349.000,-1206.000,-1387.000,0.000,0.000,0
2026-01-30 23:29:34,1798974,9513.000,1295.000,1901.000,7772.000,-4429.000,1339.000,0.000,0.000,0
2026-01-30 23:29:34,1799014,9447.000,702.000,2481.000,2195.000,-7030.000,4769.000,0.000,0.000,0
2026-01-30 23:29:34,1799054,10703.000,-51.000,1147.000,-1635.000,-9020.000,6136.000,0.000,0.000,0
2026-01-30 23:29:34,1799094,11115.000,-833.000,214.000,-2670.000,-9200.000,5589.000,0.000,0.000,0
2026-01-30 23:29:34,1799134,9712.000,-1179.000,651.000,-1601.000,-7930.000,4321.000,0.000,0.000,0
2026-01-30 23:29:34,1799174,6404.000,-1863.000,1943.000,29.000,-6825.000,3081.000,0.000,0.000,0
2026-01-30 23:29:35,1799214,6749.000,-1325.000,1008.000,7518.000,-6533.000,2760.000,0.000,0.000,0
2026-01-30 23:29:35,1799254,6700.000,947.000,924.000,13734.000,-5346.000,3427.000,0.000,0.000,0
2026-01-30 23:29:35,1799294,8157.000,2526.000,1706.000,12047.000,-5057.000,4703.000,0.000,0.000,0
2026-01-30 23:29:35,1799334,9313.000,3744.000,3081.000,5806.000,-4907.000,6166.000,0.000,0.000,0
2026-01-30 23:29:35,1799374,9755.000,2974.000,4358.000,-1541.000,-5268.000,6489.000,0.000,0.000,0
2026-01-30 23:29:35,1799414,10412.000,1605.000,3601.000,-7383.000,-5415.000,4757.000,0.000,0.000,0
2026-01-30 23:29:35,1799454,10442.000,-530.000,1611.000,-6667.000,-2634.000,1777.000,0.000,0.000,0
2026-01-30 23:29:35,1799494,11687.000,-1427.000,926.000,-2730.000,-885.000,-283.000,0.000,0.000,0
2026-01-30 23:29:35,1799534,12292.000,-663.000,1937.000,828.000,2062.000,-2477.000,0.000,0.000,0
2026-01-30 23:29:35,1799574,11922.000,902.000,1376.000,907.000,5727.000,-4378.000,0.000,0.000,0
2026-01-30 23:29:35,1799614,13505.000,634.000,-52.000,-1315.000,8034.000,-5000.000,0.000,0.000,0
2026-01-30 23:29:35,1799654,12405.000,299.000,-292.000,-3093.000,10599.000,-5625.000,0.000,0.000,0
2026-01-30 23:29:35,1799694,10352.000,698.000,709.000,-4990.000,11277.000,-6214.000,0.000,0.000,0
2026-01-30 23:29:35,1799734,8981.000,2388.000,899.000,-12550.000,10785.000,-5961.000,0.000,0.000,0
2026-01-30 23:29:35,1799774,7926.000,498.000,-735.000,-19300.000,10543.000,-4521.000,0.000,0.000,0
2026-01-30 23:29:35,1799814,6012.000,-1652.000,-1483.000,-17519.000,10326.000,-2937.000,0.000,0.000,0
2026-01-30 23:29:35,1799854,4460.000,-2184.000,-1111.000,-8884.000,8961.000,-1698.000,0.000,0.000,0
2026-01-30 23:29:35,1799894,4263.000,-1573.000,-558.000,-173.000,6200.000,-1147.000,0.000,0.000,0
2026-01-30 23:29:35,1799934,6362.000,1089.000,302.000,5539.000,3047.000,54.000,0.000,0.000,0
2026-01-30 23:29:35,1799974,7425.000,1104.000,517.000,6277.000,-1153.000,3133.000,0.000,0.000,0
2026-01-30 23:29:35,1800014,7833.000,708.000,430.000,5434.000,-3468.000,3992.000,0.000,0.000,0
2026-01-30 23:29:35,1800054,9170.000,430.000,157.000,5188.000,-5871.000,3877.000,0.000,0.000,0
2026-01-30 23:29:35,1800094,9760.000,474.000,1046.000,4332.000,-7722.000,3149.000,0.000,0.000,0
2026-01-30 23:29:35,1800134,11045.000,-50.000,1303.000,2227.000,-9184.000,1896.000,0.000,0.000,0
2026-01-30 23:29:35,1800174,11204.000,-739.000,103.000,561.000,-8921.000,821.000,0.000,0.000,0
2026-01-30 23:29:36,1800217,8293.000,-320.000,143.000,2670.000,-6032.000,431.000,0.000,0.000,0
2026-01-30 23:29:36,1800254,7084.000,-233.000,1124.000,3651.000,-5695.000,386.000,0.000,0.000,0
2026-01-30 23:29:36,1800294,5717.000,-851.000,2861.000,4542.000,-5925.000,358.000,0.000,0.000,0
2026-01-30 23:29:36,1800334,5635.000,-601.000,2824.000,5258.000,-6044.000,453.000,0.000,0.000,0
2026-01-30 23:29:36,1800374,6472.000,1235.000,2248.000,9859.000,-5619.000,2192.000,0.000,0.000,0
2026-01-30 23:29:36,1800414,8917.000,1633.000,3255.000,5788.000,-5691.000,3535.000,0.000,0.000,0
2026-01-30 23:29:36,1800454,10344.000,1918.000,4499.000,590.000,-5134.000,4498.000,0.000,0.000,0
2026-01-30 23:29:36,1800494,11437.000,1017.000,4029.000,-4279.000,-4565.000,4154.000,0.000,0.000,0
2026-01-30 23:29:36,1800537,11638.000,-964.000,1598.000,-4644.000,-1079.000,2089.000,0.000,0.000,0
2026-01-30 23:29:36,1800574,12361.000,-1375.000,860.000,-2970.000,99.000,1165.000,0.000,0.000,0
2026-01-30 23:29:36,1800614,12382.000,-753.000,1701.000,532.000,2945.000,-457.000,0.000,0.000,0
2026-01-30 23:29:36,1800654,11031.000,423.000,1910.000,1481.000,5319.000,-1928.000,0.000,0.000,0
2026-01-30 23:29:36,1800694,13260.000,896.000,-249.000,411.000,6578.000,-2863.000,0.000,0.000,0
2026-01-30 23:29:36,1800734,11608.000,381.000,55.000,-1800.000,10426.000,-3295.000,0.000,0.000,0
2026-01-30 23:29:36,1800774,9067.000,-575.000,1546.000,-2255.000,10961.000,-4010.000,0.000,0.000,0
2026-01-30 23:29:36,1800814,7254.000,-266.000,637.000,-1112.000,10571.000,-4927.000,0.000,0.000,0
2026-01-30 23:29:36,1800854,5862.000,144.000,77.000,1718.000,9732.000,-5278.000,0.000,0.000,0
2026-01-30 23:29:36,1800894,6271.000,877.000,-121.000,1144.000,8736.000,-5655.000,0.000,0.000,0
2026-01-30 23:29:36,1800934,6285.000,1274.000,-209.000,-1116.000,7691.000,-4998.000,0.000,0.000,0
2026-01-30 23:29:36,1800974,6509.000,557.000,-454.000,-3530.000,6373.000,-3745.000,0.000,0.000,0
2026-01-30 23:29:36,1801014,6804.000,-33.000,466.000,-2614.000,4570.000,-2735.000,0.000,0.000,0
2026-01-30 23:29:36,1801054,6633.000,-838.000,1964.000,-713.000,2773.000,-1772.000,0.000,0.000,0
2026-01-30 23:29:36,1801094,7693.000,-806.000,262.000,2703.000,-593.000,396.000,0.000,0.000,0
2026-01-30 23:29:36,1801134,8508.000,-175.000,321.000,5110.000,-2073.000,2650.000,0.000,0.000,0
2026-01-30 23:29:36,1801174,8089.000,-39.000,2203.000,4681.000,-3975.000,4270.000,0.000,0.000,0
2026-01-30 23:29:37,1801214,10310.000,220.000,2655.000,3114.000,-7267.000,5032.000,0.000,0.000,0
2026-01-30 23:29:37,1801254,10396.000,-609.000,2936.000,-92.000,-8892.000,5136.000,0.000,0.000,0
2026-01-30 23:29:37,1801294,9279.000,-437.000,1248.000,-173.000,-8530.000,5421.000,0.000,0.000,0
2026-01-30 23:29:37,1801334,6823.000,-1360.000,1909.000,1724.000,-7698.000,5666.000,0.000,0.000,0
2026-01-30 23:29:37,1801374,6221.000,-1085.000,1749.000,5282.000,-6838.000,5571.000,0.000,0.000,0
2026-01-30 23:29:37,1801414,6470.000,98.000,1419.000,9063.000,-6358.000,5757.000,0.000,0.000,0
2026-01-30 23:29:37,1801454,8123.000,2266.000,1956.000,9943.000,-5844.000,6136.000,0.000,0.000,0
2026-01-30 23:29:37,1801494,9524.000,3190.000,3163.000,6099.000,-5022.000,6508.000,0.000,0.000,0
2026-01-30 23:29:37,1801534,10802.000,3557.000,3920.000,837.000,-4843.000,5744.000,0.000,0.000,0
2026-01-30 23:29:37,1801574,10727.000,2689.000,3539.000,-4756.000,-3936.000,3930.000,0.000,0.000,0
2026-01-30 23:29:37,1801614,10193.000,486.000,2122.000,-5428.000,-2573.000,1230.000,0.000,0.000,0
2026-01-30 23:29:37,1801654,12018.000,-801.000,1105.000,-2420.000,-1305.000,-1184.000,0.000,0.000,0
2026-01-30 23:29:37,1801694,12560.000,704.000,2402.000,804.000,1443.000,-3490.000,0.000,0.000,0
2026-01-30 23:29:37,1801734,10602.000,894.000,2479.000,-317.000,4240.000,-4847.000,0.000,0.000,0
2026-01-30 23:29:37,1801774,12560.000,1201.000,1096.000,-2464.000,4995.000,-6063.000,0.000,0.000,0
2026-01-30 23:29:37,1801814,13378.000,873.000,20.000,-6749.000,7192.000,-6642.000,0.000,0.000,0
2026-01-30 23:29:37,1801854,9517.000,-497.000,575.000,-10850.000,9871.000,-6551.000,0.000,0.000,0
2026-01-30 23:29:37,1801894,7189.000,-537.000,1180.000,-9096.000,9058.000,-6229.000,0.000,0.000,0
2026-01-30 23:29:37,1801934,6333.000,-432.000,499.000,-5266.000,7777.000,-5995.000,0.000,0.000,0
2026-01-30 23:29:37,1801974,5796.000,-81.000,-54.000,-1810.000,6638.000,-5688.000,0.000,0.000,0
2026-01-30 23:29:37,1802014,6086.000,703.000,-421.000,-553.000,5937.000,-4710.000,0.000,0.000,0
2026-01-30 23:29:37,1802054,6295.000,887.000,-523.000,-560.000,5200.000,-3015.000,0.000,0.000,0
2026-01-30 23:29:37,1802094,6435.000,904.000,-374.000,-912.000,4134.000,-1217.000,0.000,0.000,0
2026-01-30 23:29:37,1802134,6842.000,706.000,42.000,-153.000,2331.000,405.000,0.000,0.000,0
2026-01-30 23:29:37,1802174,6666.000,322.000,221.000,1685.000,277.000,1288.000,0.000,0.000,0
2026-01-30 23:29:38,1802214,8720.000,699.000,1043.000,3357.000,-2525.000,2084.000,0.000,0.000,0
2026-01-30 23:29:38,1802254,8847.000,815.000,2344.000,1918.000,-4894.000,3859.000,0.000,0.000,0
2026-01-30 23:29:38,1802294,9238.000,266.000,2433.000,-1330.000,-6565.000,4578.000,0.000,0.000,0
2026-01-30 23:29:38,1802334,10338.000,-840.000,1605.000,-2623.000,-7456.000,4385.000,0.000,0.000,0
2026-01-30 23:29:38,1802374,9660.000,-1375.000,1549.000,-1061.000,-6713.000,3751.000,0.000,0.000,0
2026-01-30 23:29:38,1802414,7561.000,-1549.000,2118.000,1997.000,-5685.000,2977.000,0.000,0.000,0
2026-01-30 23:29:38,1802454,5964.000,-1421.000,2442.000,5324.000,-4653.000,3148.000,0.000,0.000,0
2026-01-30 23:29:38,1802494,5417.000,-417.000,1892.000,8752.000,-4523.000,3324.000,0.000,0.000,0
2026-01-30 23:29:38,1802537,7000.000,1604.000,1647.000,10419.000,-4568.000,4803.000,0.000,0.000,0
2026-01-30 23:29:38,1802574,7942.000,2186.000,2112.000,9604.000,-4566.000,5308.000,0.000,0.000,0
2026-01-30 23:29:38,1802614,9468.000,3089.000,3824.000,1949.000,-4331.000,6350.000,0.000,0.000,0
2026-01-30 23:29:38,1802654,10086.000,2223.000,3826.000,-3108.000,-4658.000,5411.000,0.000,0.000,0
2026-01-30 23:29:38,1802694,10160.000,1010.000,3061.000,-4616.000,-3297.000,3116.000,0.000,0.000,0
2026-01-30 23:29:38,1802734,11906.000,34.000,1154.000,-2870.000,-2164.000,497.000,0.000,0.000,0
2026-01-30 23:29:38,1802774,12924.000,312.000,1397.000,-970.000,837.000,-1850.000,0.000,0.000,0
2026-01-30 23:29:38,1802814,9696.000,479.000,2472.000,-717.000,4532.000,-4023.000,0.000,0.000,0
2026-01-30 23:29:38,1802854,11630.000,738.000,805.000,-889.000,4925.000,-5448.000,0.000,0.000,0
2026-01-30 23:29:38,1802894,13287.000,783.000,-274.000,-2193.000,7133.000,-6350.000,0.000,0.000,0
2026-01-30 23:29:38,1802934,11085.000,409.000,403.000,-3891.000,9339.000,-7014.000,0.000,0.000,0
2026-01-30 23:29:38,1802974,8734.000,22.000,1259.000,-6464.000,8954.000,-7706.000,0.000,0.000,0
2026-01-30 23:29:38,1803014,6634.000,304.000,890.000,-6795.000,6908.000,-6905.000,0.000,0.000,0
2026-01-30 23:29:38,1803054,5969.000,-307.000,331.000,-5921.000,5843.000,-6306.000,0.000,0.000,0
2026-01-30 23:29:38,1803094,5818.000,101.000,154.000,-4361.000,5270.000,-4970.000,0.000,0.000,0
2026-01-30 23:29:38,1803134,5856.000,-12.000,38.000,-3349.000,4608.000,-3479.000,0.000,0.000,0
2026-01-30 23:29:38,1803174,6054.000,147.000,133.000,-2281.000,3305.000,-1798.000,0.000,0.000,0
2026-01-30 23:29:39,1803214,6959.000,70.000,164.000,-701.000,1685.000,-159.000,0.000,0.000,0
2026-01-30 23:29:39,1803254,6847.000,7.000,259.000,1084.000,36.000,1262.000,0.000,0.000,0
2026-01-30 23:29:39,1803294,8800.000,61.000,368.000,2738.000,-2607.000,2501.000,0.000,0.000,0
2026-01-30 23:29:39,1803334,9316.000,206.000,1442.000,3590.000,-4515.000,3791.000,0.000,0.000,0
2026-01-30 23:29:39,1803374,9792.000,125.000,2112.000,2000.000,-7192.000,5375.000,0.000,0.000,0
2026-01-30 23:29:39,1803414,11267.000,-526.000,1155.000,1730.000,-7710.000,5106.000,0.000,0.000,0
2026-01-30 23:29:39,1803454,9973.000,-885.000,528.000,2702.000,-5948.000,4008.000,0.000,0.000,0
2026-01-30 23:29:39,1803494,7604.000,-383.000,1280.000,4031.000,-4435.000,2809.000,0.000,0.000,0
2026-01-30 23:29:39,1803534,5865.000,-558.000,1825.000,4818.000,-3857.000,1976.000,0.000,0.000,0
2026-01-30 23:29:39,1803574,5846.000,180.000,1444.000,7516.000,-4118.000,2210.000,0.000,0.000,0
2026-01-30 23:29:39,1803614,6147.000,1138.000,1195.000,8828.000,-3887.000,3294.000,0.000,0.000,0
2026-01-30 23:29:39,1803654,7185.000,1835.000,1782.000,8458.000,-4128.000,4599.000,0.000,0.000,0
2026-01-30 23:29:39,1803694,8951.000,2628.000,3228.000,4883.000,-4883.000,5708.000,0.000,0.000,0
2026-01-30 23:29:39,1803734,9184.000,2247.000,4498.000,-268.000,-5457.000,6040.000,0.000,0.000,0
2026-01-30 23:29:39,1803774,10678.000,1317.000,3397.000,-4927.000,-4683.000,4432.000,0.000,0.000,0
2026-01-30 23:29:39,1803814,11440.000,-24.000,1084.000,-3991.000,-2322.000,2416.000,0.000,0.000,0
2026-01-30 23:29:39,1803854,12796.000,44.000,717.000,-1359.000,802.000,-150.000,0.000,0.000,0
2026-01-30 23:29:39,1803894,10114.000,-181.000,1895.000,-228.000,4747.000,-3080.000,0.000,0.000,0
2026-01-30 23:29:39,1803934,11099.000,633.000,861.000,591.000,5597.000,-5224.000,0.000,0.000,0
2026-01-30 23:29:39,1803974,13541.000,1267.000,-139.000,-268.000,7239.000,-6043.000,0.000,0.000,0
2026-01-30 23:29:39,1804014,12046.000,791.000,199.000,-1947.000,9650.000,-6565.000,0.000,0.000,0
2026-01-30 23:29:39,1804054,9519.000,772.000,1012.000,-4635.000,9319.000,-7341.000,0.000,0.000,0
2026-01-30 23:29:39,1804094,7320.000,457.000,828.000,-6962.000,7880.000,-7526.000,0.000,0.000,0
2026-01-30 23:29:39,1804134,6099.000,-91.000,-77.000,-7123.000,6790.000,-6941.000,0.000,0.000,0
2026-01-30 23:29:39,1804174,6086.000,435.000,-576.000,-6024.000,6224.000,-5774.000,0.000,0.000,0
2026-01-30 23:29:40,1804214,5309.000,15.000,-579.000,-4785.000,5978.000,-4671.000,0.000,0.000,0
2026-01-30 23:29:40,1804254,5417.000,-277.000,-663.000,-2649.000,4390.000,-3193.000,0.000,0.000,0
2026-01-30 23:29:40,1804295,6286.000,295.000,100.000,417.000,2346.000,-1773.000,0.000,0.000,0
2026-01-30 23:29:40,1804334,7064.000,569.000,658.000,2039.000,-85.000,126.000,0.000,0.000,0
2026-01-30 23:29:40,1804374,8212.000,398.000,1673.000,1795.000,-2862.000,1699.000,0.000,0.000,0
2026-01-30 23:29:40,1804414,9864.000,132.000,1628.000,161.000,-5179.000,3192.000,0.000,0.000,0
2026-01-30 23:29:40,1804454,9504.000,-229.000,1979.000,-1277.000,-6300.000,4654.000,0.000,0.000,0
2026-01-30 23:29:40,1804494,10216.000,-1059.000,731.000,-837.000,-7481.000,5114.000,0.000,0.000,0
2026-01-30 23:29:40,1804537,9504.000,-609.000,526.000,4427.000,-5915.000,3918.000,0.000,0.000,0
2026-01-30 23:29:40,1804574,8407.000,-184.000,808.000,5152.000,-5481.000,3498.000,0.000,0.000,0
2026-01-30 23:29:40,1804614,6332.000,178.000,1365.000,5910.000,-4952.000,3164.000,0.000,0.000,0
2026-01-30 23:29:40,1804654,5744.000,412.000,1918.000,7108.000,-5435.000,3196.000,0.000,0.000,0
2026-01-30 23:29:40,1804694,6526.000,615.000,1257.000,7588.000,-5393.000,3988.000,0.000,0.000,0
2026-01-30 23:29:40,1804734,7462.000,1469.000,777.000,9620.000,-4830.000,5108.000,0.000,0.000,0
2026-01-30 23:29:40,1804774,8705.000,2130.000,2068.000,8719.000,-4523.000,5640.000,0.000,0.000,0
2026-01-30 23:29:40,1804814,9459.000,2345.000,3704.000,5186.000,-4539.000,5110.000,0.000,0.000,0
2026-01-30 23:29:40,1804854,10328.000,2336.000,4440.000,876.000,-4704.000,3753.000,0.000,0.000,0
2026-01-30 23:29:40,1804894,10845.000,1240.000,1751.000,-4352.000,-2414.000,1666.000,0.000,0.000,0
2026-01-30 23:29:40,1804934,13128.000,257.000,1139.000,-4036.000,-481.000,143.000,0.000,0.000,0
2026-01-30 23:29:40,1804974,10667.000,353.000,2706.000,-3271.000,3731.000,-1854.000,0.000,0.000,0
2026-01-30 23:29:40,1805014,11408.000,443.000,723.000,-2927.000,5198.000,-3724.000,0.000,0.000,0
2026-01-30 23:29:40,1805054,13908.000,444.000,-923.000,-3152.000,7237.000,-4995.000,0.000,0.000,0
2026-01-30 23:29:40,1805094,12132.000,-109.000,-27.000,-3718.000,10398.000,-6098.000,0.000,0.000,0
2026-01-30 23:29:40,1805134,9305.000,131.000,1260.000,-4103.000,10422.000,-7059.000,0.000,0.000,0
2026-01-30 23:29:40,1805174,7125.000,540.000,1159.000,-5449.000,8790.000,-7287.000,0.000,0.000,0
2026-01-30 23:29:41,1805214,6865.000,704.000,254.000,-5800.000,7171.000,-6552.000,0.000,0.000,0
2026-01-30 23:29:41,1805254,6016.000,409.000,-154.000,-5981.000,6375.000,-5378.000,0.000,0.000,0
2026-01-30 23:29:41,1805294,5958.000,497.000,-231.000,-6036.000,5534.000,-3073.000,0.000,0.000,0
2026-01-30 23:29:41,1805334,6673.000,179.000,-411.000,-4761.000,4321.000,-1677.000,0.000,0.000,0
2026-01-30 23:29:41,1805374,7706.000,-467.000,-606.000,-2428.000,3011.000,-765.000,0.000,0.000,0
2026-01-30 23:29:41,1805414,6810.000,-1110.000,-931.000,1096.000,1810.000,-428.000,0.000,0.000,0
2026-01-30 23:29:41,1805454,7915.000,-1197.000,-313.000,4768.000,-628.000,13.000,0.000,0.000,0
2026-01-30 23:29:41,1805494,9102.000,-347.000,413.000,6316.000,-2608.000,1031.000,0.000,0.000,0
2026-01-30 23:29:41,1805534,9406.000,488.000,1224.000,5168.000,-4374.000,3029.000,0.000,0.000,0
2026-01-30 23:29:41,1805574,10124.000,11.000,1461.000,2274.000,-5872.000,4342.000,0.000,0.000,0
2026-01-30 23:29:41,1805614,10277.000,-469.000,1227.000,115.000,-6654.000,4248.000,0.000,0.000,0
2026-01-30 23:29:41,1805654,8648.000,-979.000,1626.000,-9.000,-6212.000,3479.000,0.000,0.000,0
2026-01-30 23:29:41,1805694,6267.000,-1216.000,1904.000,2063.000,-5393.000,3332.000,0.000,0.000,0
2026-01-30 23:29:41,1805734,5351.000,-1303.000,1715.000,6651.000,-5775.000,3892.000,0.000,0.000,0
2026-01-30 23:29:41,1805774,6829.000,386.000,1581.000,9702.000,-6355.000,4753.000,0.000,0.000,0
2026-01-30 23:29:41,1805814,7394.000,1538.000,1794.000,10547.000,-5436.000,5768.000,0.000,0.000,0
2026-01-30 23:29:41,1805854,9684.000,2864.000,2913.000,7796.000,-5707.000,6921.000,0.000,0.000,0
2026-01-30 23:29:41,1805894,9986.000,2379.000,3742.000,2422.000,-5120.000,6790.000,0.000,0.000,0
2026-01-30 23:29:41,1805934,10974.000,1808.000,3814.000,-515.000,-5093.000,5272.000,0.000,0.000,0
2026-01-30 23:29:41,1805974,10820.000,1597.000,3082.000,-2078.000,-3110.000,2935.000,0.000,0.000,0
2026-01-30 23:29:41,1806014,10641.000,1108.000,1848.000,-2345.000,-1167.000,259.000,0.000,0.000,0
2026-01-30 23:29:41,1806054,11074.000,1033.000,2267.000,-1146.000,2427.000,-2681.000,0.000,0.000,0
2026-01-30 23:29:41,1806094,10114.000,1528.000,2553.000,-2350.000,4609.000,-4103.000,0.000,0.000,0
2026-01-30 23:29:41,1806134,12480.000,1515.000,595.000,-3879.000,5132.000,-4789.000,0.000,0.000,0
2026-01-30 23:29:41,1806174,14620.000,709.000,-1015.000,-5855.000,7674.000,-5914.000,0.000,0.000,0
2026-01-30 23:29:42,1806215,12436.000,-364.000,-401.000,-6906.000,10483.000,-7286.000,0.000,0.000,0
2026-01-30 23:29:42,1806254,9154.000,-318.000,428.000,-8050.000,10797.000,-8779.000,0.000,0.000,0
2026-01-30 23:29:42,1806294,7540.000,-46.000,774.000,-7803.000,9412.000,-8616.000,0.000,0.000,0
2026-01-30 23:29:42,1806334,6161.000,-358.000,328.000,-6993.000,8587.000,-7679.000,0.000,0.000,0
2026-01-30 23:29:42,1806374,5779.000,50.000,-212.000,-4860.000,7534.000,-6247.000,0.000,0.000,0
2026-01-30 23:29:42,1806414,5301.000,-33.000,-995.000,-3074.000,6321.000,-3737.000,0.000,0.000,0
2026-01-30 23:29:42,1806454,5678.000,128.000,-618.000,942.000,4151.000,-2070.000,0.000,0.000,0
2026-01-30 23:29:42,1806494,6591.000,732.000,262.000,2772.000,1600.000,-264.000,0.000,0.000,0
2026-01-30 23:29:42,1806537,7958.000,527.000,1252.000,2335.000,-2906.000,2378.000,0.000,0.000,0
2026-01-30 23:29:42,1806574,9153.000,71.000,968.000,1525.000,-4423.000,3220.000,0.000,0.000,0
2026-01-30 23:29:42,1806614,10092.000,-341.000,612.000,1041.000,-6249.000,4631.000,0.000,0.000,0
2026-01-30 23:29:42,1806654,10423.000,-337.000,949.000,1124.000,-7003.000,5851.000,0.000,0.000,0
2026-01-30 23:29:42,1806694,11763.000,-342.000,1185.000,702.000,-7878.000,5984.000,0.000,0.000,0
2026-01-30 23:29:42,1806734,11533.000,-953.000,507.000,608.000,-7092.000,5273.000,0.000,0.000,0
2026-01-30 23:29:42,1806774,9718.000,-1111.000,1112.000,2653.000,-6026.000,4466.000,0.000,0.000,0
2026-01-30 23:29:42,1806814,6154.000,-803.000,2101.000,7405.000,-5159.000,4048.000,0.000,0.000,0
2026-01-30 23:29:42,1806854,5777.000,407.000,1723.000,11021.000,-5909.000,4703.000,0.000,0.000,0
2026-01-30 23:29:42,1806894,7169.000,1387.000,1272.000,12429.000,-5298.000,6026.000,0.000,0.000,0
2026-01-30 23:29:42,1806934,8633.000,2833.000,2571.000,8935.000,-5288.000,7326.000,0.000,0.000,0
2026-01-30 23:29:42,1806974,9371.000,3093.000,4233.000,2718.000,-5189.000,7987.000,0.000,0.000,0
2026-01-30 23:29:42,1807014,10005.000,2318.000,4218.000,-2307.000,-5419.000,7128.000,0.000,0.000,0
2026-01-30 23:29:42,1807054,10184.000,1323.000,3598.000,-4381.000,-4185.000,4734.000,0.000,0.000,0
2026-01-30 23:29:42,1807094,9814.000,602.000,2250.000,-3166.000,-2189.000,1458.000,0.000,0.000,0
2026-01-30 23:29:42,1807134,12795.000,-314.000,566.000,-1417.000,-488.000,-1242.000,0.000,0.000,0
2026-01-30 23:29:42,1807174,10029.000,522.000,3223.000,-164.000,5799.000,-4708.000,0.000,0.000,0
2026-01-30 23:29:43,1807214,11600.000,450.000,1448.000,-1787.000,6360.000,-6604.000,0.000,0.000,0
2026-01-30 23:29:43,1807254,14295.000,243.000,-698.000,-3415.000,8403.000,-8067.000,0.000,0.000,0
2026-01-30 23:29:43,1807294,12223.000,-18.000,-318.000,-5097.000,11324.000,-8401.000,0.000,0.000,0
2026-01-30 23:29:43,1807334,9143.000,278.000,1091.000,-7197.000,11043.000,-8486.000,0.000,0.000,0
2026-01-30 23:29:43,1807374,7409.000,405.000,1457.000,-7818.000,8862.000,-7459.000,0.000,0.000,0
2026-01-30 23:29:43,1807414,6892.000,-171.000,411.000,-7576.000,7129.000,-6841.000,0.000,0.000,0
2026-01-30 23:29:43,1807454,6217.000,-136.000,-2.000,-5935.000,6414.000,-5866.000,0.000,0.000,0
2026-01-30 23:29:43,1807494,6123.000,-229.000,-502.000,-5082.000,6133.000,-4894.000,0.000,0.000,0
2026-01-30 23:29:43,1807534,6508.000,-182.000,-535.000,-3294.000,5265.000,-3479.000,0.000,0.000,0
2026-01-30 23:29:43,1807574,7252.000,-58.000,-50.000,269.000,2915.000,-1457.000,0.000,0.000,0
2026-01-30 23:29:43,1807614,6779.000,-1012.000,-319.000,2181.000,1137.000,-108.000,0.000,0.000,0
2026-01-30 23:29:43,1807654,7978.000,-514.000,195.000,4726.000,-1688.000,1408.000,0.000,0.000,0
2026-01-30 23:29:43,1807694,9439.000,223.000,916.000,5433.000,-4199.000,3498.000,0.000,0.000,0
2026-01-30 23:29:43,1807734,10319.000,418.000,1282.000,4077.000,-6168.000,5460.000,0.000,0.000,0
2026-01-30 23:29:43,1807774,11235.000,124.000,1637.000,1653.000,-7551.000,6191.000,0.000,0.000,0
2026-01-30 23:29:43,1807814,11188.000,-643.000,1049.000,-279.000,-7996.000,5559.000,0.000,0.000,0
2026-01-30 23:29:43,1807854,9554.000,-1354.000,1074.000,648.000,-7298.000,4496.000,0.000,0.000,0
2026-01-30 23:29:43,1807894,7490.000,-1544.000,1807.000,3528.000,-6642.000,4104.000,0.000,0.000,0
2026-01-30 23:29:43,1807934,5767.000,-911.000,1806.000,7994.000,-6312.000,5038.000,0.000,0.000,0
2026-01-30 23:29:43,1807974,8559.000,1376.000,1571.000,12587.000,-7269.000,6140.000,0.000,0.000,0
2026-01-30 23:29:43,1808014,8941.000,2756.000,2922.000,10322.000,-5917.000,7340.000,0.000,0.000,0
2026-01-30 23:29:43,1808054,10071.000,3324.000,4699.000,3693.000,-5969.000,8288.000,0.000,0.000,0
2026-01-30 23:29:43,1808094,9987.000,2538.000,4775.000,-2754.000,-5638.000,7408.000,0.000,0.000,0
2026-01-30 23:29:43,1808134,10167.000,1147.000,3894.000,-4946.000,-4190.000,4906.000,0.000,0.000,0
2026-01-30 23:29:43,1808174,9650.000,-344.000,1928.000,-4634.000,-2127.000,1844.000,0.000,0.000,0
2026-01-30 23:29:44,1808217,12459.000,-199.000,253.000,-204.000,2274.000,-2231.000,0.000,0.000,0
2026-01-30 23:29:44,1808257,10456.000,270.000,2266.000,854.000,6071.000,-4581.000,0.000,0.000,0
2026-01-30 23:29:44,1808294,10105.000,644.000,2484.000,936.000,6915.000,-5808.000,0.000,0.000,0
2026-01-30 23:29:44,1808334,14720.000,1074.000,-169.000,-423.000,7819.000,-8514.000,0.000,0.000,0
2026-01-30 23:29:44,1808374,13853.000,453.000,-828.000,-3356.000,10156.000,-9331.000,0.000,0.000,0
2026-01-30 23:29:44,1808414,10932.000,357.000,-70.000,-5741.000,10565.000,-9743.000,0.000,0.000,0
2026-01-30 23:29:44,1808454,8072.000,485.000,738.000,-7954.000,9408.000,-9589.000,0.000,0.000,0
2026-01-30 23:29:44,1808494,6743.000,-316.000,578.000,-9046.000,8073.000,-8626.000,0.000,0.000,0
2026-01-30 23:29:44,1808537,6388.000,-586.000,-482.000,-6390.000,6710.000,-7362.000,0.000,0.000,0
2026-01-30 23:29:44,1808574,6472.000,-609.000,-568.000,-5092.000,6301.000,-6725.000,0.000,0.000,0
2026-01-30 23:29:44,1808614,5907.000,-712.000,-556.000,-2721.000,5443.000,-5139.000,0.000,0.000,0
2026-01-30 23:29:44,1808654,5654.000,-105.000,218.000,-524.000,3588.000,-3039.000,0.000,0.000,0
2026-01-30 23:29:44,1808694,6058.000,86.000,533.000,-295.000,1478.000,759.000,0.000,0.000,0
2026-01-30 23:29:44,1808734,6814.000,-35.000,918.000,1183.000,-2360.000,3140.000,0.000,0.000,0
2026-01-30 23:29:44,1808774,8342.000,-53.000,759.000,1653.000,-4956.000,5027.000,0.000,0.000,0
2026-01-30 23:29:44,1808814,9433.000,84.000,425.000,2597.000,-7088.000,6887.000,0.000,0.000,0
2026-01-30 23:29:44,1808854,10829.000,153.000,1175.000,4418.000,-9144.000,7955.000,0.000,0.000,0
2026-01-30 23:29:44,1808894,12217.000,-2.000,1608.000,4577.000,-10638.000,7918.000,0.000,0.000,0
2026-01-30 23:29:44,1808934,11835.000,49.000,1282.000,3001.000,-10451.000,6676.000,0.000,0.000,0
2026-01-30 23:29:44,1808974,9840.000,-141.000,1176.000,1767.000,-8519.000,5554.000,0.000,0.000,0
2026-01-30 23:29:44,1809014,6186.000,-1074.000,2011.000,1642.000,-6460.000,4093.000,0.000,0.000,0
2026-01-30 23:29:44,1809054,7323.000,-347.000,1586.000,5756.000,-7081.000,3538.000,0.000,0.000,0
2026-01-30 23:29:44,1809094,7788.000,1292.000,2189.000,8398.000,-5329.000,4245.000,0.000,0.000,0
2026-01-30 23:29:44,1809134,8880.000,2168.000,3509.000,5702.000,-4808.000,4694.000,0.000,0.000,0
2026-01-30 23:29:44,1809174,8867.000,1980.000,4570.000,1454.000,-4343.000,4579.000,0.000,0.000,0
2026-01-30 23:29:45,1809214,9045.000,1506.000,4427.000,-1827.000,-3944.000,3513.000,0.000,0.000,0
2026-01-30 23:29:45,1809254,10083.000,833.000,3467.000,-3118.000,-2413.000,1867.000,0.000,0.000,0
2026-01-30 23:29:45,1809294,10810.000,477.000,1180.000,-3818.000,-227.000,-96.000,0.000,0.000,0
2026-01-30 23:29:45,1809334,13119.000,-22.000,562.000,-3258.000,2722.000,-1974.000,0.000,0.000,0
2026-01-30 23:29:45,1809374,12098.000,-228.000,1497.000,-2401.000,6839.000,-4215.000,0.000,0.000,0
2026-01-30 23:29:45,1809414,12013.000,35.000,-39.000,-1004.000,8550.000,-6277.000,0.000,0.000,0
2026-01-30 23:29:45,1809454,12950.000,267.000,-1005.000,608.000,10303.000,-8788.000,0.000,0.000,0
2026-01-30 23:29:45,1809494,10793.000,964.000,-362.000,1728.000,10930.000,-9488.000,0.000,0.000,0
2026-01-30 23:29:45,1809534,8037.000,1515.000,-67.000,437.000,9166.000,-9438.000,0.000,0.000,0
2026-01-30 23:29:45,1809574,6908.000,1346.000,168.000,-2331.000,6553.000,-9063.000,0.000,0.000,0
2026-01-30 23:29:45,1809614,7016.000,1072.000,270.000,-5916.000,4712.000,-8630.000,0.000,0.000,0
2026-01-30 23:29:45,1809654,7096.000,830.000,103.000,-7596.000,4034.000,-7591.000,0.000,0.000,0
2026-01-30 23:29:45,1809694,7024.000,366.000,-554.000,-7281.000,4035.000,-6239.000,0.000,0.000,0
2026-01-30 23:29:45,1809734,6752.000,-497.000,-190.000,-5899.000,3994.000,-4794.000,0.000,0.000,0
2026-01-30 23:29:45,1809774,6293.000,-661.000,397.000,-3890.000,3050.000,-3006.000,0.000,0.000,0
2026-01-30 23:29:45,1809814,6057.000,-667.000,1073.000,-1702.000,998.000,-969.000,0.000,0.000,0
2026-01-30 23:29:45,1809854,7540.000,-728.000,1424.000,727.000,-3464.000,2742.000,0.000,0.000,0
2026-01-30 23:29:45,1809894,9048.000,-466.000,995.000,2761.000,-6135.000,5460.000,0.000,0.000,0
2026-01-30 23:29:45,1809934,10068.000,-30.000,869.000,5329.000,-8130.000,7855.000,0.000,0.000,0
2026-01-30 23:29:45,1809974,12346.000,301.000,872.000,7374.000,-9545.000,9314.000,0.000,0.000,0
2026-01-30 23:29:45,1810014,12925.000,667.000,1427.000,6797.000,-9527.000,9444.000,0.000,0.000,0
2026-01-30 23:29:45,1810054,10476.000,665.000,1727.000,4325.000,-8062.000,9052.000,0.000,0.000,0
2026-01-30 23:29:45,1810094,7560.000,102.000,1836.000,3855.000,-6493.000,7929.000,0.000,0.000,0
2026-01-30 23:29:45,1810134,7031.000,292.000,1497.000,5900.000,-6272.000,6692.000,0.000,0.000,0
2026-01-30 23:29:45,1810174,7906.000,1398.000,1210.000,7752.000,-5581.000,6255.000,0.000,0.000,0
2026-01-30 23:29:46,1810217,9012.000,2560.000,3231.000,4204.000,-3625.000,5369.000,0.000,0.000,0
2026-01-30 23:29:46,1810257,8726.000,2406.000,4059.000,408.000,-3072.000,4248.000,0.000,0.000,0
2026-01-30 23:29:46,1810298,8743.000,1763.000,3864.000,-2017.000,-2712.000,2592.000,0.000,0.000,0
2026-01-30 23:29:46,1810334,8848.000,2121.000,3553.000,-2590.000,-2264.000,1871.000,0.000,0.000,0
2026-01-30 23:29:46,1810374,9739.000,911.000,1820.000,-3329.000,-966.000,-124.000,0.000,0.000,0
2026-01-30 23:29:46,1810414,11797.000,768.000,801.000,-2612.000,1004.000,-2079.000,0.000,0.000,0
2026-01-30 23:29:46,1810454,11777.000,462.000,1870.000,-2232.000,3862.000,-4200.000,0.000,0.000,0
2026-01-30 23:29:46,1810494,10877.000,815.000,1634.000,-2562.000,5655.000,-6198.000,0.000,0.000,0
2026-01-30 23:29:46,1810537,13945.000,522.000,-832.000,-4196.000,7880.000,-8290.000,0.000,0.000,0
2026-01-30 23:29:46,1810576,13602.000,204.000,-1006.000,-4981.000,9019.000,-8722.000,0.000,0.000,0
2026-01-30 23:29:46,1810614,10019.000,419.000,538.000,-5797.000,9778.000,-9555.000,0.000,0.000,0
2026-01-30 23:29:46,1810654,8027.000,645.000,610.000,-6850.000,8208.000,-9023.000,0.000,0.000,0
2026-01-30 23:29:46,1810694,6768.000,324.000,233.000,-6557.000,6974.000,-8056.000,0.000,0.000,0
2026-01-30 23:29:46,1810734,6920.000,-63.000,-171.000,-5912.000,5868.000,-7098.000,0.000,0.000,0
2026-01-30 23:29:46,1810774,6477.000,-36.000,-372.000,-4934.000,5725.000,-5999.000,0.000,0.000,0
2026-01-30 23:29:46,1810814,5922.000,-204.000,-281.000,-3700.000,4790.000,-4396.000,0.000,0.000,0
2026-01-30 23:29:46,1810854,5958.000,-254.000,268.000,-1614.000,2982.000,-2775.000,0.000,0.000,0
2026-01-30 23:29:46,1810894,6217.000,-117.000,575.000,-652.000,880.000,-710.000,0.000,0.000,0
2026-01-30 23:29:46,1810934,6206.000,-110.000,1020.000,508.000,-1491.000,1432.000,0.000,0.000,0
2026-01-30 23:29:46,1810974,8846.000,-101.000,1065.000,1077.000,-4253.000,3836.000,0.000,0.000,0
2026-01-30 23:29:46,1811014,10131.000,-188.000,1078.000,1971.000,-7182.000,7138.000,0.000,0.000,0
2026-01-30 23:29:46,1811054,11177.000,-236.000,1375.000,3462.000,-8504.000,8069.000,0.000,0.000,0
2026-01-30 23:29:46,1811094,11712.000,-701.000,1823.000,4400.000,-9233.000,7548.000,0.000,0.000,0
2026-01-30 23:29:46,1811134,10492.000,-662.000,1553.000,4491.000,-8553.000,5835.000,0.000,0.000,0
2026-01-30 23:29:46,1811174,8364.000,22.000,1762.000,4344.000,-6592.000,4978.000,0.000,0.000,0
2026-01-30 23:29:47,1811214,6515.000,-328.000,1770.000,4828.000,-5676.000,4182.000,0.000,0.000,0
2026-01-30 23:29:47,1811254,6923.000,398.000,1692.000,6968.000,-5334.000,4319.000,0.000,0.000,0
2026-01-30 23:29:47,1811294,7253.000,1187.000,2006.000,7816.000,-4424.000,4955.000,0.000,0.000,0
2026-01-30 23:29:47,1811334,8163.000,1994.000,2900.000,5831.000,-4108.000,5258.000,0.000,0.000,0
2026-01-30 23:29:47,1811374,8590.000,1587.000,3834.000,830.000,-3845.000,4674.000,0.000,0.000,0
2026-01-30 23:29:47,1811414,9408.000,1532.000,3851.000,-1296.000,-3690.000,3331.000,0.000,0.000,0
2026-01-30 23:29:47,1811454,9907.000,996.000,3114.000,-2692.000,-2114.000,1376.000,0.000,0.000,0
2026-01-30 23:29:47,1811494,10733.000,366.000,1143.000,-2605.000,-115.000,-864.000,0.000,0.000,0
2026-01-30 23:29:47,1811534,12421.000,163.000,903.000,-1792.000,2413.000,-2967.000,0.000,0.000,0
2026-01-30 23:29:47,1811574,11362.000,44.000,1773.000,-1249.000,5519.000,-5097.000,0.000,0.000,0
2026-01-30 23:29:47,1811614,11635.000,220.000,563.000,-883.000,6642.000,-7101.000,0.000,0.000,0
2026-01-30 23:29:47,1811654,12743.000,78.000,-676.000,-1226.000,8151.000,-8841.000,0.000,0.000,0
2026-01-30 23:29:47,1811694,11757.000,232.000,-371.000,-2379.000,9288.000,-9448.000,0.000,0.000,0
2026-01-30 23:29:47,1811734,8619.000,1037.000,962.000,-4593.000,8777.000,-9137.000,0.000,0.000,0
2026-01-30 23:29:47,1811774,6388.000,306.000,809.000,-7626.000,6423.000,-7344.000,0.000,0.000,0
2026-01-30 23:29:47,1811814,5717.000,-523.000,306.000,-7029.000,4942.000,-6572.000,0.000,0.000,0
2026-01-30 23:29:47,1811854,5533.000,-361.000,99.000,-5037.000,4139.000,-5408.000,0.000,0.000,0
2026-01-30 23:29:47,1811894,5509.000,-192.000,99.000,-3240.000,3314.000,-3679.000,0.000,0.000,0
2026-01-30 23:29:47,1811934,5524.000,-158.000,281.000,-1980.000,2275.000,-1614.000,0.000,0.000,0
2026-01-30 23:29:47,1811974,5833.000,63.000,689.000,-878.000,508.000,643.000,0.000,0.000,0
2026-01-30 23:29:47,1812014,6397.000,6.000,751.000,196.000,-1477.000,2587.000,0.000,0.000,0
2026-01-30 23:29:47,1812054,7134.000,49.000,946.000,1406.000,-3694.000,4284.000,0.000,0.000,0
2026-01-30 23:29:47,1812094,10005.000,104.000,588.000,2377.000,-6073.000,6140.000,0.000,0.000,0
2026-01-30 23:29:47,1812134,11283.000,541.000,1615.000,3610.000,-7691.000,7749.000,0.000,0.000,0
2026-01-30 23:29:47,1812174,11033.000,88.000,2166.000,2694.000,-8355.000,6979.000,0.000,0.000,0
2026-01-30 23:29:48,1812217,10718.000,-206.000,1191.000,1325.000,-6702.000,4045.000,0.000,0.000,0
2026-01-30 23:29:48,1812257,7930.000,-1593.000,1499.000,560.000,-4457.000,2050.000,0.000,0.000,0
2026-01-30 23:29:48,1812294,7193.000,-1364.000,1888.000,3100.000,-4146.000,1684.000,0.000,0.000,0
2026-01-30 23:29:48,1812334,6222.000,-388.000,2480.000,6685.000,-2863.000,1056.000,0.000,0.000,0
2026-01-30 23:29:48,1812374,5441.000,549.000,2269.000,7808.000,-2333.000,1284.000,0.000,0.000,0
2026-01-30 23:29:48,1812414,6073.000,1474.000,2384.000,6669.000,-2270.000,2061.000,0.000,0.000,0
2026-01-30 23:29:48,1812454,7292.000,1731.000,3091.000,3283.000,-2632.000,2699.000,0.000,0.000,0
2026-01-30 23:29:48,1812494,7979.000,1151.000,3793.000,-333.000,-2550.000,3004.000,0.000,0.000,0
2026-01-30 23:29:48,1812534,8565.000,548.000,2828.000,-3111.000,-2452.000,2079.000,0.000,0.000,0
2026-01-30 23:29:48,1812574,9949.000,200.000,1856.000,-2836.000,-1246.000,840.000,0.000,0.000,0
2026-01-30 23:29:48,1812614,11079.000,83.000,611.000,-1831.000,497.000,-817.000,0.000,0.000,0
2026-01-30 23:29:48,1812654,12739.000,256.000,523.000,-306.000,2301.000,-2541.000,0.000,0.000,0
2026-01-30 23:29:48,1812694,11389.000,392.000,2332.000,-401.000,4230.000,-4049.000,0.000,0.000,0
2026-01-30 23:29:48,1812734,10516.000,915.000,1569.000,-1602.000,4638.000,-5190.000,0.000,0.000,0
2026-01-30 23:29:48,1812774,10861.000,497.000,-229.000,-3167.000,5607.000,-5543.000,0.000,0.000,0
2026-01-30 23:29:48,1812814,10786.000,357.000,-685.000,-3926.000,6723.000,-5561.000,0.000,0.000,0
2026-01-30 23:29:48,1812854,9437.000,666.000,-49.000,-4445.000,7158.000,-5259.000,0.000,0.000,0
2026-01-30 23:29:48,1812894,6356.000,281.000,836.000,-4827.000,5690.000,-4570.000,0.000,0.000,0
2026-01-30 23:29:48,1812934,5576.000,-100.000,574.000,-3408.000,4662.000,-4783.000,0.000,0.000,0
2026-01-30 23:29:48,1812974,5546.000,105.000,506.000,-2417.000,3920.000,-4951.000,0.000,0.000,0
2026-01-30 23:29:48,1813014,5979.000,114.000,244.000,-2365.000,3372.000,-4069.000,0.000,0.000,0
2026-01-30 23:29:48,1813054,5703.000,119.000,450.000,-1943.000,2547.000,-2598.000,0.000,0.000,0
2026-01-30 23:29:48,1813094,5805.000,139.000,751.000,-1424.000,867.000,-791.000,0.000,0.000,0
2026-01-30 23:29:48,1813134,6873.000,274.000,1026.000,-507.000,-1252.000,1238.000,0.000,0.000,0
2026-01-30 23:29:48,1813174,7425.000,82.000,1397.000,209.000,-3313.000,2990.000,0.000,0.000,0
2026-01-30 23:29:49,1813214,9390.000,30.000,1347.000,424.000,-5458.000,4447.000,0.000,0.000,0
2026-01-30 23:29:49,1813254,10969.000,97.000,1481.000,787.000,-6733.000,5835.000,0.000,0.000,0
2026-01-30 23:29:49,1813294,10420.000,-253.000,2141.000,960.000,-7110.000,6057.000,0.000,0.000,0
2026-01-30 23:29:49,1813334,10987.000,-502.000,1619.000,671.000,-6841.000,4422.000,0.000,0.000,0
2026-01-30 23:29:49,1813374,9686.000,-1010.000,1044.000,-668.000,-4450.000,2445.000,0.000,0.000,0
2026-01-30 23:29:49,1813414,7386.000,-1902.000,989.000,1158.000,-2403.000,515.000,0.000,0.000,0
2026-01-30 23:29:49,1813454,6103.000,-879.000,1983.000,5322.000,-1522.000,10.000,0.000,0.000,0
2026-01-30 23:29:49,1813494,5063.000,0.000,2028.000,6964.000,-1015.000,151.000,0.000,0.000,0
2026-01-30 23:29:49,1813534,5238.000,1179.000,2132.000,6818.000,-1261.000,902.000,0.000,0.000,0
2026-01-30 23:29:49,1813574,5575.000,1390.000,2477.000,4043.000,-1657.000,1733.000,0.000,0.000,0
2026-01-30 23:29:49,1813614,6665.000,1317.000,2817.000,1334.000,-2593.000,2428.000,0.000,0.000,0
2026-01-30 23:29:49,1813654,8416.000,890.000,3362.000,-2726.000,-3388.000,2580.000,0.000,0.000,0
2026-01-30 23:29:49,1813694,9599.000,179.000,2770.000,-3991.000,-2798.000,2000.000,0.000,0.000,0
2026-01-30 23:29:49,1813734,10370.000,-336.000,1543.000,-2945.000,-1181.000,745.000,0.000,0.000,0
2026-01-30 23:29:49,1813774,12095.000,-90.000,528.000,-768.000,496.000,-862.000,0.000,0.000,0
2026-01-30 23:29:49,1813814,12394.000,222.000,1544.000,-316.000,2735.000,-2371.000,0.000,0.000,0
2026-01-30 23:29:49,1813854,10587.000,441.000,2121.000,-716.000,4412.000,-3370.000,0.000,0.000,0
2026-01-30 23:29:49,1813894,10947.000,634.000,165.000,-990.000,4831.000,-4304.000,0.000,0.000,0
2026-01-30 23:29:49,1813934,10372.000,359.000,-559.000,-1640.000,6227.000,-4965.000,0.000,0.000,0
2026-01-30 23:29:49,1813974,9226.000,1112.000,-173.000,-2695.000,6703.000,-4782.000,0.000,0.000,0
2026-01-30 23:29:49,1814014,7390.000,1582.000,779.000,-4994.000,6068.000,-4099.000,0.000,0.000,0
2026-01-30 23:29:49,1814054,5732.000,687.000,408.000,-6281.000,4164.000,-3542.000,0.000,0.000,0
2026-01-30 23:29:49,1814094,5750.000,1318.000,390.000,-5435.000,3205.000,-4142.000,0.000,0.000,0
2026-01-30 23:29:49,1814134,5833.000,1605.000,303.000,-5711.000,2952.000,-4303.000,0.000,0.000,0
2026-01-30 23:29:49,1814174,6217.000,2328.000,856.000,-4739.000,2300.000,-4370.000,0.000,0.000,0
2026-01-30 23:29:50,1814214,6129.000,3032.000,2243.000,-3870.000,1681.000,-4647.000,0.000,0.000,0
2026-01-30 23:29:50,1814257,6874.000,4198.000,3033.000,-3259.000,454.000,-5543.000,0.000,0.000,0
2026-01-30 23:29:50,1814296,6296.000,4454.000,3299.000,-2095.000,277.000,-6627.000,0.000,0.000,0
2026-01-30 23:29:50,1814334,6700.000,4588.000,3461.000,-1521.000,-193.000,-6772.000,0.000,0.000,0
2026-01-30 23:29:50,1814374,6927.000,4880.000,3794.000,-685.000,-1024.000,-6680.000,0.000,0.000,0
2026-01-30 23:29:50,1814414,7998.000,5184.000,3933.000,-1697.000,-3144.000,-6161.000,0.000,0.000,0
2026-01-30 23:29:50,1814454,8202.000,3528.000,3128.000,-2183.000,-3954.000,-6159.000,0.000,0.000,0
2026-01-30 23:29:50,1814494,7834.000,2864.000,2208.000,-2057.000,-3398.000,-6172.000,0.000,0.000,0
2026-01-30 23:29:50,1814537,6703.000,1433.000,1566.000,-4113.000,-2778.000,-3193.000,0.000,0.000,0
2026-01-30 23:29:50,1814574,6508.000,987.000,1305.000,-4573.000,-2814.000,-2226.000,0.000,0.000,0
2026-01-30 23:29:50,1814614,7029.000,506.000,2411.000,-4366.000,-2108.000,-530.000,0.000,0.000,0
2026-01-30 23:29:50,1814654,6248.000,-39.000,4984.000,-3454.000,-378.000,1086.000,0.000,0.000,0
2026-01-30 23:29:50,1814694,5634.000,806.000,4364.000,-1297.000,726.000,520.000,0.000,0.000,0
2026-01-30 23:29:50,1814734,5563.000,2860.000,3524.000,1925.000,649.000,-239.000,0.000,0.000,0
2026-01-30 23:29:50,1814774,6097.000,4262.000,4865.000,1140.000,-364.000,-473.000,0.000,0.000,0
2026-01-30 23:29:50,1814814,7094.000,4042.000,4945.000,-2598.000,866.000,-1786.000,0.000,0.000,0
2026-01-30 23:29:50,1814854,5968.000,5600.000,5495.000,500.000,1062.000,-2858.000,0.000,0.000,0
2026-01-30 23:29:50,1814894,4929.000,3323.000,3766.000,1973.000,343.000,-2663.000,0.000,0.000,0
2026-01-30 23:29:50,1814934,6023.000,4930.000,3668.000,2416.000,-1332.000,-1537.000,0.000,0.000,0
2026-01-30 23:29:50,1814974,5693.000,6056.000,3667.000,4685.000,-2084.000,-696.000,0.000,0.000,0
2026-01-30 23:29:50,1815014,4719.000,6014.000,2875.000,2331.000,-3374.000,712.000,0.000,0.000,0
2026-01-30 23:29:50,1815054,5272.000,4445.000,2858.000,535.000,-4265.000,1965.000,0.000,0.000,0
2026-01-30 23:29:50,1815094,5628.000,6133.000,2110.000,1468.000,-3847.000,1903.000,0.000,0.000,0
2026-01-30 23:29:50,1815134,7389.000,7712.000,3085.000,-411.000,-3009.000,1315.000,0.000,0.000,0
2026-01-30 23:29:50,1815174,5579.000,3626.000,2220.000,-2557.000,-237.000,1351.000,0.000,0.000,0
2026-01-30 23:29:51,1815214,5753.000,3995.000,3674.000,-1033.000,28.000,599.000,0.000,0.000,0
2026-01-30 23:29:51,1815254,5775.000,4164.000,3265.000,-181.000,1177.000,-86.000,0.000,0.000,0
2026-01-30 23:29:51,1815294,5538.000,5805.000,2166.000,716.000,1400.000,-588.000,0.000,0.000,0
2026-01-30 23:29:51,1815334,5923.000,4610.000,4148.000,-2339.000,895.000,-392.000,0.000,0.000,0
2026-01-30 23:29:51,1815374,5723.000,3576.000,3466.000,-949.000,488.000,-829.000,0.000,0.000,0
2026-01-30 23:29:51,1815414,5397.000,5913.000,2879.000,1406.000,-112.000,-1159.000,0.000,0.000,0
2026-01-30 23:29:51,1815454,6454.000,5419.000,3689.000,-832.000,-1059.000,-540.000,0.000,0.000,0
2026-01-30 23:29:51,1815494,5315.000,4896.000,3352.000,-942.000,-932.000,-588.000,0.000,0.000,0
2026-01-30 23:29:51,1815534,6803.000,6621.000,4487.000,75.000,-1986.000,308.000,0.000,0.000,0
2026-01-30 23:29:51,1815574,6331.000,4884.000,2227.000,-1056.000,-1134.000,2078.000,0.000,0.000,0
2026-01-30 23:29:51,1815614,6627.000,3840.000,1255.000,-1748.000,-913.000,2217.000,0.000,0.000,0
2026-01-30 23:29:51,1815654,6679.000,3180.000,1209.000,-928.000,459.000,2169.000,0.000,0.000,0
2026-01-30 23:29:51,1815694,6864.000,3473.000,1712.000,1172.000,1245.000,1919.000,0.000,0.000,0
2026-01-30 23:29:51,1815734,5504.000,3674.000,2367.000,2261.000,1894.000,1786.000,0.000,0.000,0
2026-01-30 23:29:51,1815774,6161.000,4058.000,3306.000,1560.000,1257.000,1724.000,0.000,0.000,0
2026-01-30 23:29:51,1815814,6044.000,3044.000,2564.000,-501.000,1268.000,984.000,0.000,0.000,0
2026-01-30 23:29:51,1815854,6093.000,2373.000,2470.000,122.000,1071.000,-246.000,0.000,0.000,0
2026-01-30 23:29:51,1815894,6532.000,3756.000,3295.000,597.000,948.000,-1241.000,0.000,0.000,0
2026-01-30 23:29:51,1815934,6188.000,4093.000,3129.000,-725.000,1132.000,-2212.000,0.000,0.000,0
2026-01-30 23:29:51,1815974,6470.000,3057.000,5392.000,-450.000,705.000,-2346.000,0.000,0.000,0
2026-01-30 23:29:51,1816014,5960.000,4851.000,3887.000,814.000,542.000,-2482.000,0.000,0.000,0
2026-01-30 23:29:51,1816054,6334.000,3590.000,2336.000,-810.000,368.000,-2348.000,0.000,0.000,0
2026-01-30 23:29:51,1816094,6168.000,5825.000,4106.000,1319.000,-98.000,-1977.000,0.000,0.000,0
2026-01-30 23:29:51,1816134,6591.000,5428.000,6118.000,40.000,-952.000,-444.000,0.000,0.000,0
2026-01-30 23:29:51,1816174,5325.000,4038.000,2083.000,-1735.000,-1410.000,65.000,0.000,0.000,0
2026-01-30 23:29:52,1816214,5916.000,4038.000,1872.000,-676.000,-1721.000,791.000,0.000,0.000,0
2026-01-30 23:29:52,1816254,5623.000,4820.000,3711.000,798.000,-948.000,1383.000,0.000,0.000,0
2026-01-30 23:29:52,1816294,6315.000,5420.000,2003.000,576.000,-206.000,1569.000,0.000,0.000,0
2026-01-30 23:29:52,1816334,5515.000,5128.000,3846.000,210.000,393.000,2662.000,0.000,0.000,0
2026-01-30 23:29:52,1816374,5642.000,3343.000,3366.000,-813.000,672.000,2371.000,0.000,0.000,0
2026-01-30 23:29:52,1816414,5722.000,3723.000,2450.000,-405.000,778.000,1624.000,0.000,0.000,0
2026-01-30 23:29:52,1816454,6100.000,3957.000,3137.000,-732.000,649.000,709.000,0.000,0.000,0
2026-01-30 23:29:52,1816494,6085.000,3690.000,3961.000,-774.000,1016.000,189.000,0.000,0.000,0
2026-01-30 23:29:52,1816537,5565.000,3920.000,3523.000,-2648.000,1594.000,-564.000,0.000,0.000,0
2026-01-30 23:29:52,1816574,5713.000,3802.000,3806.000,-2613.000,1320.000,-991.000,0.000,0.000,0
2026-01-30 23:29:52,1816614,5448.000,4726.000,4725.000,-703.000,811.000,-1299.000,0.000,0.000,0
2026-01-30 23:29:52,1816654,6613.000,5092.000,4363.000,-3157.000,10.000,-390.000,0.000,0.000,0
2026-01-30 23:29:52,1816694,6787.000,5136.000,5559.000,-2920.000,-1048.000,1361.000,0.000,0.000,0
2026-01-30 23:29:52,1816734,7966.000,2374.000,6862.000,-3499.000,-1110.000,758.000,0.000,0.000,0
2026-01-30 23:29:52,1816774,5339.000,1736.000,2149.000,1849.000,-1324.000,1372.000,0.000,0.000,0
2026-01-30 23:29:52,1816814,6666.000,830.000,1269.000,985.000,-1579.000,1384.000,0.000,0.000,0
2026-01-30 23:29:52,1816854,6975.000,5410.000,4708.000,3727.000,-207.000,750.000,0.000,0.000,0
2026-01-30 23:29:52,1816894,6840.000,4112.000,2341.000,2403.000,1503.000,1455.000,0.000,0.000,0
2026-01-30 23:29:52,1816934,6680.000,828.000,4584.000,2366.000,2055.000,1943.000,0.000,0.000,0
2026-01-30 23:29:52,1816974,6201.000,2595.000,4333.000,1246.000,1936.000,1546.000,0.000,0.000,0
2026-01-30 23:29:52,1817014,6601.000,1586.000,4663.000,-838.000,2034.000,1729.000,0.000,0.000,0
2026-01-30 23:29:52,1817054,6917.000,1602.000,4583.000,-437.000,2444.000,1081.000,0.000,0.000,0
2026-01-30 23:29:52,1817094,6447.000,2280.000,4457.000,-1264.000,2067.000,351.000,0.000,0.000,0
2026-01-30 23:29:52,1817134,6331.000,1725.000,5709.000,-447.000,2083.000,38.000,0.000,0.000,0
2026-01-30 23:29:52,1817174,5337.000,3501.000,4279.000,-616.000,2341.000,-378.000,0.000,0.000,0
2026-01-30 23:29:53,1817214,5844.000,2473.000,5821.000,-702.000,2116.000,-479.000,0.000,0.000,0
2026-01-30 23:29:53,1817254,4915.000,3227.000,5890.000,-97.000,2205.000,-769.000,0.000,0.000,0
2026-01-30 23:29:53,1817294,5351.000,3062.000,5080.000,403.000,1541.000,-644.000,0.000,0.000,0
2026-01-30 23:29:53,1817334,4945.000,3430.000,6950.000,1096.000,905.000,-506.000,0.000,0.000,0
2026-01-30 23:29:53,1817374,5489.000,4390.000,6733.000,1100.000,-133.000,0.000,0.000,0.000,0
2026-01-30 23:29:53,1817414,4635.000,1884.000,6031.000,-509.000,28.000,412.000,0.000,0.000,0
2026-01-30 23:29:53,1817454,5211.000,2254.000,6674.000,-322.000,233.000,108.000,0.000,0.000,0
2026-01-30 23:29:53,1817494,5797.000,3347.000,6451.000,-1449.000,-222.000,263.000,0.000,0.000,0
2026-01-30 23:29:53,1817534,3933.000,931.000,6812.000,-896.000,-470.000,1487.000,0.000,0.000,0
2026-01-30 23:29:53,1817574,7781.000,2883.000,7754.000,-863.000,-2091.000,2256.000,0.000,0.000,0
2026-01-30 23:29:53,1817614,3490.000,845.000,5205.000,-2725.000,-116.000,2519.000,0.000,0.000,0
2026-01-30 23:29:53,1817654,5929.000,1927.000,7067.000,-2331.000,-1262.000,2803.000,0.000,0.000,0
2026-01-30 23:29:53,1817694,4785.000,2027.000,5793.000,-3297.000,-58.000,2827.000,0.000,0.000,0
2026-01-30 23:29:53,1817734,5977.000,2170.000,6227.000,-3621.000,-3.000,2419.000,0.000,0.000,0
2026-01-30 23:29:53,1817774,4955.000,981.000,5736.000,-5110.000,163.000,1403.000,0.000,0.000,0
2026-01-30 23:29:53,1817814,5921.000,1599.000,4464.000,-4698.000,-667.000,1037.000,0.000,0.000,0
2026-01-30 23:29:53,1817854,7087.000,504.000,4059.000,-2611.000,-1284.000,366.000,0.000,0.000,0
2026-01-30 23:29:53,1817894,5838.000,671.000,5209.000,-2371.000,-915.000,56.000,0.000,0.000,0
2026-01-30 23:29:53,1817934,6365.000,630.000,5819.000,-595.000,-1855.000,388.000,0.000,0.000,0
2026-01-30 23:29:53,1817974,5809.000,16.000,5919.000,-629.000,-2440.000,408.000,0.000,0.000,0
2026-01-30 23:29:53,1818014,6211.000,58.000,7007.000,-2010.000,-2318.000,-349.000,0.000,0.000,0
2026-01-30 23:29:53,1818054,6372.000,1325.000,5610.000,-3605.000,-1216.000,-420.000,0.000,0.000,0
2026-01-30 23:29:53,1818094,6885.000,-28.000,5854.000,-5513.000,-134.000,8.000,0.000,0.000,0
2026-01-30 23:29:53,1818134,5565.000,-1016.000,5206.000,-4858.000,1707.000,-404.000,0.000,0.000,0
2026-01-30 23:29:53,1818174,5988.000,-1685.000,5873.000,-3464.000,1889.000,-850.000,0.000,0.000,0
2026-01-30 23:29:54,1818214,5579.000,-1324.000,5022.000,-3059.000,2688.000,-773.000,0.000,0.000,0
2026-01-30 23:29:54,1818254,5088.000,-1953.000,4972.000,-4239.000,3464.000,-637.000,0.000,0.000,0
2026-01-30 23:29:54,1818294,4802.000,-923.000,5496.000,-3164.000,2993.000,-945.000,0.000,0.000,0
2026-01-30 23:29:54,1818334,5990.000,-2637.000,5828.000,-5281.000,2858.000,-1203.000,0.000,0.000,0
2026-01-30 23:29:54,1818374,4729.000,-1786.000,6023.000,-4174.000,3711.000,-1999.000,0.000,0.000,0
2026-01-30 23:29:54,1818414,4166.000,-1418.000,7312.000,-6720.000,3273.000,-2620.000,0.000,0.000,0
2026-01-30 23:29:54,1818454,5086.000,-1123.000,9244.000,-5089.000,2794.000,-3037.000,0.000,0.000,0
2026-01-30 23:29:54,1818494,5451.000,-871.000,8535.000,-3066.000,1687.000,-2882.000,0.000,0.000,0
2026-01-30 23:29:54,1818537,4176.000,-2084.000,8100.000,-3078.000,283.000,-3028.000,0.000,0.000,0
2026-01-30 23:29:54,1818574,4386.000,-2653.000,7484.000,-3344.000,53.000,-3064.000,0.000,0.000,0
2026-01-30 23:29:54,1818614,4750.000,-1960.000,6093.000,-3261.000,42.000,-2612.000,0.000,0.000,0
2026-01-30 23:29:54,1818654,5601.000,-2084.000,5801.000,-1837.000,-268.000,-1777.000,0.000,0.000,0
2026-01-30 23:29:54,1818694,5524.000,-2104.000,4338.000,-1419.000,-471.000,-1175.000,0.000,0.000,0
2026-01-30 23:29:54,1818734,5852.000,-3137.000,3635.000,-1641.000,-765.000,-512.000,0.000,0.000,0
2026-01-30 23:29:54,1818774,6278.000,-2390.000,4920.000,102.000,-1165.000,-277.000,0.000,0.000,0
2026-01-30 23:29:54,1818814,5879.000,-2941.000,4864.000,-635.000,-300.000,-438.000,0.000,0.000,0
2026-01-30 23:29:54,1818854,5489.000,-2097.000,4740.000,-1921.000,278.000,-830.000,0.000,0.000,0
2026-01-30 23:29:54,1818894,6009.000,-1826.000,6469.000,-2594.000,697.000,-1177.000,0.000,0.000,0
2026-01-30 23:29:54,1818934,5582.000,-2047.000,5574.000,-3424.000,1452.000,-1492.000,0.000,0.000,0
2026-01-30 23:29:54,1818974,5831.000,-2385.000,8098.000,-2700.000,1742.000,-1965.000,0.000,0.000,0
2026-01-30 23:29:54,1819014,5257.000,-2676.000,5120.000,-1261.000,1097.000,-1693.000,0.000,0.000,0
2026-01-30 23:29:54,1819054,5412.000,-2193.000,4083.000,260.000,-118.000,-1101.000,0.000,0.000,0
2026-01-30 23:29:54,1819094,5319.000,-2507.000,4855.000,355.000,-442.000,-1247.000,0.000,0.000,0
2026-01-30 23:29:54,1819134,5374.000,-1985.000,5878.000,-2514.000,121.000,-1278.000,0.000,0.000,0
2026-01-30 23:29:54,1819174,5214.000,-1627.000,6734.000,-3698.000,783.000,-864.000,0.000,0.000,0
2026-01-30 23:29:55,1819214,5555.000,-4201.000,5862.000,-2139.000,836.000,77.000,0.000,0.000,0
2026-01-30 23:29:55,1819254,5114.000,-2493.000,6833.000,1388.000,577.000,65.000,0.000,0.000,0
2026-01-30 23:29:55,1819294,5117.000,-4375.000,4789.000,-10.000,662.000,96.000,0.000,0.000,0
2026-01-30 23:29:55,1819334,4899.000,-4937.000,5000.000,-490.000,896.000,-646.000,0.000,0.000,0
2026-01-30 23:29:55,1819374,4243.000,-596.000,5873.000,1129.000,2219.000,-2051.000,0.000,0.000,0
2026-01-30 23:29:55,1819414,6197.000,-2831.000,5388.000,880.000,2089.000,-1357.000,0.000,0.000,0
2026-01-30 23:29:55,1819454,3865.000,-3570.000,3954.000,1777.000,3347.000,-2572.000,0.000,0.000,0
2026-01-30 23:29:55,1819494,5445.000,-429.000,8021.000,4592.000,2437.000,-3372.000,0.000,0.000,0
2026-01-30 23:29:55,1819534,4478.000,-1344.000,7312.000,801.000,3321.000,-3445.000,0.000,0.000,0
2026-01-30 23:29:55,1819574,4149.000,386.000,5798.000,201.000,3067.000,-3982.000,0.000,0.000,0
2026-01-30 23:29:55,1819614,4814.000,1257.000,7313.000,-149.000,2241.000,-3877.000,0.000,0.000,0
2026-01-30 23:29:55,1819654,5703.000,569.000,9774.000,252.000,829.000,-2522.000,0.000,0.000,0
2026-01-30 23:29:55,1819694,4097.000,-998.000,7925.000,-86.000,-504.000,-1924.000,0.000,0.000,0
2026-01-30 23:29:55,1819734,4428.000,1080.000,8101.000,-1623.000,-1436.000,-1913.000,0.000,0.000,0
2026-01-30 23:29:55,1819774,4633.000,692.000,7324.000,-2917.000,-1636.000,-1449.000,0.000,0.000,0
2026-01-30 23:29:55,1819814,4635.000,-977.000,5726.000,-2787.000,-1253.000,-1072.000,0.000,0.000,0
2026-01-30 23:29:55,1819854,5096.000,-696.000,6106.000,-1863.000,-1213.000,-1093.000,0.000,0.000,0
2026-01-30 23:29:55,1819894,5374.000,-93.000,6725.000,-826.000,-854.000,-982.000,0.000,0.000,0
2026-01-30 23:29:55,1819934,4918.000,-1329.000,4802.000,464.000,88.000,-1176.000,0.000,0.000,0
2026-01-30 23:29:55,1819974,5048.000,1221.000,6779.000,2583.000,668.000,-1685.000,0.000,0.000,0
2026-01-30 23:29:55,1820014,5226.000,210.000,6588.000,-409.000,1270.000,-1565.000,0.000,0.000,0
2026-01-30 23:29:55,1820054,5165.000,40.000,6241.000,-550.000,977.000,-1535.000,0.000,0.000,0
2026-01-30 23:29:55,1820094,5723.000,1529.000,8103.000,-476.000,723.000,-1251.000,0.000,0.000,0
2026-01-30 23:29:55,1820134,5548.000,1674.000,3769.000,-3544.000,244.000,457.000,0.000,0.000,0
2026-01-30 23:29:55,1820174,6849.000,1847.000,4875.000,-7513.000,-1245.000,1966.000,0.000,0.000,0
2026-01-30 23:29:56,1820214,5049.000,-3658.000,5259.000,-7348.000,-309.000,763.000,0.000,0.000,0
2026-01-30 23:29:56,1820254,5671.000,-4558.000,6792.000,551.000,-548.000,-945.000,0.000,0.000,0
2026-01-30 23:29:56,1820294,6585.000,-3467.000,6488.000,2823.000,-500.000,-618.000,0.000,0.000,0
2026-01-30 23:29:56,1820334,5757.000,-2566.000,5481.000,5267.000,-612.000,-1189.000,0.000,0.000,0
2026-01-30 23:29:56,1820374,4659.000,-1527.000,6512.000,6274.000,-154.000,-1679.000,0.000,0.000,0
2026-01-30 23:29:56,1820414,4062.000,-669.000,7653.000,2266.000,-566.000,-925.000,0.000,0.000,0
2026-01-30 23:29:56,1820454,4684.000,-2109.000,7920.000,-474.000,-1181.000,197.000,0.000,0.000,0
2026-01-30 23:29:56,1820494,4565.000,-1930.000,6773.000,-1463.000,-187.000,609.000,0.000,0.000,0
2026-01-30 23:29:56,1820537,3949.000,-1148.000,6040.000,-2257.000,406.000,957.000,0.000,0.000,0
2026-01-30 23:29:56,1820574,3677.000,-273.000,5472.000,-2398.000,355.000,721.000,0.000,0.000,0
2026-01-30 23:29:56,1820614,5072.000,-733.000,5901.000,-4232.000,999.000,617.000,0.000,0.000,0
2026-01-30 23:29:56,1820654,5142.000,-380.000,7765.000,-3348.000,1871.000,-552.000,0.000,0.000,0
2026-01-30 23:29:56,1820694,6523.000,435.000,5291.000,-1043.000,2163.000,-1614.000,0.000,0.000,0
2026-01-30 23:29:56,1820734,6691.000,-58.000,5977.000,2289.000,2552.000,-3154.000,0.000,0.000,0
2026-01-30 23:29:56,1820774,6277.000,509.000,6864.000,4509.000,202.000,-3144.000,0.000,0.000,0
2026-01-30 23:29:56,1820814,5128.000,-1628.000,4809.000,4519.000,-678.000,-2449.000,0.000,0.000,0
2026-01-30 23:29:56,1820854,6470.000,2458.000,7182.000,2727.000,-1241.000,-1555.000,0.000,0.000,0
2026-01-30 23:29:56,1820894,5399.000,56.000,4073.000,3465.000,-322.000,-1165.000,0.000,0.000,0
2026-01-30 23:29:56,1820934,5660.000,1415.000,4426.000,3665.000,-1247.000,-649.000,0.000,0.000,0
2026-01-30 23:29:56,1820974,6939.000,480.000,6158.000,1355.000,-1849.000,-146.000,0.000,0.000,0
2026-01-30 23:29:56,1821014,5450.000,-3618.000,4815.000,2129.000,-651.000,-197.000,0.000,0.000,0
2026-01-30 23:29:56,1821054,6395.000,1480.000,6416.000,3965.000,-421.000,-456.000,0.000,0.000,0
2026-01-30 23:29:56,1821094,6063.000,832.000,6733.000,2511.000,-6.000,-350.000,0.000,0.000,0
2026-01-30 23:29:56,1821134,6716.000,781.000,5741.000,3339.000,451.000,-261.000,0.000,0.000,0
2026-01-30 23:29:56,1821174,6636.000,2138.000,7066.000,2372.000,755.000,284.000,0.000,0.000,0
2026-01-30 23:29:57,1821214,5224.000,2360.000,5954.000,3163.000,522.000,232.000,0.000,0.000,0
2026-01-30 23:29:57,1821254,5364.000,1913.000,4814.000,3001.000,1139.000,-247.000,0.000,0.000,0
2026-01-30 23:29:57,1821294,3261.000,2453.000,3590.000,249.000,1110.000,143.000,0.000,0.000,0
2026-01-30 23:29:57,1821334,6182.000,2392.000,6221.000,-3686.000,-511.000,1895.000,0.000,0.000,0
2026-01-30 23:29:57,1821374,6194.000,704.000,8010.000,-3884.000,848.000,2512.000,0.000,0.000,0
2026-01-30 23:29:57,1821414,6613.000,2589.000,6506.000,-193.000,1530.000,2306.000,0.000,0.000,0
2026-01-30 23:29:57,1821454,6486.000,382.000,4544.000,16.000,1290.000,2682.000,0.000,0.000,0
2026-01-30 23:29:57,1821494,6521.000,947.000,5099.000,3399.000,978.000,3098.000,0.000,0.000,0
2026-01-30 23:29:57,1821534,7397.000,1851.000,4526.000,2679.000,1238.000,2550.000,0.000,0.000,0
2026-01-30 23:29:57,1821574,8883.000,1476.000,2189.000,4759.000,2860.000,225.000,0.000,0.000,0
2026-01-30 23:29:57,1821614,8332.000,3174.000,3621.000,6474.000,5536.000,-3011.000,0.000,0.000,0
2026-01-30 23:29:57,1821654,7470.000,3230.000,3235.000,5323.000,2268.000,-5157.000,0.000,0.000,0
2026-01-30 23:29:57,1821694,6867.000,4004.000,3171.000,3338.000,-358.000,-4685.000,0.000,0.000,0
2026-01-30 23:29:57,1821734,5953.000,3290.000,4244.000,1814.000,-2736.000,-3776.000,0.000,0.000,0
2026-01-30 23:29:57,1821774,5202.000,2563.000,5869.000,4060.000,-6064.000,-2829.000,0.000,0.000,0
2026-01-30 23:29:57,1821814,5137.000,2465.000,4849.000,4875.000,-7856.000,-1304.000,0.000,0.000,0
2026-01-30 23:29:57,1821854,6036.000,5005.000,3457.000,4706.000,-7977.000,329.000,0.000,0.000,0
2026-01-30 23:29:57,1821894,6559.000,3868.000,4892.000,4587.000,-7316.000,1882.000,0.000,0.000,0
2026-01-30 23:29:57,1821934,6689.000,4543.000,6459.000,4014.000,-5940.000,3383.000,0.000,0.000,0
2026-01-30 23:29:57,1821974,5568.000,2606.000,4033.000,5919.000,-4474.000,5590.000,0.000,0.000,0
2026-01-30 23:29:57,1822014,4408.000,3309.000,1968.000,9356.000,-2717.000,6615.000,0.000,0.000,0
2026-01-30 23:29:57,1822054,5562.000,6177.000,2358.000,6192.000,-1992.000,7044.000,0.000,0.000,0
2026-01-30 23:29:57,1822094,6113.000,5162.000,1796.000,3652.000,-1739.000,7354.000,0.000,0.000,0
2026-01-30 23:29:57,1822134,7226.000,6172.000,1159.000,4471.000,-1531.000,6591.000,0.000,0.000,0
2026-01-30 23:29:57,1822174,7288.000,5879.000,391.000,4940.000,-1087.000,4978.000,0.000,0.000,0
2026-01-30 23:29:58,1822214,7608.000,4750.000,172.000,4679.000,-1601.000,3634.000,0.000,0.000,0
2026-01-30 23:29:58,1822257,7988.000,3362.000,-924.000,2605.000,-1669.000,1974.000,0.000,0.000,0
2026-01-30 23:29:58,1822294,8309.000,3094.000,-1367.000,1636.000,-1773.000,1688.000,0.000,0.000,0
2026-01-30 23:29:58,1822334,8681.000,2238.000,-1206.000,-413.000,-1628.000,991.000,0.000,0.000,0
2026-01-30 23:29:58,1822374,8597.000,1466.000,-1061.000,-1137.000,-1420.000,336.000,0.000,0.000,0
2026-01-30 23:29:58,1822414,7572.000,721.000,-1383.000,947.000,-857.000,-610.000,0.000,0.000,0
2026-01-30 23:29:58,1822454,7421.000,104.000,-1231.000,3852.000,-486.000,-874.000,0.000,0.000,0
2026-01-30 23:29:58,1822494,7970.000,1498.000,-665.000,6181.000,-459.000,-514.000,0.000,0.000,0
2026-01-30 23:29:58,1822537,8039.000,1517.000,-928.000,3937.000,-375.000,885.000,0.000,0.000,0
2026-01-30 23:29:58,1822574,8227.000,1512.000,-739.000,3288.000,-507.000,1184.000,0.000,0.000,0
2026-01-30 23:29:58,1822614,8703.000,1575.000,102.000,2202.000,-655.000,1601.000,0.000,0.000,0
2026-01-30 23:29:58,1822654,9269.000,1583.000,-21.000,710.000,-357.000,2029.000,0.000,0.000,0
2026-01-30 23:29:58,1822694,8846.000,1287.000,-684.000,-1294.000,925.000,1201.000,0.000,0.000,0
2026-01-30 23:29:58,1822734,8017.000,1082.000,-171.000,-1971.000,1926.000,-362.000,0.000,0.000,0
2026-01-30 23:29:58,1822774,8005.000,1220.000,-588.000,-2563.000,2158.000,-1449.000,0.000,0.000,0
2026-01-30 23:29:58,1822814,7132.000,2291.000,229.000,-1910.000,2343.000,-1926.000,0.000,0.000,0
2026-01-30 23:29:58,1822854,7485.000,4129.000,856.000,-2576.000,2035.000,-2554.000,0.000,0.000,0
2026-01-30 23:29:58,1822894,8283.000,6640.000,2102.000,-4549.000,2370.000,-3809.000,0.000,0.000,0
2026-01-30 23:29:58,1822934,9082.000,7197.000,2705.000,-7945.000,4128.000,-6424.000,0.000,0.000,0
2026-01-30 23:29:58,1822974,7184.000,7502.000,3137.000,-7179.000,6216.000,-8997.000,0.000,0.000,0
2026-01-30 23:29:58,1823014,5303.000,7826.000,4965.000,-6604.000,7149.000,-9580.000,0.000,0.000,0
2026-01-30 23:29:58,1823054,3347.000,7009.000,4547.000,-8160.000,7882.000,-9286.000,0.000,0.000,0
2026-01-30 23:29:58,1823094,3198.000,7080.000,5593.000,-7441.000,7970.000,-8713.000,0.000,0.000,0
2026-01-30 23:29:58,1823134,3038.000,5931.000,4983.000,-7393.000,7793.000,-7479.000,0.000,0.000,0
2026-01-30 23:29:58,1823174,2514.000,4637.000,5178.000,-3122.000,5794.000,-4848.000,0.000,0.000,0
2026-01-30 23:29:59,1823214,4097.000,4257.000,4189.000,-3194.000,3687.000,-2281.000,0.000,0.000,0
2026-01-30 23:29:59,1823254,5771.000,2425.000,4000.000,-5315.000,1418.000,521.000,0.000,0.000,0
2026-01-30 23:29:59,1823294,7313.000,1263.000,3419.000,-6786.000,-304.000,3182.000,0.000,0.000,0
2026-01-30 23:29:59,1823334,8484.000,398.000,2908.000,-6742.000,-1452.000,5754.000,0.000,0.000,0
2026-01-30 23:29:59,1823374,9392.000,1279.000,3187.000,-1347.000,-2580.000,4347.000,0.000,0.000,0
2026-01-30 23:29:59,1823414,7650.000,1579.000,2219.000,-1185.000,-2590.000,3155.000,0.000,0.000,0
2026-01-30 23:29:59,1823454,7265.000,567.000,3886.000,-4835.000,-2536.000,2846.000,0.000,0.000,0
2026-01-30 23:29:59,1823494,10596.000,-2435.000,2570.000,-1637.000,-2470.000,1090.000,0.000,0.000,0
2026-01-30 23:29:59,1823534,8432.000,2877.000,8852.000,4580.000,725.000,-918.000,0.000,0.000,0
2026-01-30 23:29:59,1823574,5024.000,3720.000,7432.000,-4297.000,10.000,189.000,0.000,0.000,0
2026-01-30 23:29:59,1823614,5205.000,1649.000,4829.000,-1821.000,-818.000,257.000,0.000,0.000,0
2026-01-30 23:29:59,1823654,4938.000,3138.000,6971.000,-1104.000,-1273.000,114.000,0.000,0.000,0
2026-01-30 23:29:59,1823694,5392.000,485.000,6732.000,-98.000,-679.000,467.000,0.000,0.000,0
2026-01-30 23:29:59,1823734,5394.000,1697.000,7100.000,1336.000,-617.000,780.000,0.000,0.000,0
2026-01-30 23:29:59,1823774,5590.000,2647.000,6493.000,1317.000,-1069.000,968.000,0.000,0.000,0
2026-01-30 23:29:59,1823814,5800.000,1215.000,5037.000,1215.000,-971.000,272.000,0.000,0.000,0
2026-01-30 23:29:59,1823854,5188.000,1983.000,6472.000,2104.000,-67.000,-1445.000,0.000,0.000,0
2026-01-30 23:29:59,1823894,5772.000,491.000,7515.000,933.000,1050.000,-1910.000,0.000,0.000,0
2026-01-30 23:29:59,1823934,5034.000,2081.000,6824.000,1436.000,1796.000,-987.000,0.000,0.000,0
2026-01-30 23:29:59,1823974,4805.000,2672.000,4644.000,1379.000,381.000,-538.000,0.000,0.000,0
2026-01-30 23:29:59,1824014,4384.000,3825.000,4849.000,708.000,-575.000,-958.000,0.000,0.000,0
2026-01-30 23:29:59,1824054,7416.000,596.000,3622.000,-811.000,-1812.000,-592.000,0.000,0.000,0
2026-01-30 23:29:59,1824094,1940.000,2090.000,7844.000,-1607.000,-958.000,-1299.000,0.000,0.000,0
2026-01-30 23:29:59,1824134,5912.000,2964.000,8124.000,-2282.000,-694.000,-723.000,0.000,0.000,0
2026-01-30 23:29:59,1824174,3631.000,674.000,6793.000,-1657.000,-398.000,-596.000,0.000,0.000,0
2026-01-30 23:30:00,1824217,4587.000,1404.000,5844.000,-1171.000,-505.000,-178.000,0.000,0.000,0
2026-01-30 23:30:00,1824256,5917.000,2048.000,4882.000,440.000,-615.000,-54.000,0.000,0.000,0
2026-01-30 23:30:00,1824298,5009.000,1231.000,6762.000,904.000,-814.000,4.000,0.000,0.000,0
2026-01-30 23:30:00,1824334,5218.000,1422.000,7222.000,1145.000,-971.000,203.000,0.000,0.000,0
2026-01-30 23:30:00,1824374,4381.000,2139.000,8102.000,890.000,-1109.000,683.000,0.000,0.000,0
2026-01-30 23:30:00,1824414,4595.000,1599.000,7613.000,-62.000,-1436.000,1387.000,0.000,0.000,0
2026-01-30 23:30:00,1824454,4605.000,2424.000,6643.000,655.000,-1398.000,1652.000,0.000,0.000,0
2026-01-30 23:30:00,1824494,4804.000,2827.000,6810.000,85.000,-705.000,1696.000,0.000,0.000,0
2026-01-30 23:30:00,1824538,5086.000,2821.000,7418.000,979.000,91.000,1035.000,0.000,0.000,0
2026-01-30 23:30:00,1824576,4917.000,2203.000,7224.000,-641.000,88.000,839.000,0.000,0.000,0
2026-01-30 23:30:00,1824614,4711.000,2612.000,6513.000,-251.000,222.000,872.000,0.000,0.000,0
2026-01-30 23:30:00,1824654,5189.000,1105.000,6956.000,-464.000,474.000,1031.000,0.000,0.000,0
2026-01-30 23:30:00,1824694,4786.000,1618.000,6079.000,-806.000,786.000,757.000,0.000,0.000,0
2026-01-30 23:30:00,1824734,4976.000,1157.000,3896.000,-2913.000,609.000,525.000,0.000,0.000,0
2026-01-30 23:30:00,1824774,6032.000,875.000,5346.000,-2968.000,347.000,910.000,0.000,0.000,0
2026-01-30 23:30:00,1824814,6106.000,-574.000,3907.000,-3485.000,142.000,1848.000,0.000,0.000,0
2026-01-30 23:30:00,1824854,6184.000,637.000,4813.000,1104.000,414.000,1147.000,0.000,0.000,0
2026-01-30 23:30:00,1824894,6571.000,396.000,6129.000,915.000,641.000,622.000,0.000,0.000,0
2026-01-30 23:30:00,1824934,5902.000,648.000,6134.000,1472.000,0.000,91.000,0.000,0.000,0
2026-01-30 23:30:00,1824974,5775.000,-663.000,4715.000,929.000,-33.000,-959.000,0.000,0.000,0
2026-01-30 23:30:00,1825014,5628.000,-1303.000,4628.000,6218.000,1067.000,1332.000,0.000,0.000,0
2026-01-30 23:30:00,1825054,6491.000,2268.000,4240.000,3525.000,-655.000,1419.000,0.000,0.000,0
2026-01-30 23:30:00,1825094,8699.000,1083.000,4717.000,5258.000,697.000,-1243.000,0.000,0.000,0
2026-01-30 23:30:00,1825134,9204.000,1608.000,1962.000,9037.000,1533.000,-2783.000,0.000,0.000,0
2026-01-30 23:30:00,1825174,9797.000,3796.000,3905.000,9198.000,4580.000,-3923.000,0.000,0.000,0
2026-01-30 23:30:01,1825214,8059.000,3993.000,3737.000,4444.000,4606.000,-5057.000,0.000,0.000,0
2026-01-30 23:30:01,1825254,6849.000,3871.000,3471.000,1671.000,749.000,-5336.000,0.000,0.000,0
2026-01-30 23:30:01,1825294,5486.000,3850.000,2309.000,4850.000,-2697.000,-4539.000,0.000,0.000,0
2026-01-30 23:30:01,1825334,4208.000,5075.000,3239.000,7622.000,-5198.000,-3664.000,0.000,0.000,0
2026-01-30 23:30:01,1825374,3783.000,4559.000,5794.000,6386.000,-7174.000,-1727.000,0.000,0.000,0
2026-01-30 23:30:01,1825414,3799.000,5357.000,4765.000,5697.000,-7645.000,-324.000,0.000,0.000,0
2026-01-30 23:30:01,1825454,4461.000,6443.000,4502.000,6084.000,-6251.000,794.000,0.000,0.000,0
2026-01-30 23:30:01,1825494,4491.000,7666.000,6435.000,8662.000,-5041.000,989.000,0.000,0.000,0
2026-01-30 23:30:01,1825534,4221.000,10756.000,4920.000,7657.000,-4148.000,1489.000,0.000,0.000,0
2026-01-30 23:30:01,1825574,4058.000,10623.000,3999.000,1908.000,-3606.000,1976.000,0.000,0.000,0
2026-01-30 23:30:01,1825614,2666.000,9125.000,3524.000,-2599.000,-3482.000,1418.000,0.000,0.000,0
2026-01-30 23:30:01,1825654,2841.000,7594.000,2710.000,-5191.000,-3613.000,1456.000,0.000,0.000,0
2026-01-30 23:30:01,1825694,2988.000,6873.000,1875.000,-5630.000,-3201.000,1414.000,0.000,0.000,0
2026-01-30 23:30:01,1825734,2749.000,6221.000,636.000,-5292.000,-2317.000,1252.000,0.000,0.000,0
2026-01-30 23:30:01,1825774,3429.000,7340.000,-59.000,-4042.000,-1569.000,1252.000,0.000,0.000,0
2026-01-30 23:30:01,1825814,3853.000,8191.000,-180.000,-4153.000,-675.000,999.000,0.000,0.000,0
2026-01-30 23:30:01,1825854,3608.000,7266.000,-1110.000,-3551.000,-660.000,-482.000,0.000,0.000,0
2026-01-30 23:30:01,1825894,3554.000,8423.000,-616.000,-1273.000,-1648.000,-1362.000,0.000,0.000,0
2026-01-30 23:30:01,1825934,3323.000,8224.000,-486.000,-3278.000,-3290.000,-2052.000,0.000,0.000,0
2026-01-30 23:30:01,1825974,3428.000,7411.000,-591.000,-5394.000,-4808.000,-2184.000,0.000,0.000,0
2026-01-30 23:30:01,1826014,3736.000,7056.000,-406.000,-5708.000,-5751.000,-1970.000,0.000,0.000,0
2026-01-30 23:30:01,1826054,4077.000,7072.000,-304.000,-6002.000,-6270.000,-1673.000,0.000,0.000,0
2026-01-30 23:30:01,1826094,4125.000,6462.000,-435.000,-6760.000,-6244.000,-1178.000,0.000,0.000,0
2026-01-30 23:30:01,1826134,4251.000,5845.000,-389.000,-6395.000,-5875.000,-345.000,0.000,0.000,0
2026-01-30 23:30:01,1826174,4891.000,5711.000,-284.000,-4889.000,-5331.000,876.000,0.000,0.000,0
2026-01-30 23:30:02,1826214,5747.000,4336.000,46.000,-3692.000,-4315.000,2933.000,0.000,0.000,0
2026-01-30 23:30:02,1826257,8521.000,3255.000,2566.000,-4584.000,-3574.000,4888.000,0.000,0.000,0
2026-01-30 23:30:02,1826296,10716.000,2361.000,1047.000,-4863.000,-2761.000,5163.000,0.000,0.000,0
2026-01-30 23:30:02,1826334,11114.000,2521.000,-1315.000,-945.000,-1555.000,5413.000,0.000,0.000,0
2026-01-30 23:30:02,1826374,11043.000,914.000,-3308.000,4397.000,348.000,7390.000,0.000,0.000,0
2026-01-30 23:30:02,1826414,8945.000,2175.000,-839.000,4216.000,1930.000,4731.000,0.000,0.000,0
2026-01-30 23:30:02,1826454,8765.000,2580.000,2843.000,2849.000,738.000,3373.000,0.000,0.000,0
2026-01-30 23:30:02,1826494,6390.000,436.000,2585.000,610.000,1133.000,3461.000,0.000,0.000,0
2026-01-30 23:30:02,1826538,6330.000,2662.000,2537.000,3284.000,65.000,4008.000,0.000,0.000,0
2026-01-30 23:30:02,1826574,6470.000,3660.000,3429.000,4102.000,-139.000,3654.000,0.000,0.000,0
2026-01-30 23:30:02,1826614,7755.000,5669.000,3655.000,2038.000,-583.000,2525.000,0.000,0.000,0
2026-01-30 23:30:02,1826654,6368.000,4569.000,2129.000,-1829.000,820.000,1053.000,0.000,0.000,0
2026-01-30 23:30:02,1826694,5712.000,3535.000,1969.000,-2341.000,1037.000,-649.000,0.000,0.000,0
2026-01-30 23:30:02,1826734,5710.000,3508.000,1397.000,-2454.000,779.000,-2097.000,0.000,0.000,0
2026-01-30 23:30:02,1826774,5818.000,3653.000,971.000,-1882.000,415.000,-2798.000,0.000,0.000,0
2026-01-30 23:30:02,1826814,6305.000,4002.000,1458.000,-1585.000,7.000,-3124.000,0.000,0.000,0
2026-01-30 23:30:02,1826854,6605.000,5091.000,2285.000,-2896.000,-673.000,-4603.000,0.000,0.000,0
2026-01-30 23:30:02,1826894,7227.000,6219.000,2436.000,-3877.000,-664.000,-5707.000,0.000,0.000,0
2026-01-30 23:30:02,1826934,7949.000,6190.000,2780.000,-2867.000,1.000,-7106.000,0.000,0.000,0
2026-01-30 23:30:02,1826974,8717.000,8785.000,4265.000,-312.000,1086.000,-8813.000,0.000,0.000,0
2026-01-30 23:30:02,1827014,8447.000,9848.000,5386.000,-403.000,1711.000,-8802.000,0.000,0.000,0
2026-01-30 23:30:02,1827054,7299.000,10178.000,6159.000,-2799.000,2072.000,-9234.000,0.000,0.000,0
2026-01-30 23:30:02,1827094,7488.000,9576.000,4948.000,-5500.000,3400.000,-9732.000,0.000,0.000,0
2026-01-30 23:30:02,1827134,6711.000,8633.000,4433.000,-5490.000,5107.000,-9065.000,0.000,0.000,0
2026-01-30 23:30:02,1827174,6140.000,7605.000,3879.000,-3995.000,4993.000,-8218.000,0.000,0.000,0
2026-01-30 23:30:03,1827214,5014.000,6435.000,4145.000,-5099.000,4438.000,-6897.000,0.000,0.000,0
2026-01-30 23:30:03,1827254,4809.000,4422.000,3990.000,-7603.000,3794.000,-3219.000,0.000,0.000,0
2026-01-30 23:30:03,1827294,4080.000,2656.000,3103.000,-9813.000,3736.000,-1034.000,0.000,0.000,0
2026-01-30 23:30:03,1827334,4740.000,1202.000,2980.000,-9869.000,4148.000,1355.000,0.000,0.000,0
2026-01-30 23:30:03,1827374,2363.000,1084.000,4994.000,-6713.000,2025.000,3026.000,0.000,0.000,0
2026-01-30 23:30:03,1827414,2267.000,-403.000,5097.000,-4998.000,1621.000,3671.000,0.000,0.000,0
2026-01-30 23:30:03,1827454,3416.000,-583.000,6091.000,3092.000,2012.000,3913.000,0.000,0.000,0
2026-01-30 23:30:03,1827494,781.000,2251.000,4558.000,7773.000,3802.000,4361.000,0.000,0.000,0
2026-01-30 23:30:03,1827534,1406.000,4685.000,5678.000,4360.000,4216.000,4749.000,0.000,0.000,0
2026-01-30 23:30:03,1827574,-138.000,594.000,5962.000,1970.000,2200.000,5746.000,0.000,0.000,0
2026-01-30 23:30:03,1827614,2104.000,7446.000,5833.000,13418.000,1227.000,4445.000,0.000,0.000,0
2026-01-30 23:30:03,1827654,3502.000,7013.000,6691.000,13528.000,3060.000,2964.000,0.000,0.000,0
2026-01-30 23:30:03,1827694,3848.000,5805.000,5077.000,8369.000,4001.000,2593.000,0.000,0.000,0
2026-01-30 23:30:03,1827734,2461.000,7575.000,5207.000,12839.000,3597.000,-630.000,0.000,0.000,0
2026-01-30 23:30:03,1827774,1797.000,6994.000,3406.000,7971.000,3018.000,-1735.000,0.000,0.000,0
2026-01-30 23:30:03,1827814,957.000,9817.000,2257.000,7777.000,3318.000,-2523.000,0.000,0.000,0
2026-01-30 23:30:03,1827854,383.000,9494.000,-921.000,5144.000,3632.000,-3760.000,0.000,0.000,0
2026-01-30 23:30:03,1827894,-552.000,8946.000,-767.000,1111.000,2373.000,-5756.000,0.000,0.000,0
2026-01-30 23:30:03,1827934,-1249.000,8686.000,-1745.000,-3296.000,188.000,-6759.000,0.000,0.000,0
2026-01-30 23:30:03,1827974,-1588.000,9283.000,-184.000,-7431.000,-2148.000,-6808.000,0.000,0.000,0
2026-01-30 23:30:03,1828014,-2756.000,8227.000,620.000,-11230.000,-3992.000,-6734.000,0.000,0.000,0
2026-01-30 23:30:03,1828054,-2482.000,8443.000,2211.000,-12557.000,-5653.000,-6965.000,0.000,0.000,0
2026-01-30 23:30:03,1828094,-2202.000,6805.000,4095.000,-13994.000,-6170.000,-7398.000,0.000,0.000,0
2026-01-30 23:30:03,1828134,-2822.000,4735.000,6888.000,-13472.000,-5806.000,-9025.000,0.000,0.000,0
2026-01-30 23:30:03,1828174,-2493.000,4151.000,6877.000,-14768.000,-5564.000,-8849.000,0.000,0.000,0
2026-01-30 23:30:04,1828217,-2475.000,1101.000,6994.000,-18104.000,-5932.000,-8805.000,0.000,0.000,0
2026-01-30 23:30:04,1828257,-1250.000,-866.000,5740.000,-16507.000,-5532.000,-7334.000,0.000,0.000,0
2026-01-30 23:30:04,1828294,-1032.000,-2363.000,5476.000,-15402.000,-4861.000,-6083.000,0.000,0.000,0
2026-01-30 23:30:04,1828334,-441.000,-5008.000,5389.000,-14445.000,-2916.000,-4444.000,0.000,0.000,0
2026-01-30 23:30:04,1828374,-966.000,-7006.000,5042.000,-10126.000,-1002.000,-4121.000,0.000,0.000,0
2026-01-30 23:30:04,1828414,-395.000,-6696.000,4997.000,-3501.000,-925.000,-4002.000,0.000,0.000,0
2026-01-30 23:30:04,1828454,300.000,-4533.000,5523.000,-681.000,-1032.000,-3572.000,0.000,0.000,0
2026-01-30 23:30:04,1828494,676.000,-5372.000,5799.000,-2107.000,-829.000,-2027.000,0.000,0.000,0
2026-01-30 23:30:04,1828537,-51.000,-5872.000,4917.000,-906.000,-357.000,-1051.000,0.000,0.000,0
2026-01-30 23:30:04,1828574,140.000,-6002.000,5420.000,-593.000,-483.000,-785.000,0.000,0.000,0
2026-01-30 23:30:04,1828614,1018.000,-5584.000,7034.000,-299.000,-863.000,39.000,0.000,0.000,0
2026-01-30 23:30:04,1828654,975.000,-6375.000,6540.000,-865.000,-724.000,901.000,0.000,0.000,0
2026-01-30 23:30:04,1828694,1240.000,-6040.000,7199.000,-579.000,-1178.000,953.000,0.000,0.000,0
2026-01-30 23:30:04,1828734,1756.000,-6580.000,7476.000,-1124.000,-1139.000,947.000,0.000,0.000,0
2026-01-30 23:30:04,1828774,1862.000,-6573.000,7655.000,-74.000,-1420.000,904.000,0.000,0.000,0
2026-01-30 23:30:04,1828814,2411.000,-5870.000,7168.000,458.000,-1497.000,1026.000,0.000,0.000,0
2026-01-30 23:30:04,1828854,2653.000,-5632.000,6529.000,827.000,-1369.000,1339.000,0.000,0.000,0
2026-01-30 23:30:04,1828894,2848.000,-4807.000,6414.000,2693.000,-953.000,2161.000,0.000,0.000,0
2026-01-30 23:30:04,1828934,1908.000,-4629.000,5922.000,2580.000,-692.000,2544.000,0.000,0.000,0
2026-01-30 23:30:04,1828974,705.000,-4724.000,5190.000,2319.000,-526.000,2458.000,0.000,0.000,0
2026-01-30 23:30:04,1829014,-70.000,-4707.000,4654.000,2315.000,-675.000,2574.000,0.000,0.000,0
2026-01-30 23:30:04,1829054,-356.000,-3792.000,4879.000,2118.000,-715.000,2907.000,0.000,0.000,0
2026-01-30 23:30:04,1829094,-492.000,-4037.000,5337.000,367.000,-509.000,3045.000,0.000,0.000,0
2026-01-30 23:30:04,1829134,-352.000,-4296.000,5823.000,-620.000,-328.000,2553.000,0.000,0.000,0
2026-01-30 23:30:04,1829174,-803.000,-5123.000,6887.000,-1520.000,-184.000,1517.000,0.000,0.000,0
2026-01-30 23:30:05,1829214,-331.000,-5680.000,7327.000,-1522.000,-463.000,653.000,0.000,0.000,0
2026-01-30 23:30:05,1829254,91.000,-6128.000,7985.000,-1893.000,-238.000,448.000,0.000,0.000,0
2026-01-30 23:30:05,1829294,-155.000,-6597.000,8181.000,-2244.000,628.000,274.000,0.000,0.000,0
2026-01-30 23:30:05,1829334,-796.000,-6390.000,8226.000,-1188.000,481.000,53.000,0.000,0.000,0
2026-01-30 23:30:05,1829374,-671.000,-5795.000,8256.000,-1287.000,-385.000,-729.000,0.000,0.000,0
2026-01-30 23:30:05,1829414,-741.000,-5279.000,7306.000,-805.000,-787.000,-1153.000,0.000,0.000,0
2026-01-30 23:30:05,1829454,-549.000,-5314.000,6613.000,-359.000,-945.000,-999.000,0.000,0.000,0
2026-01-30 23:30:05,1829494,-230.000,-5375.000,6544.000,756.000,-773.000,-963.000,0.000,0.000,0
2026-01-30 23:30:05,1829534,361.000,-4766.000,5948.000,2002.000,-797.000,-849.000,0.000,0.000,0
2026-01-30 23:30:05,1829574,491.000,-4148.000,5497.000,1322.000,-782.000,-1241.000,0.000,0.000,0
2026-01-30 23:30:05,1829614,965.000,-4408.000,5299.000,408.000,-1111.000,-897.000,0.000,0.000,0
2026-01-30 23:30:05,1829654,525.000,-4966.000,5633.000,-622.000,-865.000,-52.000,0.000,0.000,0
2026-01-30 23:30:05,1829694,488.000,-5398.000,5543.000,-352.000,-935.000,240.000,0.000,0.000,0
2026-01-30 23:30:05,1829734,338.000,-5420.000,6468.000,-242.000,-1215.000,298.000,0.000,0.000,0
2026-01-30 23:30:05,1829774,1152.000,-6006.000,6880.000,-638.000,-1479.000,572.000,0.000,0.000,0
2026-01-30 23:30:05,1829814,395.000,-5968.000,6688.000,-195.000,-1159.000,443.000,0.000,0.000,0
2026-01-30 23:30:05,1829854,1205.000,-5960.000,7138.000,-240.000,-1808.000,542.000,0.000,0.000,0
2026-01-30 23:30:05,1829894,2034.000,-6528.000,7362.000,-265.000,-1841.000,638.000,0.000,0.000,0
2026-01-30 23:30:05,1829934,2094.000,-6147.000,7586.000,-130.000,-1527.000,446.000,0.000,0.000,0
2026-01-30 23:30:05,1829974,2156.000,-6099.000,7192.000,474.000,-2892.000,546.000,0.000,0.000,0
2026-01-30 23:30:05,1830014,2914.000,-4640.000,6123.000,1420.000,-2636.000,1444.000,0.000,0.000,0
2026-01-30 23:30:05,1830054,2572.000,-4555.000,5889.000,1170.000,-693.000,2308.000,0.000,0.000,0
2026-01-30 23:30:05,1830094,1638.000,-4718.000,6173.000,2094.000,-175.000,2279.000,0.000,0.000,0
2026-01-30 23:30:05,1830134,1145.000,-4082.000,5875.000,2327.000,-128.000,1677.000,0.000,0.000,0
2026-01-30 23:30:05,1830174,670.000,-3823.000,5654.000,835.000,89.000,1591.000,0.000,0.000,0
2026-01-30 23:30:06,1830214,579.000,-4612.000,5248.000,-283.000,370.000,1609.000,0.000,0.000,0
2026-01-30 23:30:06,1830257,574.000,-4478.000,5330.000,360.000,687.000,1594.000,0.000,0.000,0
2026-01-30 23:30:06,1830296,942.000,-5830.000,6200.000,-790.000,720.000,1234.000,0.000,0.000,0
2026-01-30 23:30:06,1830334,808.000,-6353.000,6290.000,-614.000,757.000,1039.000,0.000,0.000,0
2026-01-30 23:30:06,1830374,704.000,-6667.000,6411.000,244.000,546.000,1000.000,0.000,0.000,0
2026-01-30 23:30:06,1830414,988.000,-5941.000,7748.000,-321.000,597.000,677.000,0.000,0.000,0
2026-01-30 23:30:06,1830454,-77.000,-5510.000,8504.000,374.000,206.000,597.000,0.000,0.000,0
2026-01-30 23:30:06,1830494,-516.000,-5805.000,8231.000,-1067.000,-405.000,387.000,0.000,0.000,0
2026-01-30 23:30:06,1830537,148.000,-5844.000,8172.000,-27.000,-1478.000,-901.000,0.000,0.000,0
2026-01-30 23:30:06,1830574,197.000,-5236.000,8003.000,472.000,-888.000,-997.000,0.000,0.000,0
2026-01-30 23:30:06,1830614,-383.000,-4871.000,7481.000,70.000,17.000,-579.000,0.000,0.000,0
2026-01-30 23:30:06,1830654,-258.000,-4902.000,6731.000,-144.000,-132.000,-1072.000,0.000,0.000,0
2026-01-30 23:30:06,1830694,185.000,-4461.000,6152.000,508.000,-329.000,-1202.000,0.000,0.000,0
2026-01-30 23:30:06,1830734,957.000,-4071.000,5912.000,833.000,-536.000,-1219.000,0.000,0.000,0
2026-01-30 23:30:06,1830774,616.000,-4242.000,5684.000,12.000,-390.000,-672.000,0.000,0.000,0
2026-01-30 23:30:06,1830814,555.000,-4442.000,5744.000,-488.000,-536.000,-546.000,0.000,0.000,0
2026-01-30 23:30:06,1830854,627.000,-4583.000,5809.000,-367.000,-482.000,-448.000,0.000,0.000,0
2026-01-30 23:30:06,1830894,498.000,-5376.000,5775.000,92.000,-543.000,-488.000,0.000,0.000,0
2026-01-30 23:30:06,1830934,561.000,-5202.000,6819.000,201.000,-743.000,-251.000,0.000,0.000,0
2026-01-30 23:30:06,1830974,866.000,-5447.000,7069.000,-522.000,-1061.000,-30.000,0.000,0.000,0
2026-01-30 23:30:06,1831014,1683.000,-5489.000,7426.000,-1364.000,-705.000,19.000,0.000,0.000,0
2026-01-30 23:30:06,1831054,1691.000,-6802.000,7418.000,-935.000,-427.000,78.000,0.000,0.000,0
2026-01-30 23:30:06,1831094,2310.000,-6613.000,7346.000,626.000,-1299.000,299.000,0.000,0.000,0
2026-01-30 23:30:06,1831134,2739.000,-6011.000,7521.000,477.000,-1419.000,583.000,0.000,0.000,0
2026-01-30 23:30:06,1831174,2743.000,-5158.000,6748.000,-350.000,-890.000,828.000,0.000,0.000,0
2026-01-30 23:30:07,1831214,2682.000,-4733.000,6080.000,-119.000,-568.000,891.000,0.000,0.000,0
2026-01-30 23:30:07,1831254,2307.000,-4660.000,5744.000,1097.000,-453.000,900.000,0.000,0.000,0
2026-01-30 23:30:07,1831294,1926.000,-4151.000,5707.000,1707.000,-745.000,1334.000,0.000,0.000,0
2026-01-30 23:30:07,1831334,1535.000,-3714.000,5138.000,1211.000,-883.000,1863.000,0.000,0.000,0
2026-01-30 23:30:07,1831374,959.000,-4246.000,5035.000,168.000,-481.000,1922.000,0.000,0.000,0
2026-01-30 23:30:07,1831414,921.000,-4655.000,5314.000,326.000,-181.000,1405.000,0.000,0.000,0
2026-01-30 23:30:07,1831454,1250.000,-4978.000,5386.000,265.000,-152.000,1104.000,0.000,0.000,0
2026-01-30 23:30:07,1831494,1391.000,-5246.000,5396.000,-3.000,299.000,627.000,0.000,0.000,0
2026-01-30 23:30:07,1831534,983.000,-5919.000,5969.000,-109.000,801.000,313.000,0.000,0.000,0
2026-01-30 23:30:07,1831574,891.000,-6041.000,7515.000,797.000,-287.000,129.000,0.000,0.000,0
2026-01-30 23:30:07,1831614,1114.000,-6660.000,7953.000,-855.000,185.000,181.000,0.000,0.000,0
2026-01-30 23:30:07,1831654,661.000,-6917.000,8210.000,-539.000,546.000,-472.000,0.000,0.000,0
2026-01-30 23:30:07,1831694,599.000,-5898.000,8879.000,-724.000,354.000,-525.000,0.000,0.000,0
2026-01-30 23:30:07,1831734,-484.000,-6473.000,7611.000,-2644.000,558.000,-240.000,0.000,0.000,0
