datetime_local,uptime_ms,acc_x,acc_y,acc_z,gyro_x,gyro_y,gyro_z,speed_mps,turn_rate_deg_s,gps_valid
2026-01-30 23:05:06,193934,-487.000,-476.000,8395.000,-898.000,-50.000,-1686.000,0.000,0.000,0
2026-01-30 23:05:06,193974,459.000,-109.000,7588.000,855.000,-682.000,-1389.000,0.000,0.000,0
2026-01-30 23:05:06,194016,682.000,-345.000,6810.000,841.000,-485.000,-994.000,0.000,0.000,0
2026-01-30 23:05:06,194070,335.000,-1336.000,6211.000,-1476.000,-356.000,-424.000,0.000,0.000,0
2026-01-30 23:05:06,194097,237.000,-1795.000,6124.000,-1531.000,-416.000,-461.000,0.000,0.000,0
2026-01-30 23:05:07,194138,-129.000,-2110.000,6864.000,-246.000,-431.000,-657.000,0.000,0.000,0
2026-01-30 23:05:07,194174,-116.000,-1367.000,7417.000,777.000,-691.000,-709.000,0.000,0.000,0
2026-01-30 23:05:07,194214,113.000,-1424.000,8901.000,-162.000,-540.000,-440.000,0.000,0.000,0
2026-01-30 23:05:07,194254,658.000,-1541.000,8849.000,314.000,-452.000,-108.000,0.000,0.000,0
2026-01-30 23:05:07,194294,681.000,-1461.000,9360.000,1097.000,-135.000,375.000,0.000,0.000,0
2026-01-30 23:05:07,194334,1462.000,-700.000,9288.000,1730.000,-318.000,2405.000,0.000,0.000,0
2026-01-30 23:05:07,194374,2903.000,-1421.000,8408.000,960.000,-1139.000,3476.000,0.000,0.000,0
2026-01-30 23:05:07,194414,1162.000,-390.000,9095.000,2979.000,1377.000,4583.000,0.000,0.000,0
2026-01-30 23:05:07,194454,3667.000,-1228.000,6969.000,3075.000,-252.000,3105.000,0.000,0.000,0
2026-01-30 23:05:07,194494,3096.000,-1083.000,5651.000,6567.000,18.000,3335.000,0.000,0.000,0
2026-01-30 23:05:07,194534,2481.000,-895.000,4746.000,9155.000,-1037.000,4040.000,0.000,0.000,0
2026-01-30 23:05:07,194574,2523.000,563.000,5535.000,9927.000,-2356.000,4853.000,0.000,0.000,0
2026-01-30 23:05:07,194614,2859.000,3967.000,7306.000,7245.000,-3587.000,6967.000,0.000,0.000,0
2026-01-30 23:05:07,194654,2837.000,3976.000,8023.000,-705.000,-3188.000,8383.000,0.000,0.000,0
2026-01-30 23:05:07,194694,2698.000,1154.000,7962.000,-2217.000,-1870.000,7961.000,0.000,0.000,0
2026-01-30 23:05:07,194734,3334.000,1772.000,8867.000,3930.000,-592.000,6109.000,0.000,0.000,0
2026-01-30 23:05:07,194774,2865.000,3648.000,9385.000,7284.000,1109.000,4259.000,0.000,0.000,0
2026-01-30 23:05:07,194814,1903.000,4404.000,9337.000,5525.000,2087.000,3351.000,0.000,0.000,0
2026-01-30 23:05:07,194854,1777.000,4984.000,10721.000,2894.000,1741.000,2899.000,0.000,0.000,0
2026-01-30 23:05:07,194894,2002.000,4449.000,10542.000,476.000,1401.000,2409.000,0.000,0.000,0
2026-01-30 23:05:07,194934,2119.000,4237.000,10441.000,787.000,1353.000,1826.000,0.000,0.000,0
2026-01-30 23:05:07,194974,1421.000,4772.000,8957.000,1905.000,1629.000,651.000,0.000,0.000,0
2026-01-30 23:05:07,195014,1505.000,4103.000,7153.000,1726.000,1131.000,1071.000,0.000,0.000,0
2026-01-30 23:05:07,195054,1897.000,3018.000,5819.000,2116.000,302.000,2034.000,0.000,0.000,0
2026-01-30 23:05:07,195094,2368.000,2245.000,4735.000,2635.000,-242.000,2981.000,0.000,0.000,0
2026-01-30 23:05:08,195134,2311.000,1594.000,3602.000,3449.000,-694.000,3624.000,0.000,0.000,0
2026-01-30 23:05:08,195174,2558.000,1009.000,2748.000,4317.000,-1547.000,4249.000,0.000,0.000,0
2026-01-30 23:05:08,195214,3011.000,641.000,2111.000,5210.000,-2557.000,4751.000,0.000,0.000,0
2026-01-30 23:05:08,195254,4625.000,1619.000,2165.000,5877.000,-3960.000,5863.000,0.000,0.000,0
2026-01-30 23:05:08,195294,7456.000,3910.000,2948.000,6054.000,-5038.000,6699.000,0.000,0.000,0
2026-01-30 23:05:08,195334,9309.000,3065.000,2642.000,4125.000,-4482.000,6969.000,0.000,0.000,0
2026-01-30 23:05:08,195374,9277.000,2777.000,2601.000,8303.000,-3834.000,6326.000,0.000,0.000,0
2026-01-30 23:05:08,195414,12492.000,2823.000,351.000,13216.000,-5325.000,5812.000,0.000,0.000,0
2026-01-30 23:05:08,195454,12108.000,5536.000,-1510.000,17996.000,-3443.000,5757.000,0.000,0.000,0
2026-01-30 23:05:08,195494,10091.000,5055.000,-309.000,18844.000,142.000,9572.000,0.000,0.000,0
2026-01-30 23:05:08,195534,9731.000,5988.000,465.000,14220.000,1691.000,5623.000,0.000,0.000,0
2026-01-30 23:05:08,195574,9637.000,2463.000,-462.000,8922.000,-132.000,5168.000,0.000,0.000,0
2026-01-30 23:05:08,195614,7880.000,4115.000,112.000,5910.000,-141.000,3324.000,0.000,0.000,0
2026-01-30 23:05:08,195656,5731.000,2793.000,345.000,1486.000,-415.000,2722.000,0.000,0.000,0
2026-01-30 23:05:08,195696,4662.000,3374.000,1039.000,-364.000,-977.000,2556.000,0.000,0.000,0
2026-01-30 23:05:08,195734,4274.000,2164.000,646.000,-3532.000,-908.000,3735.000,0.000,0.000,0
2026-01-30 23:05:08,195774,5557.000,2293.000,979.000,-786.000,-1397.000,4042.000,0.000,0.000,0
2026-01-30 23:05:08,195814,7312.000,2393.000,1048.000,2237.000,-1188.000,4248.000,0.000,0.000,0
2026-01-30 23:05:08,195854,8970.000,3786.000,1240.000,3048.000,-766.000,3785.000,0.000,0.000,0
2026-01-30 23:05:08,195894,10000.000,4096.000,1895.000,2575.000,-500.000,3132.000,0.000,0.000,0
2026-01-30 23:05:08,195936,9782.000,4819.000,1985.000,280.000,-126.000,1379.000,0.000,0.000,0
2026-01-30 23:05:08,195974,11138.000,4598.000,1526.000,-2647.000,-392.000,-264.000,0.000,0.000,0
2026-01-30 23:05:08,196014,12091.000,4507.000,1598.000,-4250.000,-253.000,-1571.000,0.000,0.000,0
2026-01-30 23:05:08,196054,9297.000,3894.000,2001.000,-5021.000,329.000,-2835.000,0.000,0.000,0
2026-01-30 23:05:08,196094,11230.000,3535.000,-125.000,-4425.000,46.000,-3957.000,0.000,0.000,0
2026-01-30 23:05:09,196134,12339.000,2032.000,-2225.000,-5644.000,2906.000,-5003.000,0.000,0.000,0
2026-01-30 23:05:09,196174,9401.000,1573.000,-1456.000,-5914.000,4515.000,-6147.000,0.000,0.000,0
2026-01-30 23:05:09,196214,7633.000,1377.000,-752.000,-6324.000,4262.000,-7475.000,0.000,0.000,0
2026-01-30 23:05:09,196254,7021.000,1369.000,-670.000,-7027.000,3500.000,-8188.000,0.000,0.000,0
2026-01-30 23:05:09,196294,6881.000,1603.000,-851.000,-7683.000,3082.000,-8390.000,0.000,0.000,0
2026-01-30 23:05:09,196334,6998.000,1636.000,-1349.000,-9418.000,3036.000,-7784.000,0.000,0.000,0
2026-01-30 23:05:09,196374,7336.000,479.000,-1663.000,-10430.000,3380.000,-6698.000,0.000,0.000,0
2026-01-30 23:05:09,196414,6975.000,-603.000,-1716.000,-8331.000,3370.000,-5275.000,0.000,0.000,0
2026-01-30 23:05:09,196454,6608.000,-1634.000,-1617.000,-3675.000,2247.000,-3432.000,0.000,0.000,0
2026-01-30 23:05:09,196494,7298.000,120.000,-158.000,1446.000,-2061.000,-75.000,0.000,0.000,0
2026-01-30 23:05:09,196534,9823.000,1134.000,1236.000,1105.000,-6216.000,3268.000,0.000,0.000,0
2026-01-30 23:05:09,196574,10879.000,1202.000,659.000,-1660.000,-10207.000,5779.000,0.000,0.000,0
2026-01-30 23:05:09,196614,11159.000,1594.000,1007.000,-2126.000,-11796.000,6719.000,0.000,0.000,0
2026-01-30 23:05:09,196654,11386.000,2358.000,647.000,-2859.000,-10991.000,5919.000,0.000,0.000,0
2026-01-30 23:05:09,196694,9856.000,2086.000,-12.000,-2122.000,-7848.000,4444.000,0.000,0.000,0
2026-01-30 23:05:09,196734,8143.000,1124.000,-177.000,26.000,-5186.000,3356.000,0.000,0.000,0
2026-01-30 23:05:09,196774,5900.000,964.000,-169.000,4427.000,-3277.000,2613.000,0.000,0.000,0
2026-01-30 23:05:09,196814,4891.000,1622.000,423.000,8896.000,-3082.000,2681.000,0.000,0.000,0
2026-01-30 23:05:09,196854,5135.000,2163.000,525.000,10824.000,-3148.000,3233.000,0.000,0.000,0
2026-01-30 23:05:09,196894,6831.000,3665.000,-1465.000,9948.000,-2526.000,4211.000,0.000,0.000,0
2026-01-30 23:05:09,196934,8456.000,3968.000,-496.000,7907.000,-3083.000,3584.000,0.000,0.000,0
2026-01-30 23:05:09,196974,9824.000,4880.000,-2035.000,3509.000,-5127.000,1242.000,0.000,0.000,0
2026-01-30 23:05:09,197014,11595.000,6216.000,-2664.000,-4291.000,-7787.000,-1298.000,0.000,0.000,0
2026-01-30 23:05:09,197054,13926.000,6155.000,-6590.000,-16524.000,-10057.000,-5996.000,0.000,0.000,0
2026-01-30 23:05:09,197094,16362.000,3727.000,-6605.000,-20905.000,-9113.000,-10067.000,0.000,0.000,0
2026-01-30 23:05:10,197134,12546.000,4999.000,-6397.000,-17356.000,-5652.000,-11352.000,0.000,0.000,0
2026-01-30 23:05:10,197174,8452.000,4761.000,-4735.000,-14945.000,-3715.000,-11408.000,0.000,0.000,0
2026-01-30 23:05:10,197214,5938.000,3457.000,-4529.000,-14725.000,-2378.000,-9784.000,0.000,0.000,0
2026-01-30 23:05:10,197254,2835.000,780.000,-2700.000,-11015.000,-1581.000,-7542.000,0.000,0.000,0
2026-01-30 23:05:10,197294,1906.000,442.000,-2247.000,-3588.000,-2235.000,-2871.000,0.000,0.000,0
2026-01-30 23:05:10,197334,1095.000,1399.000,-1690.000,-1951.000,-1728.000,-562.000,0.000,0.000,0
2026-01-30 23:05:10,197374,-44.000,3150.000,88.000,-464.000,-2219.000,1687.000,0.000,0.000,0
2026-01-30 23:05:10,197414,-1110.000,6354.000,6.000,-2454.000,-1656.000,1672.000,0.000,0.000,0
2026-01-30 23:05:10,197454,1568.000,4854.000,2005.000,-1942.000,-2587.000,9.000,0.000,0.000,0
2026-01-30 23:05:10,197494,3104.000,8873.000,1480.000,1862.000,-1848.000,-2229.000,0.000,0.000,0
2026-01-30 23:05:10,197534,6782.000,7455.000,1749.000,-2923.000,-1520.000,-931.000,0.000,0.000,0
2026-01-30 23:05:10,197574,6700.000,9822.000,1320.000,-4345.000,750.000,1801.000,0.000,0.000,0
2026-01-30 23:05:10,197614,5122.000,7200.000,-831.000,-8337.000,-2377.000,4982.000,0.000,0.000,0
2026-01-30 23:05:10,197654,2712.000,6498.000,-928.000,-7454.000,-4041.000,4278.000,0.000,0.000,0
2026-01-30 23:05:10,197694,541.000,12553.000,-2338.000,2814.000,-5132.000,1144.000,0.000,0.000,0
2026-01-30 23:05:10,197734,-6883.000,3693.000,-6995.000,5709.000,-3190.000,323.000,0.000,0.000,0
2026-01-30 23:05:10,197774,-3807.000,9578.000,-10485.000,13859.000,-12152.000,-1365.000,0.000,0.000,0
2026-01-30 23:05:10,197814,-2229.000,6318.000,-5637.000,3869.000,-9046.000,505.000,0.000,0.000,0
2026-01-30 23:05:10,197854,-600.000,8637.000,1188.000,-3355.000,-9763.000,2966.000,0.000,0.000,0
2026-01-30 23:05:10,197894,2832.000,5133.000,-371.000,-13089.000,-12911.000,11472.000,0.000,0.000,0
2026-01-30 23:05:10,197936,12309.000,-2392.000,1740.000,-9555.000,-8057.000,15319.000,0.000,0.000,0
2026-01-30 23:05:10,197974,9058.000,-760.000,-1178.000,-9725.000,-1179.000,12809.000,0.000,0.000,0
2026-01-30 23:05:10,198014,6507.000,-3400.000,-8562.000,67.000,395.000,9092.000,0.000,0.000,0
2026-01-30 23:05:10,198054,8148.000,5859.000,-6086.000,18033.000,3144.000,-380.000,0.000,0.000,0
2026-01-30 23:05:10,198094,5040.000,-4069.000,-14371.000,30692.000,3190.000,-2530.000,0.000,0.000,0
2026-01-30 23:05:11,198134,7858.000,10253.000,-22987.000,32713.000,-438.000,-8229.000,0.000,0.000,0
2026-01-30 23:05:11,198174,8273.000,-2946.000,-12874.000,32713.000,-3107.000,-9839.000,0.000,0.000,0
2026-01-30 23:05:11,198214,8436.000,37.000,-15429.000,32713.000,-2079.000,-8251.000,0.000,0.000,0
2026-01-30 23:05:11,198254,11362.000,5203.000,1332.000,31940.000,-2213.000,-6173.000,0.000,0.000,0
2026-01-30 23:05:11,198294,6775.000,-3629.000,8504.000,22129.000,-3360.000,-6301.000,0.000,0.000,0
2026-01-30 23:05:11,198334,7108.000,614.000,5465.000,18356.000,-4047.000,-7047.000,0.000,0.000,0
2026-01-30 23:05:11,198374,11393.000,97.000,11661.000,769.000,-3585.000,-9119.000,0.000,0.000,0
2026-01-30 23:05:11,198414,5652.000,2081.000,6719.000,-20621.000,3179.000,-5966.000,0.000,0.000,0
2026-01-30 23:05:11,198454,5828.000,-2538.000,2120.000,-32723.000,4707.000,551.000,0.000,0.000,0
2026-01-30 23:05:11,198494,3412.000,-1790.000,2232.000,32721.000,6244.000,1074.000,0.000,0.000,0
2026-01-30 23:05:11,198534,4312.000,-3049.000,-4853.000,32721.000,2878.000,-5603.000,0.000,0.000,0
2026-01-30 23:05:11,198574,7173.000,-1690.000,-9003.000,-32735.000,-3697.000,-68.000,0.000,0.000,0
2026-01-30 23:05:11,198614,5623.000,150.000,-5859.000,-22589.000,-8624.000,2539.000,0.000,0.000,0
2026-01-30 23:05:11,198654,7850.000,-4206.000,-420.000,-15416.000,-11238.000,5215.000,0.000,0.000,0
2026-01-30 23:05:11,198694,7807.000,-7847.000,-3583.000,2953.000,-9330.000,3024.000,0.000,0.000,0
2026-01-30 23:05:11,198734,10680.000,-8090.000,-8546.000,31264.000,-1184.000,5164.000,0.000,0.000,0
2026-01-30 23:05:11,198774,5631.000,1135.000,-15838.000,32713.000,3290.000,-8996.000,0.000,0.000,0
2026-01-30 23:05:11,198814,1697.000,-73.000,-8579.000,32713.000,4805.000,-7983.000,0.000,0.000,0
2026-01-30 23:05:11,198854,895.000,18265.000,-6941.000,29749.000,-9383.000,636.000,0.000,0.000,0
2026-01-30 23:05:11,198894,19021.000,15241.000,-269.000,-26341.000,-15359.000,-6804.000,0.000,0.000,0
2026-01-30 23:05:11,198934,15806.000,22406.000,6216.000,-32579.000,-24899.000,-21934.000,0.000,0.000,0
2026-01-30 23:05:11,198974,16242.000,28047.000,-1617.000,32721.000,-20622.000,-22049.000,0.000,0.000,0
2026-01-30 23:05:11,199014,21883.000,814.000,-10654.000,32721.000,4962.000,-18516.000,0.000,0.000,0
2026-01-30 23:05:11,199054,11840.000,-1755.000,-153.000,-23214.000,18141.000,-11499.000,0.000,0.000,0
2026-01-30 23:05:11,199094,9018.000,608.000,313.000,-16523.000,17712.000,-9436.000,0.000,0.000,0
2026-01-30 23:05:12,199134,3642.000,-3335.000,3807.000,-8577.000,16191.000,-13691.000,0.000,0.000,0
2026-01-30 23:05:12,199174,2848.000,-1080.000,3214.000,-13753.000,8835.000,-9463.000,0.000,0.000,0
2026-01-30 23:05:12,199214,1946.000,-2861.000,5290.000,-11343.000,7176.000,-8264.000,0.000,0.000,0
2026-01-30 23:05:12,199254,1219.000,-3918.000,6641.000,-4442.000,6150.000,-6045.000,0.000,0.000,0
2026-01-30 23:05:12,199294,1774.000,-3202.000,7585.000,-4937.000,6026.000,-5459.000,0.000,0.000,0
2026-01-30 23:05:12,199334,369.000,-7936.000,6049.000,-1266.000,6847.000,-2524.000,0.000,0.000,0
2026-01-30 23:05:12,199374,-3633.000,-4768.000,9638.000,4949.000,6845.000,-3690.000,0.000,0.000,0
2026-01-30 23:05:12,199414,-3372.000,-5053.000,10290.000,1987.000,5191.000,-6577.000,0.000,0.000,0
2026-01-30 23:05:12,199454,-1643.000,-6834.000,9595.000,4948.000,4031.000,-8392.000,0.000,0.000,0
2026-01-30 23:05:12,199494,2241.000,-4556.000,11905.000,8713.000,3180.000,-8078.000,0.000,0.000,0
2026-01-30 23:05:12,199534,4382.000,-2489.000,12833.000,9004.000,5408.000,-6188.000,0.000,0.000,0
2026-01-30 23:05:12,199574,9321.000,-1815.000,5442.000,4936.000,13487.000,-3409.000,0.000,0.000,0
2026-01-30 23:05:12,199614,4744.000,-241.000,-4535.000,16297.000,23599.000,-10756.000,0.000,0.000,0
2026-01-30 23:05:12,199654,1990.000,5204.000,-4075.000,23782.000,22527.000,-22427.000,0.000,0.000,0
2026-01-30 23:05:12,199694,5006.000,1915.000,-9008.000,15538.000,13791.000,-29550.000,0.000,0.000,0
2026-01-30 23:05:12,199734,-6706.000,-9028.000,-5469.000,20913.000,10789.000,-32700.000,0.000,0.000,0
2026-01-30 23:05:12,199774,-3997.000,-4180.000,2920.000,24444.000,-3982.000,-29036.000,0.000,0.000,0
2026-01-30 23:05:12,199814,-5993.000,-1293.000,10749.000,12623.000,-9821.000,-16187.000,0.000,0.000,0
2026-01-30 23:05:12,199854,-2779.000,-1467.000,21450.000,-8786.000,-5600.000,-1500.000,0.000,0.000,0
2026-01-30 23:05:12,199894,-5115.000,3081.000,18602.000,-4235.000,3504.000,-134.000,0.000,0.000,0
2026-01-30 23:05:12,199936,-6145.000,-8159.000,1326.000,-1892.000,-1035.000,1671.000,0.000,0.000,0
2026-01-30 23:05:12,199974,-2172.000,-2095.000,7870.000,-5934.000,-279.000,7885.000,0.000,0.000,0
2026-01-30 23:05:12,200014,-4723.000,-904.000,3464.000,-9906.000,5295.000,11898.000,0.000,0.000,0
2026-01-30 23:05:12,200054,-12406.000,-1433.000,5426.000,-20007.000,5645.000,15752.000,0.000,0.000,0
2026-01-30 23:05:12,200094,-5319.000,1070.000,3471.000,-10054.000,883.000,15283.000,0.000,0.000,0
2026-01-30 23:05:13,200134,-9091.000,-4627.000,1113.000,-25050.000,1637.000,19768.000,0.000,0.000,0
2026-01-30 23:05:13,200174,406.000,-3613.000,633.000,-10727.000,-1418.000,23345.000,0.000,0.000,0
2026-01-30 23:05:13,200214,-3834.000,-4645.000,-5050.000,-7481.000,39.000,29533.000,0.000,0.000,0
2026-01-30 23:05:13,200254,-7202.000,-4103.000,-8852.000,5272.000,1067.000,28534.000,0.000,0.000,0
2026-01-30 23:05:13,200294,-21067.000,18886.000,-3340.000,24779.000,6672.000,14067.000,0.000,0.000,0
2026-01-30 23:05:13,200334,-16579.000,12892.000,7800.000,-8328.000,-6327.000,-10930.000,0.000,0.000,0
2026-01-30 23:05:13,200374,-8076.000,-2351.000,768.000,-7795.000,-6222.000,-20619.000,0.000,0.000,0
2026-01-30 23:05:13,200414,-8840.000,3894.000,1374.000,10805.000,-7521.000,-24403.000,0.000,0.000,0
2026-01-30 23:05:13,200454,-8202.000,-2896.000,-2346.000,1775.000,-12387.000,-16120.000,0.000,0.000,0
2026-01-30 23:05:13,200494,-7788.000,-8007.000,600.000,3690.000,-13361.000,-6178.000,0.000,0.000,0
2026-01-30 23:05:13,200534,-4159.000,4911.000,6619.000,18173.000,-10692.000,-1706.000,0.000,0.000,0
2026-01-30 23:05:13,200574,-6851.000,5624.000,6966.000,7741.000,-3825.000,245.000,0.000,0.000,0
2026-01-30 23:05:13,200614,-4338.000,-3629.000,5232.000,3081.000,-3557.000,395.000,0.000,0.000,0
2026-01-30 23:05:13,200654,-3053.000,-1875.000,3844.000,8084.000,-3853.000,-281.000,0.000,0.000,0
2026-01-30 23:05:13,200694,-477.000,-1129.000,2585.000,8575.000,-4371.000,-1064.000,0.000,0.000,0
2026-01-30 23:05:13,200734,-1209.000,48.000,2057.000,9599.000,-1780.000,-1429.000,0.000,0.000,0
2026-01-30 23:05:13,200774,-2644.000,4022.000,1944.000,9746.000,-349.000,-1840.000,0.000,0.000,0
2026-01-30 23:05:13,200814,-3478.000,5215.000,4192.000,5303.000,1105.000,-996.000,0.000,0.000,0
2026-01-30 23:05:13,200854,-5481.000,3511.000,4883.000,3378.000,2647.000,10.000,0.000,0.000,0
2026-01-30 23:05:13,200894,-6143.000,5725.000,6094.000,5364.000,3279.000,1430.000,0.000,0.000,0
2026-01-30 23:05:13,200934,-5956.000,9407.000,6174.000,2216.000,3361.000,3379.000,0.000,0.000,0
2026-01-30 23:05:13,200974,-7110.000,8154.000,5343.000,-1198.000,4597.000,4022.000,0.000,0.000,0
2026-01-30 23:05:13,201014,-9145.000,6730.000,2293.000,-1700.000,4614.000,3422.000,0.000,0.000,0
2026-01-30 23:05:13,201054,-8572.000,8633.000,990.000,-1250.000,2677.000,2557.000,0.000,0.000,0
2026-01-30 23:05:13,201094,-6041.000,9451.000,3548.000,-865.000,2222.000,2055.000,0.000,0.000,0
2026-01-30 23:05:14,201134,-4671.000,5399.000,2671.000,-5306.000,5369.000,1209.000,0.000,0.000,0
2026-01-30 23:05:14,201174,-4025.000,1220.000,2091.000,-5244.000,5854.000,1286.000,0.000,0.000,0
2026-01-30 23:05:14,201214,-3376.000,-419.000,2909.000,-1968.000,6253.000,1192.000,0.000,0.000,0
2026-01-30 23:05:14,201254,-5148.000,954.000,4448.000,-190.000,5420.000,793.000,0.000,0.000,0
2026-01-30 23:05:14,201294,-6631.000,5234.000,3815.000,-1754.000,3395.000,38.000,0.000,0.000,0
2026-01-30 23:05:14,201334,-7126.000,4749.000,4162.000,-7138.000,609.000,-580.000,0.000,0.000,0
2026-01-30 23:05:14,201374,-7108.000,2958.000,4035.000,-7183.000,-1003.000,-1199.000,0.000,0.000,0
2026-01-30 23:05:14,201414,-8280.000,3574.000,5540.000,-3979.000,-779.000,-835.000,0.000,0.000,0
2026-01-30 23:05:14,201454,-8253.000,3775.000,5687.000,-5631.000,-215.000,-2075.000,0.000,0.000,0
2026-01-30 23:05:14,201494,-8579.000,1927.000,5382.000,-6602.000,-590.000,-1982.000,0.000,0.000,0
2026-01-30 23:05:14,201534,-10614.000,3892.000,4889.000,-4746.000,-26.000,-1653.000,0.000,0.000,0
2026-01-30 23:05:14,201574,-9610.000,2574.000,4421.000,-8227.000,-1341.000,-1254.000,0.000,0.000,0
2026-01-30 23:05:14,201614,-8227.000,1177.000,2812.000,-7910.000,-2229.000,-1816.000,0.000,0.000,0
2026-01-30 23:05:14,201654,-7355.000,1328.000,1618.000,-7029.000,-2724.000,-1307.000,0.000,0.000,0
2026-01-30 23:05:14,201694,-5707.000,-1957.000,2982.000,-4742.000,-2906.000,-609.000,0.000,0.000,0
2026-01-30 23:05:14,201734,-3842.000,80.000,4633.000,-1002.000,-2699.000,-259.000,0.000,0.000,0
2026-01-30 23:05:14,201774,-3222.000,1394.000,3729.000,-5897.000,-2820.000,730.000,0.000,0.000,0
2026-01-30 23:05:14,201814,-2830.000,-1205.000,3122.000,-10296.000,-2894.000,1603.000,0.000,0.000,0
2026-01-30 23:05:14,201854,-3951.000,-1300.000,4787.000,-620.000,-1579.000,-159.000,0.000,0.000,0
2026-01-30 23:05:14,201894,-5890.000,-1596.000,5208.000,-732.000,-749.000,-257.000,0.000,0.000,0
2026-01-30 23:05:14,201937,-6284.000,-1782.000,7622.000,-3065.000,-867.000,30.000,0.000,0.000,0
2026-01-30 23:05:14,201974,-6182.000,-3916.000,7323.000,3145.000,-530.000,281.000,0.000,0.000,0
2026-01-30 23:05:14,202014,-8898.000,672.000,7063.000,8359.000,-664.000,515.000,0.000,0.000,0
2026-01-30 23:05:14,202054,-7111.000,54.000,8721.000,4458.000,-1541.000,332.000,0.000,0.000,0
2026-01-30 23:05:14,202094,-6847.000,702.000,8777.000,4393.000,-1266.000,-615.000,0.000,0.000,0
2026-01-30 23:05:15,202134,-4825.000,2487.000,8057.000,2925.000,-1483.000,-462.000,0.000,0.000,0
2026-01-30 23:05:15,202174,-4463.000,3414.000,7955.000,-1094.000,-1060.000,94.000,0.000,0.000,0
2026-01-30 23:05:15,202214,-3232.000,1157.000,7940.000,-561.000,-690.000,1300.000,0.000,0.000,0
2026-01-30 23:05:15,202254,-3884.000,52.000,5250.000,1439.000,188.000,1726.000,0.000,0.000,0
2026-01-30 23:05:15,202294,-2972.000,381.000,4256.000,2122.000,-150.000,1261.000,0.000,0.000,0
2026-01-30 23:05:15,202334,-2252.000,-815.000,4115.000,1833.000,-174.000,653.000,0.000,0.000,0
2026-01-30 23:05:15,202374,-2907.000,579.000,4150.000,4051.000,411.000,-6.000,0.000,0.000,0
2026-01-30 23:05:15,202414,-3183.000,594.000,4989.000,2700.000,433.000,-571.000,0.000,0.000,0
2026-01-30 23:05:15,202454,-3167.000,-219.000,6480.000,3705.000,436.000,-1397.000,0.000,0.000,0
2026-01-30 23:05:15,202494,-4485.000,3266.000,6987.000,6469.000,1273.000,-2393.000,0.000,0.000,0
2026-01-30 23:05:15,202534,-5352.000,4388.000,8406.000,2577.000,1965.000,-3261.000,0.000,0.000,0
2026-01-30 23:05:15,202574,-8088.000,1873.000,8404.000,-2242.000,1621.000,-2851.000,0.000,0.000,0
2026-01-30 23:05:15,202614,-9726.000,402.000,9518.000,-749.000,-134.000,-1999.000,0.000,0.000,0
2026-01-30 23:05:15,202654,-9170.000,141.000,8060.000,-1432.000,-120.000,-1179.000,0.000,0.000,0
2026-01-30 23:05:15,202694,-7707.000,-1240.000,6385.000,-542.000,1118.000,-868.000,0.000,0.000,0
2026-01-30 23:05:15,202734,-6074.000,-1612.000,5388.000,1423.000,2568.000,-193.000,0.000,0.000,0
2026-01-30 23:05:15,202774,-5116.000,-1763.000,4971.000,2027.000,3064.000,1550.000,0.000,0.000,0
2026-01-30 23:05:15,202814,-2935.000,-759.000,4203.000,3035.000,2951.000,4104.000,0.000,0.000,0
2026-01-30 23:05:15,202854,-1581.000,458.000,2058.000,4288.000,3161.000,6020.000,0.000,0.000,0
2026-01-30 23:05:15,202894,-1469.000,2522.000,162.000,6000.000,2989.000,6433.000,0.000,0.000,0
2026-01-30 23:05:15,202934,-2651.000,4695.000,27.000,6620.000,1932.000,5630.000,0.000,0.000,0
2026-01-30 23:05:15,202974,-4822.000,5178.000,954.000,5368.000,3.000,3628.000,0.000,0.000,0
2026-01-30 23:05:15,203014,-8203.000,7005.000,2601.000,2960.000,-1260.000,593.000,0.000,0.000,0
2026-01-30 23:05:15,203054,-8732.000,6108.000,4457.000,2240.000,-2090.000,-289.000,0.000,0.000,0
2026-01-30 23:05:15,203094,-9249.000,7737.000,4854.000,1787.000,-3379.000,-1304.000,0.000,0.000,0
2026-01-30 23:05:16,203134,-7591.000,8039.000,5730.000,-1155.000,-3251.000,-1572.000,0.000,0.000,0
2026-01-30 23:05:16,203174,-7050.000,7470.000,6850.000,-1925.000,-3153.000,-1655.000,0.000,0.000,0
2026-01-30 23:05:16,203214,-5762.000,7000.000,5677.000,-3561.000,-3160.000,-1474.000,0.000,0.000,0
2026-01-30 23:05:16,203254,-3864.000,6375.000,5281.000,-5640.000,-2093.000,-807.000,0.000,0.000,0
2026-01-30 23:05:16,203294,-3117.000,5827.000,6311.000,-9105.000,-843.000,851.000,0.000,0.000,0
2026-01-30 23:05:16,203334,-3600.000,2837.000,6046.000,-14227.000,-589.000,2213.000,0.000,0.000,0
2026-01-30 23:05:16,203374,-3835.000,1754.000,4474.000,-4208.000,328.000,1684.000,0.000,0.000,0
2026-01-30 23:05:16,203414,-2932.000,2602.000,4832.000,-3899.000,523.000,915.000,0.000,0.000,0
2026-01-30 23:05:16,203454,-2600.000,-1709.000,3031.000,-7362.000,470.000,312.000,0.000,0.000,0
2026-01-30 23:05:16,203494,-3253.000,-634.000,4425.000,-2569.000,697.000,-242.000,0.000,0.000,0
2026-01-30 23:05:16,203534,-3926.000,1499.000,6100.000,-793.000,1311.000,-1259.000,0.000,0.000,0
2026-01-30 23:05:16,203574,-5116.000,-20.000,6695.000,-2002.000,1671.000,-1426.000,0.000,0.000,0
2026-01-30 23:05:16,203614,-5676.000,322.000,8124.000,-244.000,1228.000,-1375.000,0.000,0.000,0
2026-01-30 23:05:16,203658,-7068.000,907.000,7839.000,2191.000,1176.000,-1723.000,0.000,0.000,0
2026-01-30 23:05:16,203694,-8007.000,2051.000,9760.000,2781.000,608.000,-1474.000,0.000,0.000,0
2026-01-30 23:05:16,203734,-8705.000,2225.000,9605.000,2090.000,330.000,-1947.000,0.000,0.000,0
2026-01-30 23:05:16,203774,-8121.000,761.000,6256.000,1760.000,380.000,-1914.000,0.000,0.000,0
2026-01-30 23:05:16,203814,-7187.000,496.000,5707.000,3400.000,1076.000,-1547.000,0.000,0.000,0
2026-01-30 23:05:16,203854,-7321.000,1400.000,6754.000,6774.000,2680.000,-1391.000,0.000,0.000,0
2026-01-30 23:05:16,203894,-7352.000,2756.000,6755.000,3945.000,3357.000,-510.000,0.000,0.000,0
2026-01-30 23:05:16,203937,-5463.000,1332.000,4279.000,-700.000,3085.000,557.000,0.000,0.000,0
2026-01-30 23:05:16,203974,-4478.000,2841.000,1057.000,892.000,2135.000,1076.000,0.000,0.000,0
2026-01-30 23:05:16,204014,-3615.000,2724.000,-992.000,-1802.000,-466.000,1349.000,0.000,0.000,0
2026-01-30 23:05:16,204054,-3467.000,1899.000,116.000,-7162.000,-2743.000,211.000,0.000,0.000,0
2026-01-30 23:05:16,204094,-3587.000,1942.000,2612.000,-5350.000,-4336.000,-988.000,0.000,0.000,0
2026-01-30 23:05:17,204134,-5386.000,-1182.000,5790.000,-11846.000,-3748.000,-976.000,0.000,0.000,0
2026-01-30 23:05:17,204174,-6453.000,-6987.000,7320.000,-9227.000,-2597.000,-1222.000,0.000,0.000,0
2026-01-30 23:05:17,204214,-9039.000,-470.000,8067.000,-2989.000,-1429.000,67.000,0.000,0.000,0
2026-01-30 23:05:17,204254,-8233.000,-5247.000,10090.000,-7674.000,-1788.000,-636.000,0.000,0.000,0
2026-01-30 23:05:17,204294,-7690.000,275.000,10406.000,4882.000,-874.000,-1322.000,0.000,0.000,0
2026-01-30 23:05:17,204334,-3613.000,418.000,9707.000,-2929.000,-106.000,124.000,0.000,0.000,0
2026-01-30 23:05:17,204374,-2880.000,939.000,7335.000,-7984.000,-117.000,1274.000,0.000,0.000,0
2026-01-30 23:05:17,204414,-3077.000,-504.000,4321.000,-13982.000,-1442.000,2239.000,0.000,0.000,0
2026-01-30 23:05:17,204454,-3154.000,-3505.000,3476.000,-15140.000,-1748.000,1799.000,0.000,0.000,0
2026-01-30 23:05:17,204494,-2529.000,-6313.000,802.000,-5805.000,-1349.000,1282.000,0.000,0.000,0
2026-01-30 23:05:17,204534,-2193.000,-4528.000,408.000,2397.000,-836.000,2303.000,0.000,0.000,0
2026-01-30 23:05:17,204574,-3397.000,-2244.000,4998.000,8993.000,903.000,1052.000,0.000,0.000,0
2026-01-30 23:05:17,204614,-5000.000,-1280.000,5386.000,7958.000,1503.000,-255.000,0.000,0.000,0
2026-01-30 23:05:17,204654,-5355.000,-1271.000,6902.000,5941.000,1036.000,-1319.000,0.000,0.000,0
2026-01-30 23:05:17,204694,-5148.000,-1696.000,8918.000,2874.000,1165.000,-1793.000,0.000,0.000,0
2026-01-30 23:05:17,204734,-5847.000,-1942.000,8929.000,-261.000,1258.000,-1801.000,0.000,0.000,0
2026-01-30 23:05:17,204774,-6686.000,-2670.000,7801.000,362.000,937.000,-1236.000,0.000,0.000,0
2026-01-30 23:05:17,204814,-7703.000,-2332.000,8096.000,-1706.000,1634.000,-853.000,0.000,0.000,0
2026-01-30 23:05:17,204854,-7423.000,-4165.000,6187.000,-4029.000,2307.000,88.000,0.000,0.000,0
2026-01-30 23:05:17,204894,-6211.000,-3630.000,2795.000,-485.000,3404.000,1727.000,0.000,0.000,0
2026-01-30 23:05:17,204934,-4254.000,-3959.000,2108.000,204.000,4152.000,7164.000,0.000,0.000,0
2026-01-30 23:05:17,204974,-3338.000,-2597.000,1268.000,2358.000,2526.000,11449.000,0.000,0.000,0
2026-01-30 23:05:17,205014,-2129.000,-1843.000,1477.000,4713.000,-690.000,16048.000,0.000,0.000,0
2026-01-30 23:05:17,205054,-832.000,663.000,1147.000,8781.000,-2458.000,18673.000,0.000,0.000,0
2026-01-30 23:05:17,205094,-700.000,6360.000,2560.000,8610.000,-2919.000,19839.000,0.000,0.000,0
2026-01-30 23:05:18,205134,-1737.000,5138.000,1888.000,386.000,-2587.000,19981.000,0.000,0.000,0
2026-01-30 23:05:18,205174,1073.000,7227.000,2348.000,-7489.000,-5131.000,17127.000,0.000,0.000,0
2026-01-30 23:05:18,205214,1813.000,7705.000,4621.000,-823.000,-5302.000,13480.000,0.000,0.000,0
2026-01-30 23:05:18,205254,3475.000,12185.000,5616.000,-410.000,-7036.000,13385.000,0.000,0.000,0
2026-01-30 23:05:18,205294,3761.000,8076.000,3687.000,-4028.000,-7692.000,9587.000,0.000,0.000,0
2026-01-30 23:05:18,205334,6160.000,7536.000,6976.000,-2021.000,-8564.000,8142.000,0.000,0.000,0
2026-01-30 23:05:18,205374,5806.000,3540.000,5617.000,-356.000,-8198.000,9036.000,0.000,0.000,0
2026-01-30 23:05:18,205414,7454.000,3517.000,4079.000,2937.000,-8723.000,9634.000,0.000,0.000,0
2026-01-30 23:05:18,205454,11712.000,4135.000,4466.000,6656.000,-9152.000,10095.000,0.000,0.000,0
2026-01-30 23:05:18,205494,12355.000,4415.000,3662.000,10847.000,-7305.000,8171.000,0.000,0.000,0
2026-01-30 23:05:18,205534,10155.000,3947.000,4612.000,9171.000,-4382.000,7362.000,0.000,0.000,0
2026-01-30 23:05:18,205574,8265.000,1876.000,3730.000,11341.000,-1240.000,4341.000,0.000,0.000,0
2026-01-30 23:05:18,205614,5977.000,4614.000,6597.000,16833.000,2698.000,1123.000,0.000,0.000,0
2026-01-30 23:05:18,205654,4115.000,3963.000,117.000,14360.000,-1114.000,-721.000,0.000,0.000,0
2026-01-30 23:05:18,205694,4897.000,4669.000,148.000,2211.000,-3353.000,1273.000,0.000,0.000,0
2026-01-30 23:05:18,205734,6866.000,6074.000,-3170.000,5707.000,-5778.000,-1005.000,0.000,0.000,0
2026-01-30 23:05:18,205774,7914.000,7365.000,-528.000,245.000,-3249.000,-2285.000,0.000,0.000,0
2026-01-30 23:05:18,205814,9180.000,6442.000,-2568.000,-4105.000,-3647.000,-2106.000,0.000,0.000,0
2026-01-30 23:05:18,205854,8760.000,3975.000,-1352.000,-2616.000,-1248.000,-3821.000,0.000,0.000,0
2026-01-30 23:05:18,205894,8675.000,5893.000,-3175.000,3219.000,-2186.000,-5230.000,0.000,0.000,0
2026-01-30 23:05:18,205936,7962.000,6599.000,-4222.000,637.000,-2087.000,-5013.000,0.000,0.000,0
2026-01-30 23:05:18,205974,8080.000,642.000,-1750.000,-4542.000,-2163.000,-3017.000,0.000,0.000,0
2026-01-30 23:05:18,206014,8845.000,3740.000,-2028.000,-895.000,-1926.000,-3090.000,0.000,0.000,0
2026-01-30 23:05:18,206054,7357.000,-183.000,-3154.000,-6251.000,-997.000,3673.000,0.000,0.000,0
2026-01-30 23:05:18,206094,5570.000,6465.000,381.000,1946.000,1564.000,2295.000,0.000,0.000,0
2026-01-30 23:05:19,206134,2714.000,4242.000,-285.000,-9662.000,-515.000,5099.000,0.000,0.000,0
2026-01-30 23:05:19,206174,3702.000,11106.000,-2450.000,-16486.000,-2681.000,6950.000,0.000,0.000,0
2026-01-30 23:05:19,206214,5769.000,-2065.000,-1001.000,-18399.000,-3300.000,5296.000,0.000,0.000,0
2026-01-30 23:05:19,206254,5702.000,-979.000,1070.000,-2899.000,971.000,2222.000,0.000,0.000,0
2026-01-30 23:05:19,206294,5961.000,-1949.000,-1001.000,8001.000,-1062.000,-933.000,0.000,0.000,0
2026-01-30 23:05:19,206334,7580.000,121.000,-1113.000,14992.000,-1431.000,-841.000,0.000,0.000,0
2026-01-30 23:05:19,206374,9024.000,4582.000,-6191.000,18878.000,-774.000,-1248.000,0.000,0.000,0
2026-01-30 23:05:19,206414,7911.000,9246.000,-4138.000,15145.000,2175.000,-3269.000,0.000,0.000,0
2026-01-30 23:05:19,206454,5853.000,6682.000,-2234.000,9326.000,2045.000,-1634.000,0.000,0.000,0
2026-01-30 23:05:19,206494,6736.000,8376.000,-571.000,-759.000,1218.000,-2358.000,0.000,0.000,0
2026-01-30 23:05:19,206534,9335.000,3982.000,428.000,-12178.000,-793.000,-601.000,0.000,0.000,0
2026-01-30 23:05:19,206574,10871.000,-2545.000,-3878.000,-10071.000,752.000,-36.000,0.000,0.000,0
2026-01-30 23:05:19,206614,10104.000,5079.000,-3963.000,667.000,1898.000,-1210.000,0.000,0.000,0
2026-01-30 23:05:19,206654,5797.000,5332.000,-799.000,-6290.000,3422.000,-1960.000,0.000,0.000,0
2026-01-30 23:05:19,206694,2919.000,1457.000,2442.000,-4875.000,1472.000,-3715.000,0.000,0.000,0
2026-01-30 23:05:19,206734,141.000,88.000,1073.000,-2962.000,721.000,-3193.000,0.000,0.000,0
2026-01-30 23:05:19,206774,466.000,-310.000,-120.000,-2575.000,-814.000,-1804.000,0.000,0.000,0
2026-01-30 23:05:19,206814,5906.000,5380.000,1060.000,107.000,-3665.000,-414.000,0.000,0.000,0
2026-01-30 23:05:19,206854,6766.000,7623.000,945.000,-2006.000,-2252.000,-69.000,0.000,0.000,0
2026-01-30 23:05:19,206894,9048.000,8036.000,404.000,-4357.000,-2794.000,-1029.000,0.000,0.000,0
2026-01-30 23:05:19,206934,9853.000,8659.000,2833.000,-7781.000,1.000,-4262.000,0.000,0.000,0
2026-01-30 23:05:19,206974,8557.000,6653.000,1043.000,-1111.000,857.000,-4444.000,0.000,0.000,0
2026-01-30 23:05:19,207014,7507.000,9296.000,-1538.000,-70.000,78.000,-2690.000,0.000,0.000,0
2026-01-30 23:05:19,207054,8410.000,6239.000,1197.000,-4529.000,-1506.000,-1439.000,0.000,0.000,0
2026-01-30 23:05:19,207094,7877.000,2126.000,-3404.000,-5378.000,-2268.000,876.000,0.000,0.000,0
2026-01-30 23:05:20,207134,8049.000,4030.000,-3993.000,-1032.000,-2101.000,4446.000,0.000,0.000,0
2026-01-30 23:05:20,207174,6470.000,5978.000,897.000,883.000,-1474.000,6579.000,0.000,0.000,0
2026-01-30 23:05:20,207214,5059.000,2418.000,-1508.000,193.000,-2665.000,4993.000,0.000,0.000,0
2026-01-30 23:05:20,207254,5457.000,4344.000,-758.000,3812.000,-1754.000,3556.000,0.000,0.000,0
2026-01-30 23:05:20,207294,4139.000,3130.000,578.000,4561.000,-520.000,3818.000,0.000,0.000,0
2026-01-30 23:05:20,207334,3795.000,367.000,-669.000,6412.000,1180.000,5484.000,0.000,0.000,0
2026-01-30 23:05:20,207374,6101.000,3669.000,-731.000,7724.000,1970.000,4341.000,0.000,0.000,0
2026-01-30 23:05:20,207414,8587.000,3839.000,1159.000,9141.000,2219.000,2474.000,0.000,0.000,0
2026-01-30 23:05:20,207454,9103.000,4819.000,-1017.000,6818.000,1268.000,1238.000,0.000,0.000,0
2026-01-30 23:05:20,207494,9061.000,3965.000,-1125.000,4348.000,-131.000,1134.000,0.000,0.000,0
2026-01-30 23:05:20,207534,10643.000,3174.000,-556.000,4427.000,-884.000,2077.000,0.000,0.000,0
2026-01-30 23:05:20,207574,12479.000,6081.000,-2563.000,3540.000,767.000,-36.000,0.000,0.000,0
2026-01-30 23:05:20,207614,9591.000,5124.000,-477.000,-4341.000,1693.000,-3180.000,0.000,0.000,0
2026-01-30 23:05:20,207656,9601.000,-590.000,-922.000,-9765.000,1624.000,-3474.000,0.000,0.000,0
2026-01-30 23:05:20,207698,9035.000,-729.000,-1219.000,-6294.000,2193.000,-4343.000,0.000,0.000,0
2026-01-30 23:05:20,207755,5518.000,1730.000,-2102.000,-16.000,1659.000,-2957.000,0.000,0.000,0
2026-01-30 23:05:20,207774,3945.000,2865.000,170.000,1750.000,2599.000,-2956.000,0.000,0.000,0
2026-01-30 23:05:20,207814,3838.000,5117.000,3724.000,1617.000,1926.000,-2912.000,0.000,0.000,0
2026-01-30 23:05:20,207854,2012.000,19.000,1640.000,-2649.000,1041.000,-1767.000,0.000,0.000,0
2026-01-30 23:05:20,207894,2846.000,4638.000,-1051.000,2458.000,-704.000,-1359.000,0.000,0.000,0
2026-01-30 23:05:20,207936,3232.000,3152.000,-270.000,3123.000,-1304.000,-497.000,0.000,0.000,0
2026-01-30 23:05:20,207975,5475.000,1957.000,-100.000,1869.000,-1527.000,1440.000,0.000,0.000,0
2026-01-30 23:05:20,208014,7149.000,2636.000,-939.000,1319.000,-2143.000,2683.000,0.000,0.000,0
2026-01-30 23:05:20,208054,9758.000,3729.000,1913.000,-375.000,-1399.000,2204.000,0.000,0.000,0
2026-01-30 23:05:20,208094,11550.000,4114.000,70.000,2418.000,95.000,958.000,0.000,0.000,0
2026-01-30 23:05:21,208134,11630.000,6870.000,-677.000,1927.000,836.000,-57.000,0.000,0.000,0
2026-01-30 23:05:21,208174,9797.000,4362.000,601.000,-110.000,1726.000,1541.000,0.000,0.000,0
2026-01-30 23:05:21,208214,8301.000,5003.000,-40.000,809.000,1609.000,1405.000,0.000,0.000,0
2026-01-30 23:05:21,208254,8318.000,7277.000,-1216.000,1605.000,1995.000,751.000,0.000,0.000,0
2026-01-30 23:05:21,208294,6704.000,7984.000,-491.000,1131.000,3463.000,-819.000,0.000,0.000,0
2026-01-30 23:05:21,208334,4621.000,8031.000,-1026.000,915.000,3423.000,-3751.000,0.000,0.000,0
2026-01-30 23:05:21,208374,2917.000,6103.000,-473.000,-1484.000,2257.000,-7593.000,0.000,0.000,0
2026-01-30 23:05:21,208414,2313.000,3732.000,-1861.000,-1034.000,1490.000,-9111.000,0.000,0.000,0
2026-01-30 23:05:21,208454,2588.000,6598.000,-1864.000,1622.000,970.000,-10466.000,0.000,0.000,0
2026-01-30 23:05:21,208494,3081.000,5381.000,-2411.000,1651.000,123.000,-10880.000,0.000,0.000,0
2026-01-30 23:05:21,208534,2960.000,4974.000,-2075.000,4171.000,-287.000,-11421.000,0.000,0.000,0
2026-01-30 23:05:21,208574,2790.000,6480.000,-2414.000,6608.000,-1219.000,-11322.000,0.000,0.000,0
2026-01-30 23:05:21,208614,2776.000,8152.000,-1632.000,6822.000,-1877.000,-10073.000,0.000,0.000,0
2026-01-30 23:05:21,208654,2732.000,9293.000,-2038.000,7397.000,-2347.000,-8481.000,0.000,0.000,0
2026-01-30 23:05:21,208694,3274.000,9952.000,-1853.000,6266.000,-2527.000,-6458.000,0.000,0.000,0
2026-01-30 23:05:21,208734,3776.000,10345.000,-2067.000,3139.000,-1524.000,-3210.000,0.000,0.000,0
2026-01-30 23:05:21,208774,3042.000,9406.000,-1553.000,728.000,-1440.000,-2036.000,0.000,0.000,0
2026-01-30 23:05:21,208814,2990.000,8760.000,-1744.000,-107.000,-1264.000,-1483.000,0.000,0.000,0
2026-01-30 23:05:21,208854,2308.000,8337.000,-2691.000,-1727.000,-687.000,-1472.000,0.000,0.000,0
2026-01-30 23:05:21,208894,1176.000,6573.000,-2101.000,-4610.000,-28.000,-894.000,0.000,0.000,0
2026-01-30 23:05:21,208934,-310.000,6393.000,-1818.000,-3642.000,874.000,-447.000,0.000,0.000,0
2026-01-30 23:05:21,208974,-1554.000,5321.000,-771.000,-5096.000,745.000,-390.000,0.000,0.000,0
2026-01-30 23:05:21,209014,-2032.000,2416.000,-135.000,-2621.000,719.000,-518.000,0.000,0.000,0
2026-01-30 23:05:21,209054,-2275.000,5691.000,237.000,1756.000,1060.000,-1442.000,0.000,0.000,0
2026-01-30 23:05:21,209094,-1922.000,5651.000,-270.000,3030.000,954.000,-1624.000,0.000,0.000,0
2026-01-30 23:05:22,209134,-1322.000,9182.000,-710.000,4694.000,1252.000,-1129.000,0.000,0.000,0
2026-01-30 23:05:22,209174,-1723.000,8966.000,-1993.000,-205.000,709.000,-847.000,0.000,0.000,0
2026-01-30 23:05:22,209214,-1980.000,9127.000,-2803.000,-169.000,209.000,-892.000,0.000,0.000,0
2026-01-30 23:05:22,209254,-1807.000,10066.000,-3299.000,-904.000,-338.000,-988.000,0.000,0.000,0
2026-01-30 23:05:22,209294,-2406.000,10406.000,-3203.000,-1115.000,-125.000,-921.000,0.000,0.000,0
2026-01-30 23:05:22,209334,-2718.000,10576.000,-3400.000,-1489.000,-133.000,-719.000,0.000,0.000,0
2026-01-30 23:05:22,209374,-2059.000,9412.000,-2602.000,-2112.000,-839.000,-850.000,0.000,0.000,0
2026-01-30 23:05:22,209414,-1889.000,8406.000,-2922.000,-4024.000,-1078.000,-1244.000,0.000,0.000,0
2026-01-30 23:05:22,209454,-1351.000,8147.000,-3262.000,-3129.000,-859.000,-599.000,0.000,0.000,0
2026-01-30 23:05:22,209494,-432.000,6818.000,-2230.000,-1139.000,-541.000,6.000,0.000,0.000,0
2026-01-30 23:05:22,209534,-449.000,5840.000,-1431.000,-295.000,-573.000,198.000,0.000,0.000,0
2026-01-30 23:05:22,209574,-938.000,5286.000,-483.000,-1370.000,-29.000,191.000,0.000,0.000,0
2026-01-30 23:05:22,209616,-1274.000,5171.000,-610.000,-1656.000,876.000,-149.000,0.000,0.000,0
2026-01-30 23:05:22,209656,-1745.000,5611.000,-1226.000,-124.000,2013.000,-617.000,0.000,0.000,0
2026-01-30 23:05:22,209694,-2095.000,6663.000,-1394.000,-452.000,2621.000,-436.000,0.000,0.000,0
2026-01-30 23:05:22,209734,-2457.000,7151.000,-887.000,-945.000,2742.000,-293.000,0.000,0.000,0
2026-01-30 23:05:22,209774,-2578.000,8451.000,-801.000,-861.000,2986.000,-82.000,0.000,0.000,0
2026-01-30 23:05:22,209814,-2934.000,8959.000,-1491.000,-1560.000,3244.000,341.000,0.000,0.000,0
2026-01-30 23:05:22,209854,-3293.000,9404.000,-1331.000,-1772.000,2926.000,276.000,0.000,0.000,0
2026-01-30 23:05:22,209894,-2238.000,9920.000,-1476.000,-1550.000,2729.000,268.000,0.000,0.000,0
2026-01-30 23:05:22,209936,-1507.000,9854.000,-1483.000,-333.000,2865.000,148.000,0.000,0.000,0
2026-01-30 23:05:22,209974,-838.000,9065.000,-555.000,-49.000,2035.000,-594.000,0.000,0.000,0
2026-01-30 23:05:22,210014,-326.000,8249.000,103.000,-1127.000,1796.000,-1163.000,0.000,0.000,0
2026-01-30 23:05:22,210054,-409.000,7662.000,-493.000,-890.000,2594.000,-1014.000,0.000,0.000,0
2026-01-30 23:05:22,210094,-1371.000,7232.000,-776.000,361.000,3092.000,-1118.000,0.000,0.000,0
2026-01-30 23:05:23,210134,-1925.000,6376.000,-620.000,134.000,2690.000,-1294.000,0.000,0.000,0
2026-01-30 23:05:23,210174,-2456.000,5756.000,-3.000,-147.000,2123.000,-1355.000,0.000,0.000,0
2026-01-30 23:05:23,210214,-2968.000,6096.000,-38.000,333.000,1476.000,-1458.000,0.000,0.000,0
2026-01-30 23:05:23,210254,-3213.000,6931.000,434.000,42.000,704.000,-1600.000,0.000,0.000,0
2026-01-30 23:05:23,210294,-3303.000,7523.000,475.000,398.000,142.000,-1816.000,0.000,0.000,0
2026-01-30 23:05:23,210334,-3767.000,7554.000,70.000,1.000,-143.000,-2257.000,0.000,0.000,0
2026-01-30 23:05:23,210374,-3835.000,7317.000,-759.000,275.000,-536.000,-2822.000,0.000,0.000,0
2026-01-30 23:05:23,210414,-3830.000,8009.000,-1281.000,428.000,-939.000,-3050.000,0.000,0.000,0
2026-01-30 23:05:23,210454,-3627.000,7954.000,-1827.000,897.000,-1114.000,-3005.000,0.000,0.000,0
2026-01-30 23:05:23,210494,-4164.000,8363.000,-2165.000,1229.000,-913.000,-2097.000,0.000,0.000,0
2026-01-30 23:05:23,210534,-3775.000,8722.000,-2224.000,1595.000,-1018.000,-1046.000,0.000,0.000,0
2026-01-30 23:05:23,210574,-3037.000,7611.000,-1928.000,389.000,-1487.000,-704.000,0.000,0.000,0
2026-01-30 23:05:23,210614,-2908.000,7642.000,-1972.000,-592.000,-1527.000,-323.000,0.000,0.000,0
2026-01-30 23:05:23,210654,-2592.000,7834.000,-1529.000,-663.000,-421.000,779.000,0.000,0.000,0
2026-01-30 23:05:23,210694,-2443.000,7449.000,-1350.000,-696.000,273.000,1223.000,0.000,0.000,0
2026-01-30 23:05:23,210734,-2778.000,7162.000,-779.000,-802.000,473.000,1245.000,0.000,0.000,0
2026-01-30 23:05:23,210774,-2980.000,7576.000,-147.000,-1874.000,434.000,727.000,0.000,0.000,0
2026-01-30 23:05:23,210814,-3263.000,6308.000,-234.000,-3735.000,1061.000,487.000,0.000,0.000,0
2026-01-30 23:05:23,210854,-2974.000,6209.000,-287.000,-2702.000,1900.000,482.000,0.000,0.000,0
2026-01-30 23:05:23,210894,-3135.000,6950.000,-488.000,-1489.000,2566.000,474.000,0.000,0.000,0
2026-01-30 23:05:23,210934,-3369.000,7680.000,-592.000,-1990.000,2648.000,551.000,0.000,0.000,0
2026-01-30 23:05:23,210974,-3298.000,7714.000,-740.000,-2686.000,2867.000,649.000,0.000,0.000,0
2026-01-30 23:05:23,211014,-2982.000,7991.000,-429.000,-2179.000,3322.000,708.000,0.000,0.000,0
2026-01-30 23:05:23,211054,-3494.000,7808.000,-291.000,-2274.000,4123.000,765.000,0.000,0.000,0
2026-01-30 23:05:23,211094,-2872.000,8560.000,-870.000,-1854.000,4377.000,673.000,0.000,0.000,0
2026-01-30 23:05:24,211134,-1526.000,9582.000,-419.000,-746.000,4259.000,953.000,0.000,0.000,0
2026-01-30 23:05:24,211174,-488.000,8942.000,629.000,-1749.000,4376.000,1193.000,0.000,0.000,0
2026-01-30 23:05:24,211214,-269.000,7486.000,942.000,-2161.000,4977.000,758.000,0.000,0.000,0
2026-01-30 23:05:24,211254,-811.000,7890.000,-19.000,-2128.000,5778.000,234.000,0.000,0.000,0
2026-01-30 23:05:24,211294,-916.000,7588.000,-535.000,-2149.000,6122.000,429.000,0.000,0.000,0
2026-01-30 23:05:24,211334,-1378.000,7412.000,218.000,-1006.000,6080.000,405.000,0.000,0.000,0
2026-01-30 23:05:24,211374,-1927.000,7081.000,609.000,-1358.000,5670.000,333.000,0.000,0.000,0
2026-01-30 23:05:24,211414,-2176.000,7436.000,568.000,-1165.000,4861.000,-93.000,0.000,0.000,0
2026-01-30 23:05:24,211454,-1792.000,7141.000,691.000,-1170.000,4356.000,-362.000,0.000,0.000,0
2026-01-30 23:05:24,211494,-1907.000,7076.000,745.000,-949.000,4134.000,-582.000,0.000,0.000,0
2026-01-30 23:05:24,211534,-2332.000,7260.000,858.000,-607.000,3737.000,-657.000,0.000,0.000,0
2026-01-30 23:05:24,211574,-2482.000,7445.000,930.000,-306.000,3276.000,-798.000,0.000,0.000,0
2026-01-30 23:05:24,211614,-2401.000,7577.000,372.000,-487.000,2836.000,-1222.000,0.000,0.000,0
2026-01-30 23:05:24,211654,-2485.000,8393.000,160.000,-1151.000,2650.000,-1311.000,0.000,0.000,0
2026-01-30 23:05:24,211694,-2905.000,9047.000,-1027.000,-932.000,2688.000,-644.000,0.000,0.000,0
2026-01-30 23:05:24,211734,-3358.000,10225.000,-1823.000,422.000,2220.000,-275.000,0.000,0.000,0
2026-01-30 23:05:24,211774,-2705.000,8013.000,-839.000,-757.000,1118.000,837.000,0.000,0.000,0
2026-01-30 23:05:24,211814,-2205.000,6935.000,-761.000,488.000,603.000,191.000,0.000,0.000,0
2026-01-30 23:05:24,211854,-2352.000,7366.000,-1322.000,775.000,1137.000,-286.000,0.000,0.000,0
2026-01-30 23:05:24,211894,-2253.000,7739.000,-2091.000,129.000,1804.000,-9.000,0.000,0.000,0
2026-01-30 23:05:24,211936,-1748.000,6717.000,-2155.000,806.000,3084.000,-226.000,0.000,0.000,0
2026-01-30 23:05:24,211974,-1743.000,7461.000,-1518.000,1268.000,3675.000,-61.000,0.000,0.000,0
2026-01-30 23:05:24,212014,-2250.000,7668.000,-1233.000,244.000,4013.000,-157.000,0.000,0.000,0
2026-01-30 23:05:24,212054,-2722.000,7159.000,-747.000,-914.000,3906.000,-97.000,0.000,0.000,0
2026-01-30 23:05:24,212094,-2953.000,7624.000,-399.000,-1165.000,3771.000,183.000,0.000,0.000,0
2026-01-30 23:05:25,212134,-3174.000,7998.000,-570.000,-1806.000,3590.000,136.000,0.000,0.000,0
2026-01-30 23:05:25,212174,-3783.000,8254.000,-883.000,-2687.000,2650.000,104.000,0.000,0.000,0
2026-01-30 23:05:25,212214,-3265.000,7908.000,-981.000,-2687.000,1960.000,65.000,0.000,0.000,0
2026-01-30 23:05:25,212254,-2976.000,9163.000,-1280.000,-1800.000,1604.000,-57.000,0.000,0.000,0
2026-01-30 23:05:25,212294,-2487.000,8398.000,-1294.000,-1857.000,1321.000,-39.000,0.000,0.000,0
2026-01-30 23:05:25,212334,-2032.000,8705.000,-989.000,-1622.000,1072.000,319.000,0.000,0.000,0
2026-01-30 23:05:25,212374,-1559.000,9584.000,-974.000,-750.000,1159.000,991.000,0.000,0.000,0
2026-01-30 23:05:25,212414,-1022.000,9894.000,-1036.000,-328.000,1480.000,1493.000,0.000,0.000,0
2026-01-30 23:05:25,212454,417.000,9194.000,-124.000,-367.000,1222.000,1241.000,0.000,0.000,0
2026-01-30 23:05:25,212494,919.000,7132.000,-147.000,-3139.000,1212.000,144.000,0.000,0.000,0
2026-01-30 23:05:25,212534,918.000,6221.000,-454.000,-4201.000,2099.000,-864.000,0.000,0.000,0
2026-01-30 23:05:25,212574,1024.000,5267.000,138.000,-2426.000,4556.000,-66.000,0.000,0.000,0
2026-01-30 23:05:25,212614,948.000,5818.000,1265.000,-1240.000,5675.000,644.000,0.000,0.000,0
2026-01-30 23:05:25,212654,702.000,5360.000,2471.000,-3409.000,6360.000,2245.000,0.000,0.000,0
2026-01-30 23:05:25,212694,748.000,4499.000,2257.000,-7776.000,6386.000,4972.000,0.000,0.000,0
2026-01-30 23:05:25,212734,702.000,2417.000,1096.000,-6249.000,5695.000,7873.000,0.000,0.000,0
2026-01-30 23:05:25,212774,888.000,4434.000,1379.000,-1435.000,4638.000,10984.000,0.000,0.000,0
2026-01-30 23:05:25,212814,1662.000,6135.000,995.000,-3959.000,2963.000,13769.000,0.000,0.000,0
2026-01-30 23:05:25,212854,2572.000,6215.000,1859.000,-5429.000,882.000,14832.000,0.000,0.000,0
2026-01-30 23:05:25,212894,6140.000,8501.000,3059.000,-3171.000,-1281.000,14601.000,0.000,0.000,0
2026-01-30 23:05:25,212934,9131.000,4421.000,177.000,-3774.000,-4921.000,14131.000,0.000,0.000,0
2026-01-30 23:05:25,212974,15766.000,6523.000,-670.000,7854.000,-5996.000,14280.000,0.000,0.000,0
2026-01-30 23:05:25,213014,12870.000,7565.000,1253.000,11917.000,-2812.000,13225.000,0.000,0.000,0
2026-01-30 23:05:25,213054,9764.000,7111.000,1432.000,8594.000,-2065.000,11284.000,0.000,0.000,0
2026-01-30 23:05:25,213094,8067.000,6599.000,10.000,719.000,-1796.000,9016.000,0.000,0.000,0
2026-01-30 23:05:26,213134,7810.000,5766.000,-1122.000,-5562.000,-931.000,7197.000,0.000,0.000,0
2026-01-30 23:05:26,213174,7123.000,3905.000,-1574.000,-7632.000,-74.000,5220.000,0.000,0.000,0
2026-01-30 23:05:26,213214,7635.000,2785.000,-871.000,-5296.000,-105.000,2447.000,0.000,0.000,0
2026-01-30 23:05:26,213254,7509.000,2942.000,-619.000,-1399.000,69.000,-153.000,0.000,0.000,0
2026-01-30 23:05:26,213294,7384.000,2942.000,-628.000,539.000,66.000,-1892.000,0.000,0.000,0
2026-01-30 23:05:26,213334,7913.000,3276.000,-372.000,48.000,-241.000,-3251.000,0.000,0.000,0
2026-01-30 23:05:26,213374,8314.000,3200.000,-71.000,-2489.000,-512.000,-3371.000,0.000,0.000,0
2026-01-30 23:05:26,213414,8913.000,2736.000,-17.000,-4890.000,-519.000,-3235.000,0.000,0.000,0
2026-01-30 23:05:26,213454,8629.000,2094.000,-478.000,-6188.000,-38.000,-3219.000,0.000,0.000,0
2026-01-30 23:05:26,213494,9218.000,1635.000,-308.000,-5696.000,93.000,-3000.000,0.000,0.000,0
2026-01-30 23:05:26,213534,8710.000,1759.000,650.000,-5012.000,445.000,-2735.000,0.000,0.000,0
2026-01-30 23:05:26,213574,8367.000,1969.000,1032.000,-5127.000,261.000,-2160.000,0.000,0.000,0
2026-01-30 23:05:26,213614,9333.000,1901.000,895.000,-5614.000,220.000,-1643.000,0.000,0.000,0
2026-01-30 23:05:26,213656,8024.000,1308.000,1045.000,-6104.000,1201.000,-1653.000,0.000,0.000,0
2026-01-30 23:05:26,213695,6965.000,505.000,604.000,-5033.000,1538.000,-1836.000,0.000,0.000,0
2026-01-30 23:05:26,213734,5980.000,723.000,589.000,-1706.000,2131.000,-1629.000,0.000,0.000,0
2026-01-30 23:05:26,213774,6259.000,904.000,43.000,278.000,1635.000,-759.000,0.000,0.000,0
2026-01-30 23:05:26,213814,6971.000,1257.000,150.000,2115.000,847.000,292.000,0.000,0.000,0
2026-01-30 23:05:26,213854,7926.000,2055.000,1004.000,3194.000,-255.000,1519.000,0.000,0.000,0
2026-01-30 23:05:26,213894,6965.000,2352.000,1542.000,2287.000,-1054.000,2546.000,0.000,0.000,0
2026-01-30 23:05:26,213936,6555.000,2386.000,1748.000,290.000,-2290.000,2874.000,0.000,0.000,0
2026-01-30 23:05:26,213974,6861.000,2176.000,1374.000,-2258.000,-2901.000,3031.000,0.000,0.000,0
2026-01-30 23:05:26,214014,7088.000,2062.000,1009.000,-3952.000,-2853.000,3467.000,0.000,0.000,0
2026-01-30 23:05:26,214054,7027.000,1256.000,1684.000,-4104.000,-2521.000,3688.000,0.000,0.000,0
2026-01-30 23:05:26,214094,7159.000,1881.000,2330.000,-1231.000,-2270.000,3004.000,0.000,0.000,0
2026-01-30 23:05:27,214134,7961.000,2445.000,2155.000,-744.000,-2512.000,2432.000,0.000,0.000,0
2026-01-30 23:05:27,214174,8189.000,2906.000,2022.000,-1852.000,-2094.000,1647.000,0.000,0.000,0
2026-01-30 23:05:27,214214,8690.000,2690.000,1426.000,-3266.000,-1555.000,482.000,0.000,0.000,0
2026-01-30 23:05:27,214254,9445.000,2182.000,287.000,-4117.000,-1169.000,-859.000,0.000,0.000,0
2026-01-30 23:05:27,214294,12416.000,2754.000,-191.000,-4504.000,-678.000,-1519.000,0.000,0.000,0
2026-01-30 23:05:27,214334,8282.000,2285.000,485.000,-6283.000,1896.000,-2034.000,0.000,0.000,0
2026-01-30 23:05:27,214374,6663.000,1549.000,255.000,-6742.000,1071.000,-2964.000,0.000,0.000,0
2026-01-30 23:05:27,214414,8609.000,1263.000,-162.000,-6331.000,360.000,-3497.000,0.000,0.000,0
2026-01-30 23:05:27,214454,8829.000,1921.000,-121.000,-5442.000,855.000,-2790.000,0.000,0.000,0
2026-01-30 23:05:27,214494,8508.000,1538.000,-327.000,-4692.000,1665.000,-1213.000,0.000,0.000,0
2026-01-30 23:05:27,214534,7798.000,1106.000,-576.000,-3719.000,2202.000,-1281.000,0.000,0.000,0
2026-01-30 23:05:27,214574,7437.000,857.000,-833.000,-1624.000,2329.000,-1920.000,0.000,0.000,0
2026-01-30 23:05:27,214614,7378.000,1031.000,-906.000,232.000,2344.000,-2323.000,0.000,0.000,0
2026-01-30 23:05:27,214654,6979.000,1032.000,-828.000,1484.000,2147.000,-1889.000,0.000,0.000,0
2026-01-30 23:05:27,214694,7034.000,1355.000,-617.000,2755.000,1410.000,-786.000,0.000,0.000,0
2026-01-30 23:05:27,214734,7615.000,1873.000,-449.000,3528.000,635.000,964.000,0.000,0.000,0
2026-01-30 23:05:27,214774,8228.000,2156.000,-551.000,3375.000,7.000,3011.000,0.000,0.000,0
2026-01-30 23:05:27,214814,8166.000,2090.000,-590.000,2447.000,-406.000,4274.000,0.000,0.000,0
2026-01-30 23:05:27,214854,8879.000,1932.000,-33.000,1853.000,-1466.000,4652.000,0.000,0.000,0
2026-01-30 23:05:27,214894,10254.000,2192.000,142.000,1548.000,-2033.000,4714.000,0.000,0.000,0
2026-01-30 23:05:27,214934,9138.000,2013.000,946.000,790.000,-1656.000,4424.000,0.000,0.000,0
2026-01-30 23:05:27,214974,8017.000,1276.000,1720.000,122.000,-1698.000,3065.000,0.000,0.000,0
2026-01-30 23:05:27,215014,7412.000,1348.000,4069.000,-579.000,-1776.000,1256.000,0.000,0.000,0
2026-01-30 23:05:27,215054,7111.000,456.000,3958.000,-2041.000,-1143.000,547.000,0.000,0.000,0
2026-01-30 23:05:27,215094,7516.000,-505.000,3740.000,-2748.000,-333.000,738.000,0.000,0.000,0
2026-01-30 23:05:28,215134,8915.000,-576.000,3398.000,-1319.000,471.000,847.000,0.000,0.000,0
2026-01-30 23:05:28,215174,8534.000,-108.000,2688.000,-21.000,1861.000,577.000,0.000,0.000,0
2026-01-30 23:05:28,215214,8215.000,155.000,1755.000,51.000,2577.000,-253.000,0.000,0.000,0
2026-01-30 23:05:28,215254,7448.000,-21.000,1474.000,-755.000,3453.000,-1403.000,0.000,0.000,0
2026-01-30 23:05:28,215294,7341.000,155.000,1055.000,213.000,3326.000,-1908.000,0.000,0.000,0
2026-01-30 23:05:28,215334,7203.000,315.000,1209.000,803.000,2814.000,-2295.000,0.000,0.000,0
2026-01-30 23:05:28,215374,7086.000,553.000,1583.000,110.000,1935.000,-2452.000,0.000,0.000,0
2026-01-30 23:05:28,215414,7425.000,-256.000,1571.000,-1090.000,920.000,-2103.000,0.000,0.000,0
2026-01-30 23:05:28,215454,7027.000,-1633.000,1542.000,-1176.000,299.000,-1511.000,0.000,0.000,0
2026-01-30 23:05:28,215494,7572.000,-2575.000,1918.000,526.000,-686.000,-632.000,0.000,0.000,0
2026-01-30 23:05:28,215534,8308.000,-1199.000,2039.000,1583.000,-1075.000,877.000,0.000,0.000,0
2026-01-30 23:05:28,215574,8568.000,-1632.000,1985.000,-510.000,-1093.000,3073.000,0.000,0.000,0
2026-01-30 23:05:28,215614,8453.000,-2098.000,2093.000,-1107.000,-1144.000,4835.000,0.000,0.000,0
2026-01-30 23:05:28,215660,8575.000,-1445.000,1734.000,-636.000,-1252.000,5707.000,0.000,0.000,0
2026-01-30 23:05:28,215694,8333.000,-1443.000,1953.000,48.000,-1197.000,5718.000,0.000,0.000,0
2026-01-30 23:05:28,215734,8104.000,-380.000,1802.000,1308.000,-1168.000,4869.000,0.000,0.000,0
2026-01-30 23:05:28,215774,7647.000,-432.000,1904.000,2021.000,-826.000,3793.000,0.000,0.000,0
2026-01-30 23:05:28,215814,7327.000,-383.000,1922.000,2251.000,-702.000,2388.000,0.000,0.000,0
2026-01-30 23:05:28,215854,7036.000,37.000,1866.000,3008.000,-463.000,1313.000,0.000,0.000,0
2026-01-30 23:05:28,215894,7115.000,488.000,2597.000,2199.000,-368.000,598.000,0.000,0.000,0
2026-01-30 23:05:28,215936,7371.000,-417.000,2458.000,585.000,-281.000,-251.000,0.000,0.000,0
2026-01-30 23:05:28,215974,7363.000,-835.000,2331.000,0.000,-69.000,-1013.000,0.000,0.000,0
2026-01-30 23:05:28,216014,7751.000,-1837.000,2216.000,-57.000,273.000,-1785.000,0.000,0.000,0
2026-01-30 23:05:28,216054,7794.000,-2026.000,2181.000,472.000,490.000,-2022.000,0.000,0.000,0
2026-01-30 23:05:28,216094,7800.000,-1914.000,2223.000,841.000,571.000,-1965.000,0.000,0.000,0
2026-01-30 23:05:29,216134,7965.000,-1628.000,2022.000,753.000,534.000,-1660.000,0.000,0.000,0
2026-01-30 23:05:29,216174,8025.000,-1647.000,1985.000,37.000,500.000,-1323.000,0.000,0.000,0
2026-01-30 23:05:29,216214,7664.000,-1880.000,1906.000,-238.000,528.000,-1078.000,0.000,0.000,0
2026-01-30 23:05:29,216254,7637.000,-1532.000,1897.000,251.000,270.000,-649.000,0.000,0.000,0
2026-01-30 23:05:29,216294,7854.000,-1202.000,1964.000,424.000,80.000,-189.000,0.000,0.000,0
2026-01-30 23:05:29,216334,7863.000,-1048.000,2042.000,-6.000,-22.000,120.000,0.000,0.000,0
2026-01-30 23:05:29,216374,7705.000,-936.000,2297.000,-117.000,-277.000,371.000,0.000,0.000,0
2026-01-30 23:05:29,216414,7741.000,-714.000,2256.000,-43.000,-305.000,487.000,0.000,0.000,0
2026-01-30 23:05:29,216454,7779.000,-652.000,2365.000,-238.000,-212.000,531.000,0.000,0.000,0
2026-01-30 23:05:29,216494,7792.000,-755.000,2282.000,-204.000,-121.000,342.000,0.000,0.000,0
2026-01-30 23:05:29,216534,7800.000,-724.000,2364.000,11.000,-25.000,104.000,0.000,0.000,0
2026-01-30 23:05:29,216574,7757.000,-793.000,2328.000,-96.000,65.000,-74.000,0.000,0.000,0
2026-01-30 23:05:29,216614,7641.000,-912.000,2256.000,-118.000,151.000,-218.000,0.000,0.000,0
2026-01-30 23:05:29,216654,7527.000,-840.000,2188.000,-116.000,155.000,-296.000,0.000,0.000,0
2026-01-30 23:05:29,216694,7482.000,-908.000,2127.000,-347.000,76.000,-330.000,0.000,0.000,0
2026-01-30 23:05:29,216734,7292.000,-777.000,2013.000,-370.000,0.000,-349.000,0.000,0.000,0
2026-01-30 23:05:29,216774,7491.000,-342.000,2025.000,-916.000,-290.000,-501.000,0.000,0.000,0
2026-01-30 23:05:29,216814,7577.000,-250.000,2339.000,-1508.000,-488.000,-727.000,0.000,0.000,0
2026-01-30 23:05:29,216854,7621.000,-293.000,2260.000,-1879.000,-563.000,-1061.000,0.000,0.000,0
2026-01-30 23:05:29,216894,7811.000,-404.000,2306.000,-1839.000,-415.000,-1389.000,0.000,0.000,0
2026-01-30 23:05:29,216934,7962.000,-290.000,2576.000,-2088.000,-156.000,-1608.000,0.000,0.000,0
2026-01-30 23:05:29,216974,8123.000,-518.000,2415.000,-2693.000,1.000,-1973.000,0.000,0.000,0
2026-01-30 23:05:29,217014,8152.000,-463.000,2033.000,-2798.000,319.000,-2481.000,0.000,0.000,0
2026-01-30 23:05:29,217054,7889.000,-37.000,1981.000,-3014.000,717.000,-2872.000,0.000,0.000,0
2026-01-30 23:05:29,217094,7741.000,-24.000,1717.000,-3716.000,816.000,-3175.000,0.000,0.000,0
2026-01-30 23:05:30,217134,7460.000,41.000,1170.000,-3782.000,798.000,-3452.000,0.000,0.000,0
2026-01-30 23:05:30,217174,7435.000,488.000,1235.000,-3583.000,221.000,-3526.000,0.000,0.000,0
2026-01-30 23:05:30,217214,7309.000,480.000,1463.000,-4735.000,-401.000,-3692.000,0.000,0.000,0
2026-01-30 23:05:30,217254,6971.000,304.000,896.000,-5257.000,-727.000,-3920.000,0.000,0.000,0
2026-01-30 23:05:30,217294,6458.000,383.000,877.000,-4456.000,-816.000,-3922.000,0.000,0.000,0
2026-01-30 23:05:30,217334,5228.000,537.000,1147.000,-4159.000,-986.000,-4053.000,0.000,0.000,0
2026-01-30 23:05:30,217374,5634.000,582.000,417.000,-3719.000,-2079.000,-3739.000,0.000,0.000,0
2026-01-30 23:05:30,217414,8059.000,720.000,-316.000,-2194.000,-3416.000,-2147.000,0.000,0.000,0
2026-01-30 23:05:30,217454,10804.000,1771.000,211.000,-604.000,-4012.000,377.000,0.000,0.000,0
2026-01-30 23:05:30,217494,8689.000,2355.000,791.000,-758.000,-3621.000,1931.000,0.000,0.000,0
2026-01-30 23:05:30,217534,8432.000,1693.000,-461.000,-3447.000,-5457.000,1590.000,0.000,0.000,0
2026-01-30 23:05:30,217574,11026.000,2017.000,-635.000,-5680.000,-5254.000,2213.000,0.000,0.000,0
2026-01-30 23:05:30,217614,11714.000,2207.000,-716.000,-5814.000,-3756.000,3866.000,0.000,0.000,0
2026-01-30 23:05:30,217656,9852.000,2131.000,123.000,-4393.000,-2511.000,4349.000,0.000,0.000,0
2026-01-30 23:05:30,217696,7136.000,1959.000,956.000,-3884.000,-2271.000,3087.000,0.000,0.000,0
2026-01-30 23:05:30,217734,7653.000,2027.000,981.000,-5292.000,-3117.000,1612.000,0.000,0.000,0
2026-01-30 23:05:30,217774,8454.000,2006.000,1016.000,-6512.000,-2273.000,929.000,0.000,0.000,0
2026-01-30 23:05:30,217814,8960.000,1832.000,753.000,-6556.000,-775.000,1041.000,0.000,0.000,0
2026-01-30 23:05:30,217854,9095.000,1224.000,262.000,-5560.000,1143.000,841.000,0.000,0.000,0
2026-01-30 23:05:30,217894,8439.000,902.000,-157.000,-3610.000,2928.000,-12.000,0.000,0.000,0
2026-01-30 23:05:30,217937,8025.000,1062.000,-365.000,-732.000,4005.000,-1036.000,0.000,0.000,0
2026-01-30 23:05:30,217974,7902.000,1449.000,-594.000,615.000,3996.000,-1232.000,0.000,0.000,0
2026-01-30 23:05:30,218014,7288.000,1597.000,-693.000,1031.000,3755.000,-1070.000,0.000,0.000,0
2026-01-30 23:05:30,218054,6312.000,1570.000,-620.000,882.000,3040.000,-661.000,0.000,0.000,0
2026-01-30 23:05:30,218094,6451.000,1812.000,418.000,-226.000,1583.000,-440.000,0.000,0.000,0
2026-01-30 23:05:31,218134,7848.000,1974.000,93.000,-2664.000,214.000,-56.000,0.000,0.000,0
2026-01-30 23:05:31,218174,9108.000,1445.000,-1036.000,-4810.000,-10.000,779.000,0.000,0.000,0
2026-01-30 23:05:31,218214,8049.000,347.000,-454.000,-3561.000,88.000,1615.000,0.000,0.000,0
2026-01-30 23:05:31,218254,7798.000,-381.000,2193.000,-916.000,-1225.000,992.000,0.000,0.000,0
2026-01-30 23:05:31,218294,8082.000,-263.000,875.000,946.000,-1722.000,-664.000,0.000,0.000,0
2026-01-30 23:05:31,218334,7010.000,-1037.000,639.000,1549.000,-1047.000,-1098.000,0.000,0.000,0
2026-01-30 23:05:31,218374,7187.000,-1176.000,1263.000,1953.000,-683.000,-954.000,0.000,0.000,0
2026-01-30 23:05:31,218414,7818.000,-24.000,1951.000,2662.000,-609.000,-114.000,0.000,0.000,0
2026-01-30 23:05:31,218454,8139.000,84.000,2250.000,1685.000,-714.000,1007.000,0.000,0.000,0
2026-01-30 23:05:31,218494,8319.000,692.000,2273.000,739.000,-1113.000,1639.000,0.000,0.000,0
2026-01-30 23:05:31,218534,7713.000,673.000,2671.000,-423.000,-1258.000,1713.000,0.000,0.000,0
2026-01-30 23:05:31,218574,7222.000,904.000,2312.000,-721.000,-1237.000,1552.000,0.000,0.000,0
2026-01-30 23:05:31,218614,7067.000,1277.000,2014.000,-982.000,-928.000,1642.000,0.000,0.000,0
2026-01-30 23:05:31,218654,6778.000,1483.000,1296.000,-1344.000,-445.000,1683.000,0.000,0.000,0
2026-01-30 23:05:31,218694,7058.000,1654.000,926.000,-1299.000,-268.000,1457.000,0.000,0.000,0
2026-01-30 23:05:31,218734,6649.000,1767.000,797.000,-735.000,-241.000,979.000,0.000,0.000,0
2026-01-30 23:05:31,218774,7241.000,1950.000,533.000,-534.000,-754.000,394.000,0.000,0.000,0
2026-01-30 23:05:31,218814,7935.000,1993.000,-44.000,-309.000,-899.000,-346.000,0.000,0.000,0
2026-01-30 23:05:31,218854,9823.000,2183.000,-423.000,483.000,-1309.000,-914.000,0.000,0.000,0
2026-01-30 23:05:31,218894,11746.000,2845.000,-181.000,394.000,-1159.000,-1347.000,0.000,0.000,0
2026-01-30 23:05:31,218934,10401.000,2969.000,204.000,-1244.000,-195.000,-2267.000,0.000,0.000,0
2026-01-30 23:05:31,218974,9148.000,1970.000,83.000,-3546.000,-93.000,-4564.000,0.000,0.000,0
2026-01-30 23:05:31,219014,10303.000,1340.000,-617.000,-5496.000,248.000,-7328.000,0.000,0.000,0
2026-01-30 23:05:31,219054,11461.000,612.000,-725.000,-6504.000,2467.000,-9484.000,0.000,0.000,0
2026-01-30 23:05:31,219094,9254.000,316.000,-298.000,-5647.000,3841.000,-9183.000,0.000,0.000,0
2026-01-30 23:05:32,219134,8302.000,222.000,55.000,-4075.000,3582.000,-7760.000,0.000,0.000,0
2026-01-30 23:05:32,219174,6960.000,286.000,55.000,-1689.000,3117.000,-6174.000,0.000,0.000,0
2026-01-30 23:05:32,219214,6489.000,510.000,-116.000,-37.000,2239.000,-4071.000,0.000,0.000,0
2026-01-30 23:05:32,219254,5977.000,600.000,-364.000,833.000,1840.000,-1631.000,0.000,0.000,0
2026-01-30 23:05:32,219294,5587.000,899.000,-282.000,1573.000,1340.000,1179.000,0.000,0.000,0
2026-01-30 23:05:32,219334,5667.000,1221.000,-106.000,1996.000,609.000,4030.000,0.000,0.000,0
2026-01-30 23:05:32,219374,6503.000,1284.000,-179.000,2453.000,-372.000,6723.000,0.000,0.000,0
2026-01-30 23:05:32,219414,8572.000,1582.000,-600.000,3276.000,-1049.000,9329.000,0.000,0.000,0
2026-01-30 23:05:32,219454,10503.000,1939.000,-1240.000,5015.000,-783.000,11840.000,0.000,0.000,0
2026-01-30 23:05:32,219494,11495.000,2745.000,-1010.000,5415.000,-409.000,11931.000,0.000,0.000,0
2026-01-30 23:05:32,219534,11452.000,2658.000,-986.000,4776.000,-114.000,10614.000,0.000,0.000,0
2026-01-30 23:05:32,219574,11408.000,2577.000,-1841.000,4694.000,-124.000,7878.000,0.000,0.000,0
2026-01-30 23:05:32,219614,7175.000,2603.000,-434.000,5272.000,-451.000,4161.000,0.000,0.000,0
2026-01-30 23:05:32,219654,5830.000,2675.000,1784.000,2374.000,-2985.000,1304.000,0.000,0.000,0
2026-01-30 23:05:32,219694,6490.000,3264.000,1824.000,-2078.000,-4561.000,-713.000,0.000,0.000,0
2026-01-30 23:05:32,219734,7516.000,2472.000,-218.000,-5152.000,-4450.000,-2151.000,0.000,0.000,0
2026-01-30 23:05:32,219774,8412.000,1273.000,384.000,-5682.000,-3436.000,-3277.000,0.000,0.000,0
2026-01-30 23:05:32,219814,6405.000,-2676.000,1957.000,-5021.000,-1606.000,-3906.000,0.000,0.000,0
2026-01-30 23:05:32,219854,7670.000,-36.000,2738.000,1515.000,-2441.000,-3174.000,0.000,0.000,0
2026-01-30 23:05:32,219894,8997.000,896.000,3292.000,744.000,-2291.000,-1726.000,0.000,0.000,0
2026-01-30 23:05:32,219936,9700.000,-125.000,1966.000,-5189.000,-1058.000,-314.000,0.000,0.000,0
2026-01-30 23:05:32,219974,7855.000,-1599.000,213.000,-9572.000,1296.000,23.000,0.000,0.000,0
2026-01-30 23:05:32,220014,7263.000,-1042.000,145.000,-6026.000,1773.000,-262.000,0.000,0.000,0
2026-01-30 23:05:32,220054,7048.000,-987.000,210.000,-478.000,2519.000,-758.000,0.000,0.000,0
2026-01-30 23:05:32,220094,7411.000,413.000,-6.000,4189.000,2425.000,-1155.000,0.000,0.000,0
2026-01-30 23:05:33,220134,8880.000,1541.000,-795.000,6458.000,1715.000,-805.000,0.000,0.000,0
2026-01-30 23:05:33,220174,10924.000,2612.000,-419.000,7419.000,1466.000,53.000,0.000,0.000,0
2026-01-30 23:05:33,220214,7425.000,3934.000,729.000,2269.000,1802.000,599.000,0.000,0.000,0
2026-01-30 23:05:33,220254,9103.000,2747.000,-683.000,-3369.000,830.000,-465.000,0.000,0.000,0
2026-01-30 23:05:33,220294,11621.000,1400.000,-1421.000,-5548.000,1956.000,-2290.000,0.000,0.000,0
2026-01-30 23:05:33,220334,11267.000,378.000,-1468.000,-4244.000,4025.000,-4875.000,0.000,0.000,0
2026-01-30 23:05:33,220374,10463.000,-29.000,-911.000,-1157.000,5072.000,-7678.000,0.000,0.000,0
2026-01-30 23:05:33,220414,9367.000,414.000,-786.000,1432.000,5198.000,-9545.000,0.000,0.000,0
2026-01-30 23:05:33,220454,7980.000,869.000,-695.000,2192.000,4827.000,-9823.000,0.000,0.000,0
2026-01-30 23:05:33,220494,6594.000,905.000,-388.000,2420.000,4271.000,-8627.000,0.000,0.000,0
2026-01-30 23:05:33,220534,5634.000,-2245.000,-1409.000,3689.000,3909.000,-6206.000,0.000,0.000,0
2026-01-30 23:05:33,220574,6843.000,441.000,-1324.000,8644.000,3076.000,-3070.000,0.000,0.000,0
2026-01-30 23:05:33,220614,8126.000,2026.000,-1766.000,12147.000,3806.000,3592.000,0.000,0.000,0
2026-01-30 23:05:33,220654,8787.000,2036.000,-1632.000,8320.000,5174.000,7437.000,0.000,0.000,0
2026-01-30 23:05:33,220694,9460.000,2301.000,-974.000,4308.000,4894.000,9611.000,0.000,0.000,0
2026-01-30 23:05:33,220734,9370.000,2505.000,-301.000,1598.000,3538.000,10881.000,0.000,0.000,0
2026-01-30 23:05:33,220774,10723.000,2340.000,-726.000,408.000,1594.000,11433.000,0.000,0.000,0
2026-01-30 23:05:33,220814,11471.000,2320.000,-1798.000,907.000,694.000,10874.000,0.000,0.000,0
2026-01-30 23:05:33,220854,9805.000,1794.000,-811.000,2439.000,368.000,9155.000,0.000,0.000,0
2026-01-30 23:05:33,220894,8009.000,1700.000,857.000,4789.000,-777.000,6658.000,0.000,0.000,0
2026-01-30 23:05:33,220934,7959.000,1508.000,1010.000,5896.000,-1799.000,4599.000,0.000,0.000,0
2026-01-30 23:05:33,220974,6929.000,2256.000,1028.000,6199.000,-1542.000,3265.000,0.000,0.000,0
2026-01-30 23:05:33,221014,6459.000,2401.000,1476.000,5721.000,-1466.000,3107.000,0.000,0.000,0
2026-01-30 23:05:33,221054,7241.000,2866.000,2531.000,5385.000,-1691.000,2974.000,0.000,0.000,0
2026-01-30 23:05:33,221094,7154.000,2927.000,3206.000,3373.000,-1465.000,2275.000,0.000,0.000,0
2026-01-30 23:05:34,221134,7097.000,2407.000,3928.000,774.000,-1747.000,913.000,0.000,0.000,0
2026-01-30 23:05:34,221174,7598.000,1217.000,3362.000,99.000,-1389.000,-805.000,0.000,0.000,0
2026-01-30 23:05:34,221214,7453.000,1060.000,2775.000,768.000,-402.000,-2380.000,0.000,0.000,0
2026-01-30 23:05:34,221254,7900.000,1190.000,2350.000,931.000,151.000,-3934.000,0.000,0.000,0
2026-01-30 23:05:34,221294,8266.000,1533.000,2107.000,-150.000,1385.000,-5026.000,0.000,0.000,0
2026-01-30 23:05:34,221334,8816.000,851.000,1842.000,-2213.000,1898.000,-5825.000,0.000,0.000,0
2026-01-30 23:05:34,221374,8621.000,1235.000,1971.000,-3872.000,2779.000,-7122.000,0.000,0.000,0
2026-01-30 23:05:34,221414,8385.000,1063.000,1625.000,-5680.000,1804.000,-7395.000,0.000,0.000,0
2026-01-30 23:05:34,221454,7671.000,1489.000,352.000,-7809.000,-33.000,-6945.000,0.000,0.000,0
2026-01-30 23:05:34,221494,7593.000,2183.000,-286.000,-8826.000,-1493.000,-5595.000,0.000,0.000,0
2026-01-30 23:05:34,221534,7032.000,918.000,-429.000,-10306.000,-1958.000,-4205.000,0.000,0.000,0
2026-01-30 23:05:34,221574,7348.000,64.000,-1245.000,-9428.000,-2450.000,-2976.000,0.000,0.000,0
2026-01-30 23:05:34,221614,8258.000,-26.000,-1048.000,-5701.000,-2922.000,-1262.000,0.000,0.000,0
2026-01-30 23:05:34,221656,10213.000,194.000,-498.000,-1635.000,-3330.000,657.000,0.000,0.000,0
2026-01-30 23:05:34,221695,10723.000,1424.000,-111.000,2982.000,-2852.000,2928.000,0.000,0.000,0
2026-01-30 23:05:34,221736,7529.000,2349.000,130.000,5352.000,-2030.000,4001.000,0.000,0.000,0
2026-01-30 23:05:34,221774,6534.000,2007.000,1010.000,2463.000,-2968.000,3365.000,0.000,0.000,0
2026-01-30 23:05:34,221814,6907.000,2180.000,1247.000,-465.000,-3810.000,2688.000,0.000,0.000,0
2026-01-30 23:05:34,221854,7552.000,2564.000,853.000,-3320.000,-3619.000,3172.000,0.000,0.000,0
2026-01-30 23:05:34,221894,8468.000,2146.000,136.000,-4103.000,-2768.000,4273.000,0.000,0.000,0
2026-01-30 23:05:34,221934,8958.000,1944.000,133.000,-2720.000,-1518.000,5068.000,0.000,0.000,0
2026-01-30 23:05:34,221974,9248.000,2485.000,339.000,-753.000,-437.000,4517.000,0.000,0.000,0
2026-01-30 23:05:34,222014,8585.000,2677.000,574.000,-522.000,534.000,2703.000,0.000,0.000,0
2026-01-30 23:05:34,222054,8398.000,1806.000,252.000,-1431.000,883.000,-40.000,0.000,0.000,0
2026-01-30 23:05:34,222094,8371.000,1218.000,98.000,-942.000,1399.000,-2562.000,0.000,0.000,0
2026-01-30 23:05:35,222134,8227.000,1711.000,-26.000,1389.000,2461.000,-4240.000,0.000,0.000,0
2026-01-30 23:05:35,222174,8261.000,2119.000,-43.000,1824.000,2800.000,-4312.000,0.000,0.000,0
2026-01-30 23:05:35,222214,8248.000,2148.000,-59.000,678.000,2782.000,-4043.000,0.000,0.000,0
2026-01-30 23:05:35,222254,8623.000,1990.000,-223.000,-984.000,2395.000,-3720.000,0.000,0.000,0
2026-01-30 23:05:35,222294,8483.000,1899.000,-177.000,-2680.000,1952.000,-3421.000,0.000,0.000,0
2026-01-30 23:05:35,222334,8452.000,1684.000,74.000,-4937.000,1178.000,-3052.000,0.000,0.000,0
2026-01-30 23:05:35,222374,7937.000,1643.000,550.000,-6812.000,558.000,-2735.000,0.000,0.000,0
2026-01-30 23:05:35,222414,7875.000,1277.000,764.000,-9264.000,92.000,-2251.000,0.000,0.000,0
2026-01-30 23:05:35,222454,7667.000,159.000,377.000,-10493.000,365.000,-1468.000,0.000,0.000,0
2026-01-30 23:05:35,222494,9232.000,-756.000,-70.000,-4218.000,19.000,338.000,0.000,0.000,0
2026-01-30 23:05:35,222534,8220.000,39.000,1344.000,279.000,-171.000,1588.000,0.000,0.000,0
2026-01-30 23:05:35,222574,6993.000,664.000,3154.000,2005.000,-1765.000,2871.000,0.000,0.000,0
2026-01-30 23:05:35,222614,6408.000,527.000,3049.000,476.000,-2960.000,3579.000,0.000,0.000,0
2026-01-30 23:05:35,222654,6196.000,472.000,1802.000,-167.000,-3039.000,4466.000,0.000,0.000,0
2026-01-30 23:05:35,222694,7070.000,361.000,1236.000,851.000,-2645.000,5269.000,0.000,0.000,0
2026-01-30 23:05:35,222734,8013.000,739.000,1727.000,3544.000,-1583.000,5136.000,0.000,0.000,0
2026-01-30 23:05:35,222774,8768.000,1601.000,2030.000,4319.000,-950.000,4118.000,0.000,0.000,0
2026-01-30 23:05:35,222814,8639.000,1681.000,2406.000,2963.000,-382.000,2511.000,0.000,0.000,0
2026-01-30 23:05:35,222854,8309.000,1102.000,2057.000,996.000,-224.000,678.000,0.000,0.000,0
2026-01-30 23:05:35,222894,7529.000,561.000,1246.000,1257.000,848.000,-1258.000,0.000,0.000,0
2026-01-30 23:05:35,222934,7336.000,499.000,1331.000,2044.000,1565.000,-2107.000,0.000,0.000,0
2026-01-30 23:05:35,222974,7604.000,496.000,1418.000,2426.000,1916.000,-2864.000,0.000,0.000,0
2026-01-30 23:05:35,223014,7858.000,389.000,1486.000,2061.000,2051.000,-3501.000,0.000,0.000,0
2026-01-30 23:05:35,223054,8072.000,-166.000,1523.000,1658.000,2035.000,-3853.000,0.000,0.000,0
2026-01-30 23:05:35,223094,7886.000,-562.000,1556.000,1754.000,1893.000,-3766.000,0.000,0.000,0
2026-01-30 23:05:36,223134,7846.000,-841.000,1660.000,1521.000,1714.000,-3281.000,0.000,0.000,0
2026-01-30 23:05:36,223174,7617.000,-671.000,1475.000,2890.000,1682.000,-2506.000,0.000,0.000,0
2026-01-30 23:05:36,223214,7573.000,-729.000,1256.000,3515.000,1762.000,-1701.000,0.000,0.000,0
2026-01-30 23:05:36,223254,7465.000,70.000,1089.000,4004.000,1490.000,-638.000,0.000,0.000,0
2026-01-30 23:05:36,223294,7594.000,211.000,801.000,3807.000,1103.000,101.000,0.000,0.000,0
2026-01-30 23:05:36,223334,7692.000,493.000,712.000,4469.000,483.000,848.000,0.000,0.000,0
2026-01-30 23:05:36,223374,7901.000,900.000,614.000,5343.000,-17.000,1679.000,0.000,0.000,0
2026-01-30 23:05:36,223414,8551.000,1170.000,248.000,6471.000,-483.000,2955.000,0.000,0.000,0
2026-01-30 23:05:36,223454,8885.000,1360.000,-101.000,7763.000,-320.000,4397.000,0.000,0.000,0
2026-01-30 23:05:36,223494,9350.000,1880.000,-583.000,9446.000,41.000,5927.000,0.000,0.000,0
2026-01-30 23:05:36,223534,10686.000,2569.000,-1192.000,10864.000,360.000,7143.000,0.000,0.000,0
2026-01-30 23:05:36,223574,10034.000,3466.000,-817.000,11501.000,1236.000,7515.000,0.000,0.000,0
2026-01-30 23:05:36,223614,8032.000,3660.000,170.000,9907.000,1081.000,6957.000,0.000,0.000,0
2026-01-30 23:05:36,223654,7083.000,3269.000,-306.000,5556.000,-332.000,4903.000,0.000,0.000,0
2026-01-30 23:05:36,223694,6966.000,3416.000,-1191.000,4459.000,-707.000,3392.000,0.000,0.000,0
2026-01-30 23:05:36,223734,7130.000,3416.000,-1202.000,3975.000,-922.000,1978.000,0.000,0.000,0
2026-01-30 23:05:36,223774,7748.000,3264.000,-1062.000,3616.000,-1158.000,500.000,0.000,0.000,0
2026-01-30 23:05:36,223814,8026.000,3099.000,-942.000,2875.000,-1558.000,-775.000,0.000,0.000,0
2026-01-30 23:05:36,223854,8303.000,2675.000,-690.000,2119.000,-2066.000,-1899.000,0.000,0.000,0
2026-01-30 23:05:36,223894,8506.000,2323.000,-331.000,1780.000,-2403.000,-2888.000,0.000,0.000,0
2026-01-30 23:05:36,223936,8686.000,2015.000,344.000,1450.000,-2696.000,-3768.000,0.000,0.000,0
2026-01-30 23:05:36,223974,8739.000,1438.000,565.000,774.000,-2621.000,-4313.000,0.000,0.000,0
2026-01-30 23:05:36,224014,8877.000,1779.000,1634.000,462.000,-2040.000,-3809.000,0.000,0.000,0
2026-01-30 23:05:36,224054,9158.000,529.000,3273.000,-2997.000,-608.000,-2337.000,0.000,0.000,0
2026-01-30 23:05:36,224094,11097.000,-2182.000,5843.000,-7113.000,-434.000,-1796.000,0.000,0.000,0
2026-01-30 23:05:37,224134,11117.000,-4095.000,3479.000,-5922.000,1251.000,240.000,0.000,0.000,0
2026-01-30 23:05:37,224174,11202.000,-417.000,1248.000,1077.000,2164.000,863.000,0.000,0.000,0
2026-01-30 23:05:37,224214,9986.000,412.000,457.000,4469.000,3765.000,1873.000,0.000,0.000,0
2026-01-30 23:05:37,224254,7617.000,1068.000,661.000,5420.000,4728.000,1947.000,0.000,0.000,0
2026-01-30 23:05:37,224294,6050.000,1554.000,956.000,4481.000,4381.000,1418.000,0.000,0.000,0
2026-01-30 23:05:37,224334,5681.000,1698.000,443.000,2691.000,3796.000,800.000,0.000,0.000,0
2026-01-30 23:05:37,224374,6501.000,1378.000,-449.000,1561.000,3509.000,132.000,0.000,0.000,0
2026-01-30 23:05:37,224414,7494.000,820.000,-1716.000,2754.000,3912.000,-1184.000,0.000,0.000,0
2026-01-30 23:05:37,224454,7239.000,1092.000,-1093.000,4617.000,3767.000,-2640.000,0.000,0.000,0
2026-01-30 23:05:37,224494,6521.000,1535.000,495.000,7224.000,2612.000,-3803.000,0.000,0.000,0
2026-01-30 23:05:37,224534,6069.000,1115.000,1563.000,7401.000,583.000,-3823.000,0.000,0.000,0
2026-01-30 23:05:37,224574,6139.000,1189.000,2287.000,5187.000,-660.000,-2798.000,0.000,0.000,0
2026-01-30 23:05:37,224614,5971.000,1646.000,1498.000,2306.000,-757.000,-689.000,0.000,0.000,0
2026-01-30 23:05:37,224654,6467.000,1784.000,3001.000,1232.000,-1715.000,2064.000,0.000,0.000,0
2026-01-30 23:05:37,224694,7125.000,929.000,4833.000,-220.000,-3327.000,4152.000,0.000,0.000,0
2026-01-30 23:05:37,224734,7847.000,1277.000,4063.000,-2044.000,-4734.000,4944.000,0.000,0.000,0
2026-01-30 23:05:37,224774,8426.000,1330.000,1840.000,-1111.000,-4487.000,5502.000,0.000,0.000,0
2026-01-30 23:05:37,224814,9150.000,1927.000,1463.000,2951.000,-2373.000,4768.000,0.000,0.000,0
2026-01-30 23:05:37,224854,9321.000,2706.000,1486.000,2886.000,-1499.000,3379.000,0.000,0.000,0
2026-01-30 23:05:37,224894,8951.000,2216.000,1535.000,29.000,-909.000,1395.000,0.000,0.000,0
2026-01-30 23:05:37,224934,9368.000,2104.000,949.000,-1474.000,-1130.000,-404.000,0.000,0.000,0
2026-01-30 23:05:37,224974,9203.000,2651.000,922.000,-2098.000,-764.000,-1144.000,0.000,0.000,0
2026-01-30 23:05:37,225014,9669.000,2269.000,824.000,-3966.000,-451.000,-1222.000,0.000,0.000,0
2026-01-30 23:05:37,225054,7985.000,1648.000,735.000,-5170.000,607.000,-1738.000,0.000,0.000,0
2026-01-30 23:05:37,225094,7533.000,1570.000,415.000,-5700.000,1067.000,-2377.000,0.000,0.000,0
2026-01-30 23:05:38,225134,8833.000,1337.000,-504.000,-6529.000,1543.000,-2946.000,0.000,0.000,0
2026-01-30 23:05:38,225174,9099.000,984.000,-634.000,-5242.000,2686.000,-2695.000,0.000,0.000,0
2026-01-30 23:05:38,225214,8257.000,1197.000,-317.000,-3341.000,2667.000,-2460.000,0.000,0.000,0
2026-01-30 23:05:38,225254,7218.000,1087.000,-400.000,-2077.000,2339.000,-2563.000,0.000,0.000,0
2026-01-30 23:05:38,225294,6590.000,1116.000,-615.000,-961.000,2090.000,-2987.000,0.000,0.000,0
2026-01-30 23:05:38,225334,6477.000,1122.000,-620.000,-751.000,1917.000,-3087.000,0.000,0.000,0
2026-01-30 23:05:38,225374,6700.000,842.000,-887.000,-397.000,1631.000,-2449.000,0.000,0.000,0
2026-01-30 23:05:38,225414,6833.000,862.000,-844.000,1343.000,1013.000,-1213.000,0.000,0.000,0
2026-01-30 23:05:38,225454,7190.000,1341.000,-134.000,3414.000,-28.000,403.000,0.000,0.000,0
2026-01-30 23:05:38,225494,7599.000,829.000,-86.000,5049.000,-756.000,1875.000,0.000,0.000,0
2026-01-30 23:05:38,225534,8185.000,1090.000,-992.000,6962.000,-603.000,2722.000,0.000,0.000,0
2026-01-30 23:05:38,225574,8907.000,2298.000,153.000,9820.000,-535.000,3597.000,0.000,0.000,0
2026-01-30 23:05:38,225614,9998.000,3132.000,1205.000,7983.000,-1044.000,4381.000,0.000,0.000,0
2026-01-30 23:05:38,225656,9382.000,3657.000,2874.000,3050.000,-1696.000,5264.000,0.000,0.000,0
2026-01-30 23:05:38,225696,10087.000,3052.000,3691.000,-3736.000,-2803.000,5815.000,0.000,0.000,0
2026-01-30 23:05:38,225734,9961.000,975.000,1877.000,-5521.000,-1969.000,5151.000,0.000,0.000,0
2026-01-30 23:05:38,225774,10470.000,959.000,785.000,155.000,-229.000,4578.000,0.000,0.000,0
2026-01-30 23:05:38,225814,7657.000,1731.000,1153.000,2776.000,2763.000,3691.000,0.000,0.000,0
2026-01-30 23:05:38,225854,4959.000,2044.000,1415.000,2637.000,3683.000,2251.000,0.000,0.000,0
2026-01-30 23:05:38,225894,5256.000,2082.000,1095.000,1828.000,2709.000,891.000,0.000,0.000,0
2026-01-30 23:05:38,225938,7325.000,2717.000,-170.000,1771.000,2419.000,-1001.000,0.000,0.000,0
2026-01-30 23:05:38,225974,8607.000,2444.000,117.000,479.000,1709.000,-2153.000,0.000,0.000,0
2026-01-30 23:05:38,226014,7494.000,1129.000,521.000,-479.000,1386.000,-3703.000,0.000,0.000,0
2026-01-30 23:05:38,226054,7300.000,2076.000,1101.000,-1030.000,-40.000,-4514.000,0.000,0.000,0
2026-01-30 23:05:38,226094,6974.000,2288.000,158.000,-2418.000,-492.000,-4557.000,0.000,0.000,0
2026-01-30 23:05:39,226134,7172.000,1827.000,-106.000,-4545.000,-938.000,-3920.000,0.000,0.000,0
2026-01-30 23:05:39,226174,7350.000,1473.000,392.000,-5719.000,-1278.000,-3157.000,0.000,0.000,0
2026-01-30 23:05:39,226214,7221.000,-838.000,-81.000,-5485.000,-1945.000,-2173.000,0.000,0.000,0
2026-01-30 23:05:39,226254,6717.000,-1563.000,2074.000,-1948.000,-3023.000,-534.000,0.000,0.000,0
2026-01-30 23:05:39,226294,8547.000,4656.000,1783.000,-488.000,-3656.000,1851.000,0.000,0.000,0
2026-01-30 23:05:39,226334,7901.000,2143.000,-77.000,-8484.000,-2132.000,3443.000,0.000,0.000,0
2026-01-30 23:05:39,226374,8617.000,33.000,-1199.000,-12316.000,-1615.000,1087.000,0.000,0.000,0
2026-01-30 23:05:39,226414,9504.000,-354.000,-819.000,-9063.000,-1087.000,-969.000,0.000,0.000,0
2026-01-30 23:05:39,226454,9369.000,355.000,77.000,-2048.000,-627.000,-2253.000,0.000,0.000,0
2026-01-30 23:05:39,226494,10205.000,1257.000,367.000,2519.000,-1741.000,-2568.000,0.000,0.000,0
2026-01-30 23:05:39,226534,9305.000,2811.000,1421.000,2472.000,-2062.000,-1099.000,0.000,0.000,0
2026-01-30 23:05:39,226574,6349.000,4470.000,1133.000,-2706.000,-1712.000,950.000,0.000,0.000,0
2026-01-30 23:05:39,226614,6849.000,3531.000,236.000,-10264.000,-2015.000,2022.000,0.000,0.000,0
2026-01-30 23:05:39,226654,9312.000,2018.000,-1397.000,-14540.000,-1090.000,1760.000,0.000,0.000,0
2026-01-30 23:05:39,226694,9603.000,894.000,-1761.000,-13602.000,1201.000,1330.000,0.000,0.000,0
2026-01-30 23:05:39,226734,8719.000,890.000,-823.000,-6644.000,3277.000,337.000,0.000,0.000,0
2026-01-30 23:05:39,226774,7615.000,1196.000,-356.000,-3566.000,3395.000,-1180.000,0.000,0.000,0
2026-01-30 23:05:39,226814,7601.000,1719.000,-731.000,-1952.000,2993.000,-2303.000,0.000,0.000,0
2026-01-30 23:05:39,226854,7763.000,2108.000,-1183.000,-1711.000,2925.000,-2564.000,0.000,0.000,0
2026-01-30 23:05:39,226894,7273.000,1651.000,-1234.000,-2365.000,2821.000,-2303.000,0.000,0.000,0
2026-01-30 23:05:39,226934,7092.000,1679.000,-1321.000,-1919.000,2263.000,-1877.000,0.000,0.000,0
2026-01-30 23:05:39,226974,7721.000,2439.000,-1832.000,-1631.000,1154.000,-1189.000,0.000,0.000,0
2026-01-30 23:05:39,227014,7533.000,2356.000,-1721.000,-976.000,902.000,-362.000,0.000,0.000,0
2026-01-30 23:05:39,227054,8708.000,1980.000,-1849.000,-1549.000,58.000,-365.000,0.000,0.000,0
2026-01-30 23:05:39,227094,9068.000,1474.000,-1040.000,-793.000,-597.000,-855.000,0.000,0.000,0
2026-01-30 23:05:40,227134,9130.000,1294.000,137.000,252.000,-1786.000,-1833.000,0.000,0.000,0
2026-01-30 23:05:40,227174,8487.000,987.000,2317.000,30.000,-2756.000,-3205.000,0.000,0.000,0
2026-01-30 23:05:40,227214,6767.000,360.000,3820.000,-2883.000,-2808.000,-3605.000,0.000,0.000,0
2026-01-30 23:05:40,227254,5589.000,410.000,2980.000,-5419.000,-2575.000,-1437.000,0.000,0.000,0
2026-01-30 23:05:40,227294,6893.000,-1312.000,3394.000,-6318.000,-1541.000,2130.000,0.000,0.000,0
2026-01-30 23:05:40,227334,9192.000,-2265.000,3045.000,-3988.000,-1564.000,3992.000,0.000,0.000,0
2026-01-30 23:05:40,227374,9092.000,-1499.000,3287.000,2037.000,-1058.000,2840.000,0.000,0.000,0
2026-01-30 23:05:40,227414,7896.000,298.000,2508.000,5717.000,-551.000,1821.000,0.000,0.000,0
2026-01-30 23:05:40,227454,6886.000,1476.000,1353.000,5724.000,-126.000,1722.000,0.000,0.000,0
2026-01-30 23:05:40,227494,6891.000,2164.000,911.000,3407.000,171.000,2416.000,0.000,0.000,0
2026-01-30 23:05:40,227534,6971.000,2411.000,811.000,1687.000,161.000,3246.000,0.000,0.000,0
2026-01-30 23:05:40,227574,7156.000,2416.000,949.000,194.000,-388.000,3672.000,0.000,0.000,0
2026-01-30 23:05:40,227614,7012.000,2766.000,1298.000,-714.000,-1055.000,3458.000,0.000,0.000,0
2026-01-30 23:05:40,227654,7548.000,2522.000,1109.000,-2719.000,-1836.000,2539.000,0.000,0.000,0
2026-01-30 23:05:40,227694,7675.000,1821.000,600.000,-4009.000,-1888.000,1126.000,0.000,0.000,0
2026-01-30 23:05:40,227734,8182.000,1741.000,639.000,-3755.000,-1895.000,-52.000,0.000,0.000,0
2026-01-30 23:05:40,227774,8692.000,1770.000,629.000,-3013.000,-1701.000,-764.000,0.000,0.000,0
2026-01-30 23:05:40,227814,9800.000,1868.000,755.000,-2123.000,-1675.000,-1106.000,0.000,0.000,0
2026-01-30 23:05:40,227854,9627.000,2327.000,1009.000,-1823.000,-1448.000,-1228.000,0.000,0.000,0
2026-01-30 23:05:40,227894,8521.000,3211.000,1396.000,-4753.000,-856.000,-1177.000,0.000,0.000,0
2026-01-30 23:05:40,227936,7968.000,2427.000,371.000,-7978.000,-337.000,-1707.000,0.000,0.000,0
2026-01-30 23:05:40,227974,10215.000,1850.000,-786.000,-9368.000,484.000,-2274.000,0.000,0.000,0
2026-01-30 23:05:40,228014,10551.000,1967.000,-881.000,-9738.000,2151.000,-2590.000,0.000,0.000,0
2026-01-30 23:05:40,228054,9304.000,1230.000,-514.000,-10667.000,3108.000,-3170.000,0.000,0.000,0
2026-01-30 23:05:40,228094,8653.000,473.000,-494.000,-8584.000,3301.000,-4259.000,0.000,0.000,0
2026-01-30 23:05:41,228134,7602.000,328.000,-840.000,-5366.000,3595.000,-5005.000,0.000,0.000,0
2026-01-30 23:05:41,228174,7162.000,392.000,-965.000,-3205.000,3610.000,-4998.000,0.000,0.000,0
2026-01-30 23:05:41,228214,7175.000,910.000,-1167.000,-1620.000,3681.000,-3987.000,0.000,0.000,0
2026-01-30 23:05:41,228254,7167.000,1470.000,-726.000,49.000,3165.000,-1573.000,0.000,0.000,0
2026-01-30 23:05:41,228294,7353.000,588.000,-209.000,484.000,1877.000,-664.000,0.000,0.000,0
2026-01-30 23:05:41,228334,8863.000,632.000,257.000,1333.000,369.000,-489.000,0.000,0.000,0
2026-01-30 23:05:41,228374,8919.000,104.000,-196.000,-250.000,-369.000,-24.000,0.000,0.000,0
2026-01-30 23:05:41,228414,9153.000,343.000,-469.000,-1222.000,-668.000,1642.000,0.000,0.000,0
2026-01-30 23:05:41,228454,9572.000,407.000,-259.000,-1028.000,-1247.000,3909.000,0.000,0.000,0
2026-01-30 23:05:41,228494,9427.000,1143.000,535.000,-225.000,-1995.000,5631.000,0.000,0.000,0
2026-01-30 23:05:41,228534,7179.000,1197.000,1408.000,-201.000,-3126.000,5865.000,0.000,0.000,0
2026-01-30 23:05:41,228574,6631.000,1168.000,1953.000,1.000,-4891.000,4883.000,0.000,0.000,0
2026-01-30 23:05:41,228614,8105.000,959.000,1887.000,-2161.000,-5903.000,3737.000,0.000,0.000,0
2026-01-30 23:05:41,228654,7432.000,618.000,1311.000,-983.000,-4643.000,3262.000,0.000,0.000,0
2026-01-30 23:05:41,228694,6777.000,483.000,1813.000,648.000,-3773.000,2975.000,0.000,0.000,0
2026-01-30 23:05:41,228734,7043.000,567.000,2826.000,2179.000,-3504.000,2503.000,0.000,0.000,0
2026-01-30 23:05:41,228774,7524.000,1684.000,3123.000,2332.000,-3468.000,2408.000,0.000,0.000,0
2026-01-30 23:05:41,228814,8602.000,1840.000,3166.000,659.000,-3078.000,2522.000,0.000,0.000,0
2026-01-30 23:05:41,228854,9078.000,1796.000,3159.000,-1261.000,-2072.000,2049.000,0.000,0.000,0
2026-01-30 23:05:41,228894,8362.000,1203.000,2553.000,-3119.000,-450.000,760.000,0.000,0.000,0
2026-01-30 23:05:41,228934,7545.000,311.000,1737.000,-3721.000,730.000,-529.000,0.000,0.000,0
2026-01-30 23:05:41,228974,8156.000,248.000,794.000,-1769.000,1434.000,-1512.000,0.000,0.000,0
2026-01-30 23:05:41,229014,8826.000,1309.000,534.000,1130.000,2726.000,-2467.000,0.000,0.000,0
2026-01-30 23:05:41,229054,11001.000,1951.000,279.000,1729.000,2208.000,-2785.000,0.000,0.000,0
2026-01-30 23:05:41,229094,11718.000,2618.000,699.000,643.000,2180.000,-2854.000,0.000,0.000,0
2026-01-30 23:05:42,229134,9666.000,3110.000,1383.000,-2710.000,2145.000,-2761.000,0.000,0.000,0
2026-01-30 23:05:42,229174,9058.000,1970.000,-338.000,-6367.000,1912.000,-3556.000,0.000,0.000,0
2026-01-30 23:05:42,229214,10422.000,1192.000,-1674.000,-7033.000,2769.000,-4354.000,0.000,0.000,0
2026-01-30 23:05:42,229254,10900.000,851.000,-1226.000,-6687.000,4434.000,-4962.000,0.000,0.000,0
2026-01-30 23:05:42,229294,9824.000,487.000,-695.000,-5187.000,5617.000,-5626.000,0.000,0.000,0
2026-01-30 23:05:42,229334,8961.000,232.000,-289.000,-3117.000,5679.000,-7003.000,0.000,0.000,0
2026-01-30 23:05:42,229374,8356.000,358.000,-379.000,-306.000,5032.000,-8581.000,0.000,0.000,0
2026-01-30 23:05:42,229414,7567.000,418.000,-273.000,336.000,4963.000,-8204.000,0.000,0.000,0
2026-01-30 23:05:42,229454,6530.000,68.000,-135.000,920.000,4741.000,-6706.000,0.000,0.000,0
2026-01-30 23:05:42,229494,5216.000,122.000,159.000,1573.000,4136.000,-4429.000,0.000,0.000,0
2026-01-30 23:05:42,229534,4956.000,386.000,534.000,2698.000,2823.000,-1373.000,0.000,0.000,0
2026-01-30 23:05:42,229574,5726.000,753.000,642.000,3003.000,1286.000,2604.000,0.000,0.000,0
2026-01-30 23:05:42,229614,6727.000,1079.000,487.000,3691.000,65.000,7148.000,0.000,0.000,0
2026-01-30 23:05:42,229656,9047.000,4012.000,1237.000,4588.000,-1415.000,11323.000,0.000,0.000,0
2026-01-30 23:05:42,229695,11599.000,6922.000,2064.000,147.000,-2564.000,14442.000,0.000,0.000,0
2026-01-30 23:05:42,229734,9356.000,3636.000,2760.000,-6922.000,-3473.000,13954.000,0.000,0.000,0
2026-01-30 23:05:42,229774,8157.000,-918.000,1930.000,-7287.000,-6772.000,7721.000,0.000,0.000,0
2026-01-30 23:05:42,229814,9067.000,-1467.000,1251.000,1859.000,-7005.000,3701.000,0.000,0.000,0
2026-01-30 23:05:42,229854,8838.000,113.000,874.000,10236.000,-5235.000,1267.000,0.000,0.000,0
2026-01-30 23:05:42,229894,7694.000,1931.000,1517.000,14713.000,-3783.000,462.000,0.000,0.000,0
2026-01-30 23:05:42,229936,6736.000,3432.000,1992.000,13520.000,-2468.000,518.000,0.000,0.000,0
2026-01-30 23:05:42,229974,6294.000,3305.000,2397.000,8097.000,-2311.000,1385.000,0.000,0.000,0
2026-01-30 23:05:42,230014,6494.000,3028.000,2872.000,3472.000,-2146.000,2362.000,0.000,0.000,0
2026-01-30 23:05:42,230054,7470.000,2130.000,3187.000,692.000,-2350.000,3129.000,0.000,0.000,0
2026-01-30 23:05:42,230094,8001.000,1721.000,3228.000,-434.000,-2187.000,2760.000,0.000,0.000,0
2026-01-30 23:05:43,230134,8292.000,1434.000,3635.000,-1459.000,-1600.000,1209.000,0.000,0.000,0
2026-01-30 23:05:43,230174,8036.000,1141.000,2371.000,-2682.000,-403.000,77.000,0.000,0.000,0
2026-01-30 23:05:43,230214,8180.000,1069.000,988.000,-2162.000,987.000,-713.000,0.000,0.000,0
2026-01-30 23:05:43,230254,9105.000,1262.000,-149.000,-1093.000,2001.000,-1659.000,0.000,0.000,0
2026-01-30 23:05:43,230294,12396.000,1712.000,496.000,75.000,2266.000,-2618.000,0.000,0.000,0
2026-01-30 23:05:43,230334,9920.000,2406.000,2113.000,-935.000,3910.000,-3728.000,0.000,0.000,0
2026-01-30 23:05:43,230374,11313.000,2554.000,38.000,-1891.000,2707.000,-4591.000,0.000,0.000,0
2026-01-30 23:05:43,230414,13060.000,1970.000,-666.000,-4711.000,3043.000,-5669.000,0.000,0.000,0
2026-01-30 23:05:43,230454,13105.000,1306.000,-704.000,-6716.000,4496.000,-7209.000,0.000,0.000,0
2026-01-30 23:05:43,230494,12738.000,473.000,-1153.000,-6911.000,6097.000,-9154.000,0.000,0.000,0
2026-01-30 23:05:43,230534,11876.000,-662.000,-1186.000,-5489.000,8206.000,-12142.000,0.000,0.000,0
2026-01-30 23:05:43,230574,9777.000,-817.000,-699.000,-3696.000,9017.000,-12534.000,0.000,0.000,0
2026-01-30 23:05:43,230614,7486.000,-837.000,-638.000,-1045.000,8745.000,-11508.000,0.000,0.000,0
2026-01-30 23:05:43,230654,4888.000,-467.000,-344.000,1588.000,7592.000,-8613.000,0.000,0.000,0
2026-01-30 23:05:43,230694,3820.000,117.000,483.000,2775.000,5476.000,-4902.000,0.000,0.000,0
2026-01-30 23:05:43,230734,3818.000,233.000,684.000,2095.000,3463.000,-133.000,0.000,0.000,0
2026-01-30 23:05:43,230774,4563.000,361.000,585.000,1582.000,1879.000,4905.000,0.000,0.000,0
2026-01-30 23:05:43,230814,6892.000,666.000,1107.000,1799.000,750.000,9849.000,0.000,0.000,0
2026-01-30 23:05:43,230854,10184.000,2354.000,685.000,2749.000,-15.000,14420.000,0.000,0.000,0
2026-01-30 23:05:43,230894,12933.000,1467.000,553.000,3082.000,-407.000,18118.000,0.000,0.000,0
2026-01-30 23:05:43,230934,10969.000,-403.000,1593.000,8395.000,-2409.000,17440.000,0.000,0.000,0
2026-01-30 23:05:43,230974,9435.000,166.000,1331.000,16800.000,-4968.000,13894.000,0.000,0.000,0
2026-01-30 23:05:43,231014,11056.000,1473.000,-377.000,22176.000,-5962.000,12311.000,0.000,0.000,0
2026-01-30 23:05:43,231054,13033.000,4022.000,-1948.000,22356.000,-4056.000,12522.000,0.000,0.000,0
2026-01-30 23:05:43,231094,12639.000,5959.000,-2332.000,16764.000,145.000,12475.000,0.000,0.000,0
2026-01-30 23:05:44,231134,10267.000,5120.000,-1704.000,9371.000,1816.000,11006.000,0.000,0.000,0
2026-01-30 23:05:44,231174,6585.000,3448.000,665.000,6591.000,735.000,7110.000,0.000,0.000,0
2026-01-30 23:05:44,231214,6369.000,1799.000,1407.000,5977.000,-2177.000,3436.000,0.000,0.000,0
2026-01-30 23:05:44,231254,6313.000,2569.000,924.000,7477.000,-3795.000,958.000,0.000,0.000,0
2026-01-30 23:05:44,231294,6372.000,4260.000,955.000,7964.000,-4172.000,341.000,0.000,0.000,0
2026-01-30 23:05:44,231334,7232.000,3365.000,2152.000,1094.000,-4527.000,-1013.000,0.000,0.000,0
2026-01-30 23:05:44,231374,7186.000,2299.000,3269.000,-3184.000,-4139.000,-2064.000,0.000,0.000,0
2026-01-30 23:05:44,231414,8020.000,1382.000,3578.000,-6027.000,-3938.000,-3027.000,0.000,0.000,0
2026-01-30 23:05:44,231454,9726.000,377.000,2454.000,-7422.000,-2885.000,-3561.000,0.000,0.000,0
2026-01-30 23:05:44,231494,9553.000,-545.000,1456.000,-5854.000,-232.000,-4211.000,0.000,0.000,0
2026-01-30 23:05:44,231534,9408.000,-460.000,869.000,-3519.000,1479.000,-4691.000,0.000,0.000,0
2026-01-30 23:05:44,231574,9819.000,-400.000,333.000,-1888.000,2169.000,-5289.000,0.000,0.000,0
2026-01-30 23:05:44,231614,10998.000,150.000,155.000,-772.000,2333.000,-5079.000,0.000,0.000,0
2026-01-30 23:05:44,231658,9637.000,827.000,-40.000,1660.000,2633.000,-4518.000,0.000,0.000,0
2026-01-30 23:05:44,231694,7715.000,1674.000,-152.000,5672.000,1723.000,-2759.000,0.000,0.000,0
2026-01-30 23:05:44,231734,6455.000,1774.000,3.000,3981.000,627.000,-2079.000,0.000,0.000,0
2026-01-30 23:05:44,231774,6317.000,1941.000,29.000,1129.000,-306.000,-1272.000,0.000,0.000,0
2026-01-30 23:05:44,231814,6738.000,1778.000,-348.000,-1161.000,-596.000,11.000,0.000,0.000,0
2026-01-30 23:05:44,231854,7423.000,1525.000,-713.000,-1604.000,-446.000,1320.000,0.000,0.000,0
2026-01-30 23:05:44,231894,8208.000,1351.000,-905.000,-423.000,-198.000,2011.000,0.000,0.000,0
2026-01-30 23:05:44,231936,8600.000,1602.000,-703.000,1098.000,-88.000,1918.000,0.000,0.000,0
2026-01-30 23:05:44,231974,8363.000,1752.000,-175.000,1444.000,-311.000,1336.000,0.000,0.000,0
2026-01-30 23:05:44,232014,8241.000,1894.000,225.000,1064.000,-711.000,785.000,0.000,0.000,0
2026-01-30 23:05:44,232054,7949.000,2187.000,757.000,-1004.000,-733.000,795.000,0.000,0.000,0
2026-01-30 23:05:44,232094,7871.000,1913.000,880.000,-2700.000,-446.000,913.000,0.000,0.000,0
2026-01-30 23:05:45,232134,8531.000,938.000,298.000,-3473.000,8.000,943.000,0.000,0.000,0
2026-01-30 23:05:45,232174,9427.000,677.000,58.000,-2604.000,704.000,818.000,0.000,0.000,0
2026-01-30 23:05:45,232214,8397.000,36.000,1087.000,-2044.000,1542.000,499.000,0.000,0.000,0
2026-01-30 23:05:45,232254,8013.000,-564.000,1134.000,-720.000,1190.000,29.000,0.000,0.000,0
2026-01-30 23:05:45,232294,8288.000,-179.000,1022.000,260.000,835.000,8.000,0.000,0.000,0
2026-01-30 23:05:45,232334,8237.000,552.000,1425.000,435.000,884.000,591.000,0.000,0.000,0
2026-01-30 23:05:45,232374,7684.000,329.000,1530.000,155.000,940.000,1270.000,0.000,0.000,0
2026-01-30 23:05:45,232414,7100.000,413.000,1115.000,1227.000,1044.000,1638.000,0.000,0.000,0
2026-01-30 23:05:45,232454,6878.000,868.000,924.000,3499.000,1175.000,1697.000,0.000,0.000,0
2026-01-30 23:05:45,232494,6773.000,1132.000,893.000,4586.000,1153.000,1361.000,0.000,0.000,0
2026-01-30 23:05:45,232534,7085.000,1451.000,1095.000,5126.000,726.000,1071.000,0.000,0.000,0
2026-01-30 23:05:45,232574,7314.000,1776.000,1427.000,4750.000,205.000,1017.000,0.000,0.000,0
2026-01-30 23:05:45,232614,7548.000,1719.000,1688.000,3694.000,-306.000,1088.000,0.000,0.000,0
2026-01-30 23:05:45,232654,7776.000,1340.000,1759.000,2652.000,-553.000,922.000,0.000,0.000,0
2026-01-30 23:05:45,232694,7828.000,1025.000,1825.000,2224.000,-474.000,488.000,0.000,0.000,0
2026-01-30 23:05:45,232734,7637.000,594.000,1984.000,2637.000,-225.000,4.000,0.000,0.000,0
2026-01-30 23:05:45,232774,7609.000,796.000,1983.000,3077.000,-153.000,-350.000,0.000,0.000,0
2026-01-30 23:05:45,232814,7626.000,528.000,2038.000,2376.000,-213.000,-292.000,0.000,0.000,0
2026-01-30 23:05:45,232854,7523.000,549.000,1975.000,2317.000,-320.000,-116.000,0.000,0.000,0
2026-01-30 23:05:45,232894,7512.000,743.000,2113.000,2417.000,-565.000,117.000,0.000,0.000,0
2026-01-30 23:05:45,232934,7360.000,1009.000,2114.000,2266.000,-743.000,155.000,0.000,0.000,0
2026-01-30 23:05:45,232974,7069.000,1178.000,2143.000,1900.000,-858.000,85.000,0.000,0.000,0
2026-01-30 23:05:45,233014,7488.000,1218.000,1776.000,1735.000,-998.000,-40.000,0.000,0.000,0
2026-01-30 23:05:45,233054,7315.000,1430.000,1687.000,1616.000,-794.000,-175.000,0.000,0.000,0
2026-01-30 23:05:45,233094,8481.000,1525.000,1199.000,1507.000,-1183.000,-322.000,0.000,0.000,0
2026-01-30 23:05:46,233134,9451.000,1793.000,936.000,1522.000,-815.000,-555.000,0.000,0.000,0
2026-01-30 23:05:46,233174,8660.000,2026.000,643.000,805.000,-160.000,-900.000,0.000,0.000,0
2026-01-30 23:05:46,233214,9795.000,1425.000,177.000,-1160.000,177.000,-1287.000,0.000,0.000,0
2026-01-30 23:05:46,233254,8972.000,1319.000,27.000,-778.000,1013.000,-1411.000,0.000,0.000,0
2026-01-30 23:05:46,233294,7762.000,1183.000,138.000,-76.000,1257.000,-1819.000,0.000,0.000,0
2026-01-30 23:05:46,233334,7550.000,1127.000,89.000,145.000,1086.000,-2324.000,0.000,0.000,0
2026-01-30 23:05:46,233374,7415.000,1263.000,-132.000,557.000,1286.000,-2126.000,0.000,0.000,0
2026-01-30 23:05:46,233414,7243.000,1297.000,-287.000,1181.000,1503.000,-1470.000,0.000,0.000,0
2026-01-30 23:05:46,233454,7162.000,1313.000,-556.000,1727.000,1466.000,-789.000,0.000,0.000,0
2026-01-30 23:05:46,233494,7217.000,1494.000,-608.000,2373.000,1119.000,-126.000,0.000,0.000,0
2026-01-30 23:05:46,233534,7479.000,1648.000,-519.000,2905.000,595.000,494.000,0.000,0.000,0
2026-01-30 23:05:46,233574,7646.000,1949.000,-493.000,2946.000,25.000,1304.000,0.000,0.000,0
2026-01-30 23:05:46,233614,7768.000,1922.000,-343.000,2158.000,-931.000,1629.000,0.000,0.000,0
2026-01-30 23:05:46,233654,7884.000,1876.000,-86.000,1620.000,-1419.000,1796.000,0.000,0.000,0
2026-01-30 23:05:46,233696,7988.000,1940.000,379.000,1215.000,-1654.000,1933.000,0.000,0.000,0
2026-01-30 23:05:46,233736,8151.000,1978.000,719.000,632.000,-1741.000,2127.000,0.000,0.000,0
2026-01-30 23:05:46,233774,8491.000,2028.000,1142.000,-107.000,-1753.000,2323.000,0.000,0.000,0
2026-01-30 23:05:46,233814,8655.000,1884.000,1544.000,-1004.000,-1580.000,2371.000,0.000,0.000,0
2026-01-30 23:05:46,233854,8978.000,1693.000,1652.000,-1056.000,-1154.000,2240.000,0.000,0.000,0
2026-01-30 23:05:46,233894,9009.000,1451.000,1822.000,-496.000,-429.000,1829.000,0.000,0.000,0
2026-01-30 23:05:46,233938,9344.000,1400.000,1752.000,450.000,400.000,1241.000,0.000,0.000,0
2026-01-30 23:05:46,233974,10493.000,1745.000,1012.000,1401.000,1919.000,396.000,0.000,0.000,0
2026-01-30 23:05:46,234014,9408.000,1847.000,1370.000,1435.000,3045.000,-334.000,0.000,0.000,0
2026-01-30 23:05:46,234054,6386.000,1636.000,1528.000,477.000,3653.000,-1655.000,0.000,0.000,0
2026-01-30 23:05:46,234094,5894.000,1070.000,514.000,-300.000,3441.000,-3088.000,0.000,0.000,0
2026-01-30 23:05:47,234134,6316.000,621.000,-403.000,219.000,3760.000,-4257.000,0.000,0.000,0
2026-01-30 23:05:47,234174,7232.000,517.000,-1286.000,2087.000,3861.000,-4822.000,0.000,0.000,0
2026-01-30 23:05:47,234214,7857.000,1118.000,-701.000,4103.000,3270.000,-5003.000,0.000,0.000,0
2026-01-30 23:05:47,234254,7488.000,1516.000,601.000,4348.000,1952.000,-4668.000,0.000,0.000,0
2026-01-30 23:05:47,234294,6551.000,1748.000,1675.000,3092.000,-6.000,-3461.000,0.000,0.000,0
2026-01-30 23:05:47,234334,6059.000,1739.000,1312.000,-534.000,-1334.000,-1672.000,0.000,0.000,0
2026-01-30 23:05:47,234374,6225.000,841.000,1768.000,-5635.000,-1620.000,1629.000,0.000,0.000,0
2026-01-30 23:05:47,234414,6748.000,189.000,2219.000,-4590.000,-2321.000,2872.000,0.000,0.000,0
2026-01-30 23:05:47,234454,7432.000,725.000,2226.000,-1328.000,-3115.000,3316.000,0.000,0.000,0
2026-01-30 23:05:47,234494,7476.000,1251.000,2081.000,379.000,-3176.000,3543.000,0.000,0.000,0
2026-01-30 23:05:47,234534,7822.000,1517.000,2023.000,588.000,-2994.000,3651.000,0.000,0.000,0
2026-01-30 23:05:47,234574,8933.000,1967.000,1781.000,55.000,-2887.000,3868.000,0.000,0.000,0
2026-01-30 23:05:47,234614,9053.000,2310.000,1640.000,-737.000,-2563.000,3770.000,0.000,0.000,0
2026-01-30 23:05:47,234654,9699.000,2554.000,1781.000,-1608.000,-2513.000,2832.000,0.000,0.000,0
2026-01-30 23:05:47,234694,8827.000,2279.000,1640.000,-2949.000,-1945.000,1167.000,0.000,0.000,0
2026-01-30 23:05:47,234734,9551.000,2191.000,745.000,-3227.000,-1706.000,-112.000,0.000,0.000,0
2026-01-30 23:05:47,234774,8890.000,2360.000,526.000,-3753.000,262.000,-1003.000,0.000,0.000,0
2026-01-30 23:05:47,234814,7905.000,2018.000,391.000,-4575.000,950.000,-1604.000,0.000,0.000,0
2026-01-30 23:05:47,234854,7143.000,1418.000,124.000,-4748.000,1492.000,-2704.000,0.000,0.000,0
2026-01-30 23:05:47,234894,7683.000,1291.000,-250.000,-3617.000,1798.000,-3624.000,0.000,0.000,0
2026-01-30 23:05:47,234934,8537.000,1314.000,-682.000,-2326.000,2322.000,-4044.000,0.000,0.000,0
2026-01-30 23:05:47,234974,9089.000,1470.000,-1009.000,-1481.000,2788.000,-3804.000,0.000,0.000,0
2026-01-30 23:05:47,235014,8906.000,1735.000,-1071.000,-1250.000,3044.000,-3044.000,0.000,0.000,0
2026-01-30 23:05:47,235054,7847.000,1696.000,-1008.000,-1132.000,2898.000,-2392.000,0.000,0.000,0
2026-01-30 23:05:47,235094,6829.000,1297.000,-994.000,-542.000,2077.000,-2488.000,0.000,0.000,0
2026-01-30 23:05:48,235134,6809.000,1353.000,-1056.000,301.000,582.000,-2788.000,0.000,0.000,0
2026-01-30 23:05:48,235174,7260.000,1514.000,-1190.000,455.000,8.000,-2023.000,0.000,0.000,0
2026-01-30 23:05:48,235214,7236.000,1556.000,-1271.000,611.000,-378.000,-580.000,0.000,0.000,0
2026-01-30 23:05:48,235254,7075.000,1746.000,-1101.000,898.000,-1140.000,1067.000,0.000,0.000,0
2026-01-30 23:05:48,235294,7448.000,1733.000,-781.000,912.000,-2170.000,2557.000,0.000,0.000,0
2026-01-30 23:05:48,235334,7782.000,2006.000,-661.000,838.000,-3000.000,3736.000,0.000,0.000,0
2026-01-30 23:05:48,235374,8179.000,2113.000,-307.000,-26.000,-3598.000,4622.000,0.000,0.000,0
2026-01-30 23:05:48,235414,8670.000,2116.000,-76.000,-1093.000,-3945.000,5140.000,0.000,0.000,0
2026-01-30 23:05:48,235454,9150.000,2316.000,273.000,-1955.000,-3998.000,5454.000,0.000,0.000,0
2026-01-30 23:05:48,235494,9103.000,2093.000,847.000,-3745.000,-3440.000,5216.000,0.000,0.000,0
2026-01-30 23:05:48,235534,8619.000,1575.000,1468.000,-3878.000,-2707.000,3978.000,0.000,0.000,0
2026-01-30 23:05:48,235574,8508.000,1290.000,2440.000,-2481.000,-1796.000,2381.000,0.000,0.000,0
2026-01-30 23:05:48,235614,8634.000,1500.000,2340.000,347.000,-545.000,1188.000,0.000,0.000,0
2026-01-30 23:05:48,235656,10053.000,2355.000,1879.000,1237.000,596.000,755.000,0.000,0.000,0
2026-01-30 23:05:48,235694,10032.000,2692.000,1437.000,255.000,2022.000,683.000,0.000,0.000,0
2026-01-30 23:05:48,235735,8018.000,2461.000,1442.000,-1812.000,3028.000,375.000,0.000,0.000,0
2026-01-30 23:05:48,235774,7253.000,2138.000,1057.000,-3429.000,3079.000,-231.000,0.000,0.000,0
2026-01-30 23:05:48,235814,6871.000,1638.000,333.000,-3993.000,3438.000,-909.000,0.000,0.000,0
2026-01-30 23:05:48,235854,7364.000,1630.000,-836.000,-2751.000,3882.000,-1526.000,0.000,0.000,0
2026-01-30 23:05:48,235894,8776.000,1727.000,-1241.000,-1292.000,3995.000,-2766.000,0.000,0.000,0
2026-01-30 23:05:48,235937,8967.000,1634.000,-1152.000,-726.000,3567.000,-3874.000,0.000,0.000,0
2026-01-30 23:05:48,235975,8236.000,1732.000,-326.000,-175.000,2307.000,-5000.000,0.000,0.000,0
2026-01-30 23:05:48,236014,7332.000,1787.000,109.000,-846.000,489.000,-5908.000,0.000,0.000,0
2026-01-30 23:05:48,236054,6949.000,1765.000,-156.000,-2759.000,-1092.000,-6056.000,0.000,0.000,0
2026-01-30 23:05:48,236094,6802.000,1661.000,-266.000,-5129.000,-1847.000,-5039.000,0.000,0.000,0
2026-01-30 23:05:49,236134,6655.000,1633.000,94.000,-6175.000,-2386.000,-3118.000,0.000,0.000,0
2026-01-30 23:05:49,236174,6765.000,1530.000,556.000,-6266.000,-3076.000,-893.000,0.000,0.000,0
2026-01-30 23:05:49,236214,7241.000,1431.000,867.000,-6165.000,-3774.000,807.000,0.000,0.000,0
2026-01-30 23:05:49,236254,7465.000,1615.000,1279.000,-6721.000,-3998.000,1988.000,0.000,0.000,0
2026-01-30 23:05:49,236294,7306.000,1163.000,1145.000,-7896.000,-3570.000,1944.000,0.000,0.000,0
2026-01-30 23:05:49,236334,7445.000,704.000,1037.000,-7073.000,-3057.000,1676.000,0.000,0.000,0
2026-01-30 23:05:49,236374,7840.000,648.000,1005.000,-4477.000,-2617.000,1497.000,0.000,0.000,0
2026-01-30 23:05:49,236414,7997.000,1230.000,1251.000,-1926.000,-2248.000,1495.000,0.000,0.000,0
2026-01-30 23:05:49,236454,8427.000,1892.000,1122.000,-1163.000,-2247.000,1579.000,0.000,0.000,0
2026-01-30 23:05:49,236494,8698.000,2028.000,935.000,-2153.000,-2059.000,1581.000,0.000,0.000,0
2026-01-30 23:05:49,236534,9398.000,2237.000,666.000,-2923.000,-1897.000,1555.000,0.000,0.000,0
2026-01-30 23:05:49,236574,9418.000,2280.000,353.000,-3658.000,-1095.000,1183.000,0.000,0.000,0
2026-01-30 23:05:49,236614,7898.000,1589.000,40.000,-4195.000,-158.000,158.000,0.000,0.000,0
2026-01-30 23:05:49,236654,7786.000,1257.000,-58.000,-4385.000,454.000,-2061.000,0.000,0.000,0
2026-01-30 23:05:49,236694,8508.000,1467.000,-400.000,-3509.000,848.000,-2752.000,0.000,0.000,0
2026-01-30 23:05:49,236734,9207.000,1520.000,-601.000,-2995.000,1283.000,-2767.000,0.000,0.000,0
2026-01-30 23:05:49,236774,9271.000,1644.000,-374.000,-3217.000,1566.000,-2681.000,0.000,0.000,0
2026-01-30 23:05:49,236814,8532.000,1541.000,-290.000,-3347.000,1669.000,-2831.000,0.000,0.000,0
2026-01-30 23:05:49,236854,7671.000,1083.000,-442.000,-2858.000,1495.000,-3260.000,0.000,0.000,0
2026-01-30 23:05:49,236894,7838.000,1091.000,-648.000,-2345.000,1412.000,-3561.000,0.000,0.000,0
2026-01-30 23:05:49,236934,8019.000,1092.000,-718.000,-1902.000,1679.000,-3148.000,0.000,0.000,0
2026-01-30 23:05:49,236974,7754.000,1020.000,-701.000,-1120.000,1804.000,-2198.000,0.000,0.000,0
2026-01-30 23:05:49,237014,7619.000,1282.000,-442.000,24.000,1394.000,-716.000,0.000,0.000,0
2026-01-30 23:05:49,237054,7529.000,1430.000,-360.000,835.000,542.000,216.000,0.000,0.000,0
2026-01-30 23:05:49,237094,7622.000,1361.000,-372.000,743.000,167.000,993.000,0.000,0.000,0
2026-01-30 23:05:50,237134,7560.000,1279.000,-423.000,832.000,28.000,1630.000,0.000,0.000,0
2026-01-30 23:05:50,237174,7490.000,1354.000,-218.000,1365.000,-199.000,2341.000,0.000,0.000,0
2026-01-30 23:05:50,237214,7468.000,1453.000,210.000,1660.000,-559.000,3190.000,0.000,0.000,0
2026-01-30 23:05:50,237254,8080.000,1550.000,166.000,1838.000,-763.000,4125.000,0.000,0.000,0
2026-01-30 23:05:50,237294,8995.000,1645.000,-432.000,2503.000,-381.000,4742.000,0.000,0.000,0
2026-01-30 23:05:50,237334,9671.000,1614.000,-1216.000,3781.000,185.000,4647.000,0.000,0.000,0
2026-01-30 23:05:50,237374,8583.000,1636.000,-791.000,5027.000,350.000,3542.000,0.000,0.000,0
2026-01-30 23:05:50,237414,7832.000,1813.000,2354.000,3941.000,-2085.000,1720.000,0.000,0.000,0
2026-01-30 23:05:50,237454,8279.000,1709.000,2223.000,229.000,-2494.000,1436.000,0.000,0.000,0
2026-01-30 23:05:50,237494,8616.000,1178.000,1337.000,-2027.000,-941.000,1441.000,0.000,0.000,0
2026-01-30 23:05:50,237534,8409.000,-1102.000,2204.000,679.000,670.000,1351.000,0.000,0.000,0
2026-01-30 23:05:50,237574,8094.000,377.000,3798.000,5943.000,931.000,459.000,0.000,0.000,0
2026-01-30 23:05:50,237614,7689.000,1170.000,4306.000,5770.000,262.000,723.000,0.000,0.000,0
2026-01-30 23:05:50,237656,7501.000,1463.000,3687.000,2798.000,-201.000,1120.000,0.000,0.000,0
2026-01-30 23:05:50,237698,7845.000,1125.000,2345.000,1023.000,232.000,618.000,0.000,0.000,0
2026-01-30 23:05:50,237734,7888.000,179.000,1071.000,1540.000,1426.000,-374.000,0.000,0.000,0
2026-01-30 23:05:50,237774,7789.000,381.000,723.000,2783.000,2353.000,-1685.000,0.000,0.000,0
2026-01-30 23:05:50,237814,7459.000,886.000,1131.000,4448.000,2978.000,-2868.000,0.000,0.000,0
2026-01-30 23:05:50,237854,6958.000,1206.000,1465.000,4337.000,2632.000,-3005.000,0.000,0.000,0
2026-01-30 23:05:50,237894,6699.000,1366.000,1432.000,3146.000,1860.000,-2700.000,0.000,0.000,0
2026-01-30 23:05:50,237935,6478.000,1096.000,1153.000,1709.000,1170.000,-2160.000,0.000,0.000,0
2026-01-30 23:05:50,237974,6413.000,850.000,885.000,1252.000,641.000,-1691.000,0.000,0.000,0
2026-01-30 23:05:50,238014,6542.000,909.000,814.000,1473.000,177.000,-1334.000,0.000,0.000,0
2026-01-30 23:05:50,238054,6861.000,858.000,539.000,1797.000,-382.000,-1036.000,0.000,0.000,0
2026-01-30 23:05:50,238094,7910.000,965.000,316.000,2403.000,-1127.000,-487.000,0.000,0.000,0
2026-01-30 23:05:51,238134,7727.000,1283.000,490.000,2643.000,-1479.000,267.000,0.000,0.000,0
2026-01-30 23:05:51,238174,6981.000,1302.000,462.000,2549.000,-1777.000,661.000,0.000,0.000,0
2026-01-30 23:05:51,238214,8228.000,1510.000,196.000,2062.000,-3815.000,3072.000,0.000,0.000,0
2026-01-30 23:05:51,238254,11130.000,2165.000,-35.000,2113.000,-4647.000,5508.000,0.000,0.000,0
2026-01-30 23:05:51,238294,12707.000,3029.000,264.000,1346.000,-4296.000,7879.000,0.000,0.000,0
2026-01-30 23:05:51,238334,10145.000,3695.000,1482.000,-509.000,-3452.000,8262.000,0.000,0.000,0
2026-01-30 23:05:51,238374,7646.000,2994.000,2667.000,-4169.000,-3392.000,5972.000,0.000,0.000,0
2026-01-30 23:05:51,238414,7680.000,1581.000,1897.000,-7810.000,-3172.000,2610.000,0.000,0.000,0
2026-01-30 23:05:51,238454,8177.000,598.000,858.000,-5976.000,-1498.000,498.000,0.000,0.000,0
2026-01-30 23:05:51,238494,8662.000,387.000,1070.000,-2271.000,605.000,245.000,0.000,0.000,0
2026-01-30 23:05:51,238534,8493.000,2421.000,1015.000,1369.000,2215.000,-90.000,0.000,0.000,0
2026-01-30 23:05:51,238574,8702.000,3202.000,764.000,1915.000,3079.000,-806.000,0.000,0.000,0
2026-01-30 23:05:51,238614,8659.000,3165.000,247.000,-288.000,3305.000,-1589.000,0.000,0.000,0
2026-01-30 23:05:51,238654,8301.000,2703.000,-274.000,-2702.000,3547.000,-2516.000,0.000,0.000,0
2026-01-30 23:05:51,238694,8329.000,3056.000,-447.000,-3816.000,3664.000,-3224.000,0.000,0.000,0
2026-01-30 23:05:51,238734,8244.000,2804.000,-878.000,-5299.000,3783.000,-3691.000,0.000,0.000,0
2026-01-30 23:05:51,238774,8427.000,3326.000,-900.000,-6822.000,3703.000,-4031.000,0.000,0.000,0
2026-01-30 23:05:51,238814,8656.000,3579.000,-947.000,-8045.000,3583.000,-4548.000,0.000,0.000,0
2026-01-30 23:05:51,238854,8761.000,3495.000,-1261.000,-8076.000,3571.000,-5858.000,0.000,0.000,0
2026-01-30 23:05:51,238894,9605.000,5435.000,-470.000,-5525.000,3786.000,-8236.000,0.000,0.000,0
2026-01-30 23:05:51,238934,9513.000,8552.000,-1071.000,-6096.000,5709.000,-11979.000,0.000,0.000,0
2026-01-30 23:05:51,238974,8532.000,7530.000,-131.000,-6061.000,6201.000,-13777.000,0.000,0.000,0
2026-01-30 23:05:51,239014,6977.000,6960.000,132.000,-2327.000,5348.000,-15305.000,0.000,0.000,0
2026-01-30 23:05:51,239054,5993.000,6660.000,1345.000,1036.000,2722.000,-16399.000,0.000,0.000,0
2026-01-30 23:05:51,239094,5717.000,6066.000,2432.000,1134.000,-224.000,-15648.000,0.000,0.000,0
2026-01-30 23:05:52,239134,6129.000,4414.000,3856.000,2846.000,-2628.000,-13776.000,0.000,0.000,0
2026-01-30 23:05:52,239174,5934.000,3681.000,5640.000,6727.000,-4461.000,-11160.000,0.000,0.000,0
2026-01-30 23:05:52,239214,4174.000,4176.000,6005.000,8512.000,-5147.000,-8925.000,0.000,0.000,0
2026-01-30 23:05:52,239254,884.000,3718.000,4917.000,9822.000,-4334.000,-7054.000,0.000,0.000,0
2026-01-30 23:05:52,239294,850.000,4831.000,3283.000,14041.000,-3958.000,-5146.000,0.000,0.000,0
2026-01-30 23:05:52,239334,-1607.000,7819.000,1672.000,11083.000,-2606.000,-3440.000,0.000,0.000,0
2026-01-30 23:05:52,239374,-738.000,5278.000,669.000,6015.000,-2299.000,-1098.000,0.000,0.000,0
2026-01-30 23:05:52,239414,-1516.000,7738.000,476.000,7250.000,-1408.000,879.000,0.000,0.000,0
2026-01-30 23:05:52,239454,-2125.000,10040.000,-1021.000,2287.000,-1623.000,744.000,0.000,0.000,0
2026-01-30 23:05:52,239494,-2161.000,8008.000,-69.000,-1072.000,-1521.000,840.000,0.000,0.000,0
2026-01-30 23:05:52,239534,-2645.000,6821.000,-277.000,184.000,-1363.000,319.000,0.000,0.000,0
2026-01-30 23:05:52,239574,-3358.000,7822.000,-1460.000,-436.000,-1706.000,111.000,0.000,0.000,0
2026-01-30 23:05:52,239614,-3626.000,7162.000,-1704.000,-1983.000,-2161.000,-111.000,0.000,0.000,0
2026-01-30 23:05:52,239656,-3443.000,7466.000,-2152.000,-334.000,-2471.000,-958.000,0.000,0.000,0
2026-01-30 23:05:52,239695,-3373.000,7758.000,-1790.000,1183.000,-3123.000,-2007.000,0.000,0.000,0
2026-01-30 23:05:52,239734,-3677.000,7694.000,-1968.000,812.000,-3456.000,-2227.000,0.000,0.000,0
2026-01-30 23:05:52,239774,-3687.000,7966.000,-2508.000,2478.000,-3541.000,-1984.000,0.000,0.000,0
2026-01-30 23:05:52,239814,-2980.000,8993.000,-2789.000,4449.000,-3325.000,-1055.000,0.000,0.000,0
2026-01-30 23:05:52,239854,-2445.000,8466.000,-3035.000,3798.000,-3737.000,-836.000,0.000,0.000,0
2026-01-30 23:05:52,239894,-2805.000,7055.000,-3399.000,1540.000,-4135.000,-857.000,0.000,0.000,0
2026-01-30 23:05:52,239936,-2808.000,6828.000,-3604.000,2189.000,-3807.000,154.000,0.000,0.000,0
2026-01-30 23:05:52,239974,-2445.000,6111.000,-3002.000,1666.000,-3654.000,775.000,0.000,0.000,0
2026-01-30 23:05:52,240014,-2673.000,6040.000,-1889.000,1256.000,-3461.000,1298.000,0.000,0.000,0
2026-01-30 23:05:52,240054,-2907.000,6109.000,-1432.000,1036.000,-3185.000,1520.000,0.000,0.000,0
2026-01-30 23:05:52,240094,-3813.000,5645.000,-2288.000,311.000,-2639.000,1407.000,0.000,0.000,0
2026-01-30 23:05:53,240134,-4017.000,5865.000,-2167.000,64.000,-2504.000,1347.000,0.000,0.000,0
2026-01-30 23:05:53,240174,-3903.000,6575.000,-1856.000,223.000,-2293.000,1238.000,0.000,0.000,0
2026-01-30 23:05:53,240214,-3869.000,7028.000,-1638.000,61.000,-2173.000,985.000,0.000,0.000,0
2026-01-30 23:05:53,240254,-3859.000,7572.000,-1886.000,-661.000,-1913.000,782.000,0.000,0.000,0
2026-01-30 23:05:53,240294,-3238.000,7868.000,-2115.000,-896.000,-1643.000,695.000,0.000,0.000,0
2026-01-30 23:05:53,240334,-3656.000,8022.000,-2049.000,-1336.000,-1224.000,624.000,0.000,0.000,0
2026-01-30 23:05:53,240374,-3869.000,8353.000,-2127.000,-907.000,-698.000,948.000,0.000,0.000,0
2026-01-30 23:05:53,240414,-3033.000,8825.000,-1464.000,587.000,-229.000,1359.000,0.000,0.000,0
2026-01-30 23:05:53,240454,-2386.000,8333.000,-1657.000,983.000,-48.000,1020.000,0.000,0.000,0
2026-01-30 23:05:53,240494,-2495.000,7022.000,-1904.000,-506.000,-666.000,392.000,0.000,0.000,0
2026-01-30 23:05:53,240534,-2031.000,7429.000,-1668.000,2.000,-829.000,-157.000,0.000,0.000,0
2026-01-30 23:05:53,240574,-2026.000,6904.000,-1645.000,118.000,-363.000,-466.000,0.000,0.000,0
2026-01-30 23:05:53,240614,-2102.000,6117.000,-1642.000,648.000,-53.000,-420.000,0.000,0.000,0
2026-01-30 23:05:53,240654,-2623.000,6388.000,-867.000,856.000,-286.000,-473.000,0.000,0.000,0
2026-01-30 23:05:53,240694,-2957.000,6075.000,-330.000,-145.000,-564.000,-469.000,0.000,0.000,0
2026-01-30 23:05:53,240734,-3245.000,5932.000,-667.000,28.000,-752.000,-378.000,0.000,0.000,0
2026-01-30 23:05:53,240774,-3176.000,6744.000,-679.000,866.000,-970.000,-249.000,0.000,0.000,0
2026-01-30 23:05:53,240814,-3186.000,7142.000,-313.000,464.000,-1066.000,-328.000,0.000,0.000,0
2026-01-30 23:05:53,240854,-3846.000,7128.000,-945.000,566.000,-1079.000,-767.000,0.000,0.000,0
2026-01-30 23:05:53,240894,-4283.000,8016.000,-1322.000,767.000,-1295.000,-1294.000,0.000,0.000,0
2026-01-30 23:05:53,240934,-3744.000,7838.000,-1004.000,575.000,-1263.000,-1450.000,0.000,0.000,0
2026-01-30 23:05:53,240974,-4321.000,7934.000,-2184.000,1989.000,-931.000,-1239.000,0.000,0.000,0
2026-01-30 23:05:53,241014,-4994.000,8866.000,-2762.000,3379.000,-983.000,-387.000,0.000,0.000,0
2026-01-30 23:05:53,241054,-4225.000,9384.000,-2730.000,2849.000,-1170.000,384.000,0.000,0.000,0
2026-01-30 23:05:53,241094,-3823.000,7311.000,-2976.000,1440.000,-1591.000,518.000,0.000,0.000,0
2026-01-30 23:05:54,241134,-3678.000,6910.000,-3528.000,481.000,-1865.000,567.000,0.000,0.000,0
2026-01-30 23:05:54,241174,-3275.000,7109.000,-3121.000,635.000,-1532.000,1043.000,0.000,0.000,0
2026-01-30 23:05:54,241214,-2682.000,5930.000,-2289.000,184.000,-1171.000,1255.000,0.000,0.000,0
2026-01-30 23:05:54,241254,-2802.000,5902.000,-1368.000,-492.000,-1179.000,1144.000,0.000,0.000,0
2026-01-30 23:05:54,241294,-3007.000,5718.000,-1178.000,-2158.000,-1195.000,983.000,0.000,0.000,0
2026-01-30 23:05:54,241334,-3335.000,5693.000,-1306.000,-1806.000,-785.000,564.000,0.000,0.000,0
2026-01-30 23:05:54,241374,-3457.000,6404.000,-1071.000,-1815.000,-481.000,463.000,0.000,0.000,0
2026-01-30 23:05:54,241414,-3720.000,6356.000,-811.000,-1915.000,-468.000,460.000,0.000,0.000,0
2026-01-30 23:05:54,241454,-3722.000,7529.000,-510.000,-815.000,-287.000,538.000,0.000,0.000,0
2026-01-30 23:05:54,241494,-3689.000,8816.000,-1498.000,-742.000,-79.000,537.000,0.000,0.000,0
2026-01-30 23:05:54,241534,-3682.000,8464.000,-1285.000,-1801.000,101.000,520.000,0.000,0.000,0
2026-01-30 23:05:54,241574,-3968.000,8426.000,-1420.000,-1592.000,573.000,580.000,0.000,0.000,0
2026-01-30 23:05:54,241614,-2534.000,9301.000,-180.000,-612.000,1382.000,1417.000,0.000,0.000,0
2026-01-30 23:05:54,241654,-2275.000,9286.000,-849.000,598.000,1456.000,884.000,0.000,0.000,0
2026-01-30 23:05:54,241694,-1682.000,7462.000,-1033.000,-1669.000,995.000,351.000,0.000,0.000,0
2026-01-30 23:05:54,241734,-1356.000,7885.000,-1434.000,-712.000,1426.000,183.000,0.000,0.000,0
2026-01-30 23:05:54,241774,-1781.000,6986.000,-914.000,1079.000,1989.000,-126.000,0.000,0.000,0
2026-01-30 23:05:54,241814,-2222.000,5775.000,-593.000,1129.000,2212.000,-284.000,0.000,0.000,0
2026-01-30 23:05:54,241854,-2529.000,5582.000,-416.000,662.000,1883.000,-595.000,0.000,0.000,0
2026-01-30 23:05:54,241894,-2967.000,5300.000,-343.000,172.000,1406.000,-885.000,0.000,0.000,0
2026-01-30 23:05:54,241934,-3114.000,5904.000,-179.000,402.000,847.000,-978.000,0.000,0.000,0
2026-01-30 23:05:54,241974,-3102.000,7142.000,-339.000,77.000,479.000,-929.000,0.000,0.000,0
2026-01-30 23:05:54,242014,-3293.000,7722.000,-437.000,735.000,399.000,-887.000,0.000,0.000,0
2026-01-30 23:05:54,242054,-3616.000,8020.000,-444.000,509.000,2.000,-982.000,0.000,0.000,0
2026-01-30 23:05:54,242094,-3676.000,8358.000,-768.000,574.000,-125.000,-1061.000,0.000,0.000,0
2026-01-30 23:05:55,242134,-4258.000,7992.000,-1458.000,1450.000,209.000,-1263.000,0.000,0.000,0
2026-01-30 23:05:55,242174,-5215.000,9097.000,-1749.000,3357.000,613.000,-637.000,0.000,0.000,0
2026-01-30 23:05:55,242214,-4841.000,8227.000,-2093.000,3272.000,94.000,728.000,0.000,0.000,0
2026-01-30 23:05:55,242254,-2929.000,7626.000,-4094.000,3451.000,-679.000,965.000,0.000,0.000,0
2026-01-30 23:05:55,242294,-2636.000,7163.000,-3797.000,2827.000,-213.000,772.000,0.000,0.000,0
2026-01-30 23:05:55,242334,-2743.000,7084.000,-5016.000,2969.000,-2.000,773.000,0.000,0.000,0
2026-01-30 23:05:55,242374,-2521.000,5723.000,-3577.000,4656.000,344.000,739.000,0.000,0.000,0
2026-01-30 23:05:55,242414,-1858.000,6040.000,-2164.000,4537.000,468.000,183.000,0.000,0.000,0
2026-01-30 23:05:55,242454,-2529.000,6779.000,-2652.000,800.000,507.000,-45.000,0.000,0.000,0
2026-01-30 23:05:55,242494,-3002.000,6374.000,-2636.000,-865.000,528.000,-313.000,0.000,0.000,0
2026-01-30 23:05:55,242534,-3550.000,6174.000,-3407.000,-2085.000,621.000,-581.000,0.000,0.000,0
2026-01-30 23:05:55,242574,-3943.000,5683.000,-2547.000,-2411.000,698.000,-512.000,0.000,0.000,0
2026-01-30 23:05:55,242614,-3707.000,6251.000,-3148.000,-811.000,556.000,-507.000,0.000,0.000,0
2026-01-30 23:05:55,242654,-3584.000,7682.000,-4317.000,-2123.000,372.000,-248.000,0.000,0.000,0
2026-01-30 23:05:55,242694,-3248.000,7324.000,-3573.000,-2915.000,463.000,84.000,0.000,0.000,0
2026-01-30 23:05:55,242734,-3330.000,8115.000,-3829.000,-2949.000,892.000,-3.000,0.000,0.000,0
2026-01-30 23:05:55,242774,-2688.000,8598.000,-3566.000,-1635.000,1691.000,460.000,0.000,0.000,0
2026-01-30 23:05:55,242814,-2003.000,7919.000,-2334.000,-250.000,1684.000,570.000,0.000,0.000,0
2026-01-30 23:05:55,242854,-1762.000,8037.000,-2916.000,-901.000,1349.000,-179.000,0.000,0.000,0
2026-01-30 23:05:55,242894,-1570.000,7193.000,-2773.000,-1719.000,1516.000,-181.000,0.000,0.000,0
2026-01-30 23:05:55,242934,-1485.000,6061.000,-2431.000,-827.000,2008.000,-74.000,0.000,0.000,0
2026-01-30 23:05:55,242974,-1998.000,6569.000,-2553.000,-665.000,2246.000,-9.000,0.000,0.000,0
2026-01-30 23:05:55,243014,-2544.000,5390.000,-1825.000,-211.000,1740.000,-422.000,0.000,0.000,0
2026-01-30 23:05:55,243054,-3126.000,5702.000,-1507.000,378.000,1255.000,-1029.000,0.000,0.000,0
2026-01-30 23:05:55,243094,-3071.000,5937.000,-1454.000,-362.000,569.000,-1224.000,0.000,0.000,0
2026-01-30 23:05:56,243134,-2829.000,6713.000,-1449.000,-450.000,254.000,-1482.000,0.000,0.000,0
2026-01-30 23:05:56,243174,-3338.000,6727.000,-1794.000,-332.000,169.000,-1477.000,0.000,0.000,0
2026-01-30 23:05:56,243214,-3810.000,7435.000,-2014.000,397.000,-159.000,-1558.000,0.000,0.000,0
2026-01-30 23:05:56,243254,-3781.000,8225.000,-2344.000,452.000,-372.000,-1206.000,0.000,0.000,0
2026-01-30 23:05:56,243294,-3923.000,7625.000,-2952.000,190.000,-413.000,-1025.000,0.000,0.000,0
2026-01-30 23:05:56,243334,-4326.000,8355.000,-2957.000,158.000,-424.000,-673.000,0.000,0.000,0
2026-01-30 23:05:56,243374,-4889.000,8210.000,-3746.000,-855.000,-329.000,5.000,0.000,0.000,0
2026-01-30 23:05:56,243414,-4375.000,7298.000,-3947.000,-340.000,-759.000,289.000,0.000,0.000,0
2026-01-30 23:05:56,243454,-3933.000,7153.000,-3842.000,-88.000,-1159.000,115.000,0.000,0.000,0
2026-01-30 23:05:56,243494,-3486.000,7304.000,-4333.000,-828.000,-990.000,413.000,0.000,0.000,0
2026-01-30 23:05:56,243534,-2671.000,5544.000,-2401.000,-1319.000,-967.000,1144.000,0.000,0.000,0
2026-01-30 23:05:56,243574,-2288.000,4823.000,-1742.000,-285.000,-1069.000,1145.000,0.000,0.000,0
2026-01-30 23:05:56,243614,-2546.000,5735.000,-1292.000,-22.000,-1092.000,1218.000,0.000,0.000,0
2026-01-30 23:05:56,243654,-2320.000,5721.000,-1159.000,-1943.000,-832.000,1586.000,0.000,0.000,0
2026-01-30 23:05:56,243694,-2609.000,5623.000,-1814.000,-2738.000,-58.000,1703.000,0.000,0.000,0
2026-01-30 23:05:56,243734,-2650.000,6065.000,-1613.000,-1544.000,586.000,1827.000,0.000,0.000,0
2026-01-30 23:05:56,243774,-3002.000,7254.000,-1434.000,-850.000,1027.000,1798.000,0.000,0.000,0
2026-01-30 23:05:56,243814,-2933.000,8081.000,-1936.000,-532.000,1407.000,1775.000,0.000,0.000,0
2026-01-30 23:05:56,243854,-3077.000,9244.000,-2269.000,433.000,2030.000,1307.000,0.000,0.000,0
