datetime_local,uptime_ms,acc_x,acc_y,acc_z,gyro_x,gyro_y,gyro_z,speed_mps,turn_rate_deg_s,gps_valid
2026-01-31 11:56:08,1474094,727.000,45.000,7164.000,-1131.000,439.000,393.000,0.000,0.000,0
2026-01-31 11:56:08,1474134,806.000,-1408.000,6899.000,-1994.000,144.000,-533.000,0.000,0.000,0
2026-01-31 11:56:08,1474174,1207.000,-598.000,7330.000,-244.000,240.000,284.000,0.000,0.000,0
2026-01-31 11:56:08,1474214,1075.000,-1627.000,7871.000,256.000,517.000,1140.000,0.000,0.000,0
2026-01-31 11:56:08,1474254,1009.000,-1024.000,8078.000,32.000,543.000,726.000,0.000,0.000,0
2026-01-31 11:56:08,1474295,707.000,-1842.000,8262.000,-899.000,291.000,515.000,0.000,0.000,0
2026-01-31 11:56:08,1474334,744.000,-1380.000,8773.000,672.000,203.000,548.000,0.000,0.000,0
2026-01-31 11:56:08,1474374,534.000,-947.000,9085.000,-406.000,-120.000,466.000,0.000,0.000,0
2026-01-31 11:56:08,1474414,663.000,-1323.000,9182.000,-1192.000,-173.000,-245.000,0.000,0.000,0
2026-01-31 11:56:08,1474454,184.000,-845.000,9848.000,343.000,-57.000,-532.000,0.000,0.000,0
2026-01-31 11:56:08,1474494,-273.000,-345.000,10158.000,1234.000,-524.000,-376.000,0.000,0.000,0
2026-01-31 11:56:08,1474534,-455.000,-1011.000,8408.000,123.000,-830.000,-926.000,0.000,0.000,0
2026-01-31 11:56:08,1474574,773.000,-370.000,7433.000,1727.000,-128.000,84.000,0.000,0.000,0
2026-01-31 11:56:08,1474614,-569.000,2570.000,8050.000,4452.000,94.000,1605.000,0.000,0.000,0
2026-01-31 11:56:08,1474654,1523.000,344.000,7137.000,2479.000,361.000,1281.000,0.000,0.000,0
2026-01-31 11:56:08,1474694,1911.000,-160.000,6418.000,4695.000,940.000,1663.000,0.000,0.000,0
2026-01-31 11:56:08,1474734,749.000,-284.000,6147.000,5912.000,1129.000,2562.000,0.000,0.000,0
2026-01-31 11:56:08,1474774,383.000,769.000,5732.000,7769.000,1023.000,3246.000,0.000,0.000,0
2026-01-31 11:56:08,1474814,400.000,2348.000,6040.000,8760.000,1004.000,3594.000,0.000,0.000,0
2026-01-31 11:56:08,1474854,-5.000,3243.000,6562.000,8575.000,1029.000,3876.000,0.000,0.000,0
2026-01-31 11:56:08,1474894,652.000,3940.000,6886.000,8487.000,1225.000,3995.000,0.000,0.000,0
2026-01-31 11:56:08,1474934,544.000,6174.000,6679.000,8599.000,1111.000,4555.000,0.000,0.000,0
2026-01-31 11:56:08,1474974,841.000,7279.000,6589.000,8301.000,1428.000,5058.000,0.000,0.000,0
2026-01-31 11:56:08,1475014,1019.000,8702.000,6011.000,8157.000,2388.000,5469.000,0.000,0.000,0
2026-01-31 11:56:09,1475054,1204.000,9492.000,4878.000,7826.000,3442.000,6241.000,0.000,0.000,0
2026-01-31 11:56:09,1475094,1899.000,10524.000,5097.000,8182.000,4162.000,6328.000,0.000,0.000,0
2026-01-31 11:56:09,1475134,1794.000,9629.000,5051.000,6971.000,5453.000,5129.000,0.000,0.000,0
2026-01-31 11:56:09,1475174,1347.000,7805.000,4249.000,5370.000,6042.000,3140.000,0.000,0.000,0
2026-01-31 11:56:09,1475214,1351.000,7430.000,3651.000,4565.000,5747.000,1747.000,0.000,0.000,0
2026-01-31 11:56:09,1475254,1477.000,6678.000,2933.000,4208.000,5396.000,802.000,0.000,0.000,0
2026-01-31 11:56:09,1475294,1437.000,6352.000,2715.000,3318.000,4854.000,198.000,0.000,0.000,0
2026-01-31 11:56:09,1475334,891.000,4685.000,2630.000,2499.000,4230.000,-101.000,0.000,0.000,0
2026-01-31 11:56:09,1475374,769.000,5157.000,2424.000,2787.000,3688.000,203.000,0.000,0.000,0
2026-01-31 11:56:09,1475414,778.000,5648.000,2475.000,2600.000,2902.000,852.000,0.000,0.000,0
2026-01-31 11:56:09,1475454,839.000,6356.000,2863.000,3432.000,2304.000,1542.000,0.000,0.000,0
2026-01-31 11:56:09,1475494,1165.000,7697.000,2803.000,3762.000,2051.000,1909.000,0.000,0.000,0
2026-01-31 11:56:09,1475534,929.000,7718.000,2611.000,3476.000,1673.000,1690.000,0.000,0.000,0
2026-01-31 11:56:09,1475574,797.000,9286.000,2615.000,4280.000,1321.000,1541.000,0.000,0.000,0
2026-01-31 11:56:09,1475614,1033.000,10051.000,1698.000,3506.000,1202.000,1256.000,0.000,0.000,0
2026-01-31 11:56:09,1475654,579.000,10612.000,1166.000,3793.000,486.000,1013.000,0.000,0.000,0
2026-01-31 11:56:09,1475694,655.000,11162.000,766.000,2712.000,-590.000,884.000,0.000,0.000,0
2026-01-31 11:56:09,1475734,769.000,10508.000,389.000,534.000,-1476.000,253.000,0.000,0.000,0
2026-01-31 11:56:09,1475774,1493.000,10216.000,-541.000,-1405.000,-1876.000,-11.000,0.000,0.000,0
2026-01-31 11:56:09,1475817,2226.000,8499.000,-971.000,-1950.000,-2018.000,-452.000,0.000,0.000,0
2026-01-31 11:56:09,1475857,1897.000,6970.000,-126.000,-1981.000,-2251.000,-1188.000,0.000,0.000,0
2026-01-31 11:56:09,1475894,1688.000,6241.000,253.000,-2330.000,-2299.000,-1621.000,0.000,0.000,0
2026-01-31 11:56:09,1475934,1477.000,5329.000,616.000,-3479.000,-1912.000,-1738.000,0.000,0.000,0
2026-01-31 11:56:09,1475974,1288.000,5377.000,324.000,-3630.000,-1265.000,-1358.000,0.000,0.000,0
2026-01-31 11:56:09,1476014,1109.000,5976.000,158.000,-2770.000,-1179.000,-956.000,0.000,0.000,0
2026-01-31 11:56:10,1476054,1314.000,6761.000,543.000,-2042.000,-1443.000,-344.000,0.000,0.000,0
2026-01-31 11:56:10,1476094,2083.000,7844.000,262.000,-1325.000,-769.000,653.000,0.000,0.000,0
2026-01-31 11:56:10,1476134,2763.000,8811.000,427.000,109.000,-479.000,1248.000,0.000,0.000,0
2026-01-31 11:56:10,1476174,3305.000,9034.000,1040.000,677.000,147.000,2074.000,0.000,0.000,0
2026-01-31 11:56:10,1476214,3794.000,9167.000,1248.000,2219.000,818.000,2611.000,0.000,0.000,0
2026-01-31 11:56:10,1476254,3794.000,9284.000,1066.000,3405.000,1513.000,3186.000,0.000,0.000,0
2026-01-31 11:56:10,1476294,3349.000,7930.000,1284.000,2413.000,1633.000,2375.000,0.000,0.000,0
2026-01-31 11:56:10,1476334,3737.000,7324.000,1239.000,946.000,1483.000,1392.000,0.000,0.000,0
2026-01-31 11:56:10,1476374,3940.000,6898.000,595.000,660.000,1311.000,974.000,0.000,0.000,0
2026-01-31 11:56:10,1476414,3286.000,6109.000,527.000,964.000,1151.000,577.000,0.000,0.000,0
2026-01-31 11:56:10,1476454,1727.000,5107.000,749.000,1653.000,1304.000,355.000,0.000,0.000,0
2026-01-31 11:56:10,1476494,1118.000,5394.000,763.000,1957.000,1604.000,172.000,0.000,0.000,0
2026-01-31 11:56:10,1476534,979.000,6131.000,718.000,1985.000,1678.000,189.000,0.000,0.000,0
2026-01-31 11:56:10,1476574,1011.000,7066.000,1089.000,2320.000,1414.000,79.000,0.000,0.000,0
2026-01-31 11:56:10,1476614,1395.000,7958.000,1569.000,2602.000,950.000,5.000,0.000,0.000,0
2026-01-31 11:56:10,1476654,1884.000,8595.000,1825.000,2357.000,303.000,-228.000,0.000,0.000,0
2026-01-31 11:56:10,1476694,2176.000,9577.000,1315.000,1300.000,-275.000,-521.000,0.000,0.000,0
2026-01-31 11:56:10,1476734,2799.000,10278.000,578.000,382.000,-482.000,-804.000,0.000,0.000,0
2026-01-31 11:56:10,1476774,2374.000,10155.000,405.000,72.000,-461.000,-868.000,0.000,0.000,0
2026-01-31 11:56:10,1476814,1957.000,10692.000,174.000,569.000,-896.000,-629.000,0.000,0.000,0
2026-01-31 11:56:10,1476854,2143.000,9916.000,-132.000,-1283.000,-1256.000,-1032.000,0.000,0.000,0
2026-01-31 11:56:10,1476894,2476.000,9637.000,-1157.000,-3111.000,-1053.000,-790.000,0.000,0.000,0
2026-01-31 11:56:10,1476934,2908.000,9336.000,-1438.000,-3018.000,-720.000,-786.000,0.000,0.000,0
2026-01-31 11:56:10,1476974,2486.000,7396.000,-788.000,-3167.000,-751.000,-1015.000,0.000,0.000,0
2026-01-31 11:56:10,1477014,2049.000,6479.000,-168.000,-2737.000,-1079.000,-1457.000,0.000,0.000,0
2026-01-31 11:56:11,1477054,1639.000,5624.000,-132.000,-2844.000,-1263.000,-1922.000,0.000,0.000,0
2026-01-31 11:56:11,1477094,1165.000,5121.000,-55.000,-2407.000,-1242.000,-2026.000,0.000,0.000,0
2026-01-31 11:56:11,1477134,857.000,5544.000,39.000,-1977.000,-1104.000,-1567.000,0.000,0.000,0
2026-01-31 11:56:11,1477174,802.000,6078.000,85.000,-1562.000,-1097.000,-982.000,0.000,0.000,0
2026-01-31 11:56:11,1477214,1132.000,8083.000,49.000,-982.000,-1141.000,15.000,0.000,0.000,0
2026-01-31 11:56:11,1477254,1843.000,8817.000,-28.000,-695.000,-632.000,1122.000,0.000,0.000,0
2026-01-31 11:56:11,1477294,2238.000,9241.000,702.000,277.000,-343.000,1526.000,0.000,0.000,0
2026-01-31 11:56:11,1477334,3058.000,10035.000,1095.000,762.000,19.000,1950.000,0.000,0.000,0
2026-01-31 11:56:11,1477374,3411.000,9738.000,737.000,1957.000,603.000,2552.000,0.000,0.000,0
2026-01-31 11:56:11,1477414,3046.000,8615.000,1174.000,2492.000,423.000,1542.000,0.000,0.000,0
2026-01-31 11:56:11,1477454,3231.000,7521.000,1296.000,1268.000,403.000,233.000,0.000,0.000,0
2026-01-31 11:56:11,1477494,3435.000,7419.000,619.000,1183.000,666.000,-248.000,0.000,0.000,0
2026-01-31 11:56:11,1477534,2952.000,6629.000,573.000,1164.000,836.000,-450.000,0.000,0.000,0
2026-01-31 11:56:11,1477574,2060.000,5732.000,829.000,1663.000,939.000,-292.000,0.000,0.000,0
2026-01-31 11:56:11,1477614,1250.000,5501.000,905.000,1602.000,1300.000,-309.000,0.000,0.000,0
2026-01-31 11:56:11,1477654,826.000,6077.000,1095.000,1643.000,1278.000,-285.000,0.000,0.000,0
2026-01-31 11:56:11,1477694,636.000,6701.000,1151.000,1274.000,1095.000,-229.000,0.000,0.000,0
2026-01-31 11:56:11,1477734,829.000,7632.000,1133.000,1023.000,840.000,-47.000,0.000,0.000,0
2026-01-31 11:56:11,1477774,933.000,8168.000,1285.000,973.000,405.000,128.000,0.000,0.000,0
2026-01-31 11:56:11,1477817,1373.000,9223.000,922.000,568.000,-272.000,-103.000,0.000,0.000,0
2026-01-31 11:56:11,1477856,1590.000,10252.000,265.000,410.000,-512.000,-308.000,0.000,0.000,0
2026-01-31 11:56:11,1477894,1582.000,10726.000,49.000,343.000,-526.000,-302.000,0.000,0.000,0
2026-01-31 11:56:11,1477934,1610.000,11155.000,-166.000,393.000,-766.000,-282.000,0.000,0.000,0
2026-01-31 11:56:11,1477974,1559.000,10002.000,175.000,94.000,-1360.000,-408.000,0.000,0.000,0
2026-01-31 11:56:11,1478014,1604.000,9649.000,-575.000,-2384.000,-1943.000,-619.000,0.000,0.000,0
2026-01-31 11:56:12,1478054,2276.000,9471.000,-1608.000,-3214.000,-1863.000,-698.000,0.000,0.000,0
2026-01-31 11:56:12,1478097,2381.000,7093.000,-1114.000,-2869.000,-1290.000,-1171.000,0.000,0.000,0
2026-01-31 11:56:12,1478134,2112.000,6346.000,-751.000,-2507.000,-1177.000,-1366.000,0.000,0.000,0
2026-01-31 11:56:12,1478174,1670.000,5624.000,-221.000,-1698.000,-1136.000,-1902.000,0.000,0.000,0
2026-01-31 11:56:12,1478214,1358.000,5161.000,-15.000,-1342.000,-726.000,-2137.000,0.000,0.000,0
2026-01-31 11:56:12,1478254,753.000,5365.000,69.000,-558.000,-263.000,-2096.000,0.000,0.000,0
2026-01-31 11:56:12,1478294,488.000,6217.000,-27.000,-65.000,9.000,-1705.000,0.000,0.000,0
2026-01-31 11:56:12,1478334,325.000,7222.000,127.000,343.000,101.000,-1004.000,0.000,0.000,0
2026-01-31 11:56:12,1478374,1012.000,8953.000,107.000,84.000,620.000,309.000,0.000,0.000,0
2026-01-31 11:56:12,1478414,1124.000,8900.000,481.000,463.000,921.000,932.000,0.000,0.000,0
2026-01-31 11:56:12,1478454,1297.000,9884.000,895.000,1244.000,865.000,1502.000,0.000,0.000,0
2026-01-31 11:56:12,1478494,1877.000,10257.000,478.000,2296.000,1122.000,2594.000,0.000,0.000,0
2026-01-31 11:56:12,1478534,1890.000,9751.000,693.000,3376.000,759.000,2244.000,0.000,0.000,0
2026-01-31 11:56:12,1478574,2238.000,8730.000,845.000,1178.000,661.000,854.000,0.000,0.000,0
2026-01-31 11:56:12,1478614,2869.000,8265.000,221.000,455.000,986.000,36.000,0.000,0.000,0
2026-01-31 11:56:12,1478654,2924.000,7447.000,259.000,302.000,1314.000,-468.000,0.000,0.000,0
2026-01-31 11:56:12,1478694,2172.000,6207.000,860.000,934.000,1352.000,-551.000,0.000,0.000,0
2026-01-31 11:56:12,1478734,1432.000,5306.000,971.000,1047.000,1454.000,-549.000,0.000,0.000,0
2026-01-31 11:56:12,1478774,609.000,5403.000,564.000,193.000,2019.000,-468.000,0.000,0.000,0
2026-01-31 11:56:12,1478814,231.000,6175.000,504.000,507.000,2005.000,-18.000,0.000,0.000,0
2026-01-31 11:56:12,1478854,60.000,7150.000,966.000,947.000,1644.000,212.000,0.000,0.000,0
2026-01-31 11:56:12,1478894,-118.000,7698.000,1280.000,1186.000,1038.000,437.000,0.000,0.000,0
2026-01-31 11:56:12,1478934,51.000,8976.000,1140.000,1271.000,222.000,656.000,0.000,0.000,0
2026-01-31 11:56:12,1478974,287.000,10091.000,579.000,402.000,-482.000,320.000,0.000,0.000,0
2026-01-31 11:56:12,1479014,595.000,10468.000,-94.000,-248.000,-754.000,-280.000,0.000,0.000,0
2026-01-31 11:56:13,1479054,750.000,11194.000,-577.000,232.000,-860.000,-338.000,0.000,0.000,0
2026-01-31 11:56:13,1479094,846.000,10681.000,-307.000,201.000,-1382.000,-591.000,0.000,0.000,0
2026-01-31 11:56:13,1479134,1413.000,10063.000,-1083.000,-1802.000,-1520.000,-466.000,0.000,0.000,0
2026-01-31 11:56:13,1479174,1965.000,9377.000,-1572.000,-1861.000,-1444.000,-236.000,0.000,0.000,0
2026-01-31 11:56:13,1479214,2185.000,7532.000,-999.000,-1518.000,-1319.000,-176.000,0.000,0.000,0
2026-01-31 11:56:13,1479254,1872.000,6416.000,-324.000,-990.000,-1288.000,-412.000,0.000,0.000,0
2026-01-31 11:56:13,1479294,1258.000,5589.000,107.000,-1354.000,-1451.000,-989.000,0.000,0.000,0
2026-01-31 11:56:13,1479334,396.000,5188.000,-22.000,-1422.000,-1295.000,-1151.000,0.000,0.000,0
2026-01-31 11:56:13,1479374,261.000,5926.000,-275.000,-1202.000,-1050.000,-1013.000,0.000,0.000,0
2026-01-31 11:56:13,1479414,153.000,6571.000,-139.000,-1341.000,-809.000,-679.000,0.000,0.000,0
2026-01-31 11:56:13,1479454,269.000,7265.000,-349.000,-737.000,-561.000,-48.000,0.000,0.000,0
2026-01-31 11:56:13,1479494,822.000,8992.000,-197.000,225.000,-347.000,429.000,0.000,0.000,0
2026-01-31 11:56:13,1479534,1069.000,9008.000,71.000,437.000,498.000,919.000,0.000,0.000,0
2026-01-31 11:56:13,1479574,1905.000,10447.000,18.000,1421.000,443.000,1502.000,0.000,0.000,0
2026-01-31 11:56:13,1479614,2157.000,10062.000,-231.000,1947.000,750.000,2244.000,0.000,0.000,0
2026-01-31 11:56:13,1479654,2308.000,9361.000,73.000,2144.000,592.000,1414.000,0.000,0.000,0
2026-01-31 11:56:13,1479694,2828.000,8123.000,83.000,905.000,699.000,280.000,0.000,0.000,0
2026-01-31 11:56:13,1479734,3026.000,7834.000,-70.000,906.000,1014.000,-285.000,0.000,0.000,0
2026-01-31 11:56:13,1479774,2325.000,6572.000,312.000,1165.000,1202.000,-651.000,0.000,0.000,0
2026-01-31 11:56:13,1479814,1287.000,6291.000,742.000,1590.000,1374.000,-517.000,0.000,0.000,0
2026-01-31 11:56:13,1479854,612.000,6111.000,816.000,752.000,1538.000,-614.000,0.000,0.000,0
2026-01-31 11:56:13,1479913,123.000,6616.000,431.000,185.000,2008.000,-682.000,0.000,0.000,0
2026-01-31 11:56:13,1479934,119.000,6973.000,461.000,271.000,1988.000,-634.000,0.000,0.000,0
2026-01-31 11:56:13,1479974,165.000,7913.000,839.000,431.000,1853.000,-675.000,0.000,0.000,0
2026-01-31 11:56:13,1480014,176.000,8178.000,865.000,489.000,1472.000,-849.000,0.000,0.000,0
2026-01-31 11:56:14,1480054,-56.000,9043.000,560.000,490.000,993.000,-971.000,0.000,0.000,0
2026-01-31 11:56:14,1480094,-84.000,9863.000,-47.000,179.000,629.000,-871.000,0.000,0.000,0
2026-01-31 11:56:14,1480134,-264.000,9704.000,-37.000,84.000,239.000,-917.000,0.000,0.000,0
2026-01-31 11:56:14,1480174,-505.000,10235.000,-197.000,447.000,-131.000,-649.000,0.000,0.000,0
2026-01-31 11:56:14,1480214,-415.000,10867.000,-674.000,150.000,-871.000,-132.000,0.000,0.000,0
2026-01-31 11:56:14,1480254,-74.000,10577.000,-1322.000,-1412.000,-1456.000,86.000,0.000,0.000,0
2026-01-31 11:56:14,1480294,912.000,8979.000,-1648.000,-2191.000,-1695.000,380.000,0.000,0.000,0
2026-01-31 11:56:14,1480334,1171.000,6306.000,-1411.000,-1402.000,-1340.000,1049.000,0.000,0.000,0
2026-01-31 11:56:14,1480374,1211.000,5573.000,-856.000,326.000,-1303.000,1055.000,0.000,0.000,0
2026-01-31 11:56:14,1480414,1157.000,5058.000,-284.000,-57.000,-1256.000,930.000,0.000,0.000,0
2026-01-31 11:56:14,1480454,1156.000,4503.000,-10.000,-606.000,-760.000,1337.000,0.000,0.000,0
2026-01-31 11:56:14,1480494,1606.000,5389.000,-496.000,-217.000,-8.000,1906.000,0.000,0.000,0
2026-01-31 11:56:14,1480534,1567.000,6661.000,-212.000,-18.000,1.000,2252.000,0.000,0.000,0
2026-01-31 11:56:14,1480574,2284.000,7613.000,-45.000,2.000,197.000,2922.000,0.000,0.000,0
2026-01-31 11:56:14,1480614,2561.000,8520.000,-452.000,-213.000,909.000,4158.000,0.000,0.000,0
2026-01-31 11:56:14,1480654,4965.000,10450.000,668.000,374.000,695.000,4343.000,0.000,0.000,0
2026-01-31 11:56:14,1480694,6348.000,10247.000,649.000,-2136.000,1125.000,5473.000,0.000,0.000,0
2026-01-31 11:56:14,1480734,7427.000,11169.000,403.000,-1009.000,246.000,4555.000,0.000,0.000,0
2026-01-31 11:56:14,1480774,6024.000,7184.000,1238.000,-2350.000,-255.000,2947.000,0.000,0.000,0
2026-01-31 11:56:14,1480814,4847.000,6245.000,767.000,-2239.000,-182.000,2301.000,0.000,0.000,0
2026-01-31 11:56:14,1480854,3751.000,5703.000,-72.000,-1728.000,615.000,1950.000,0.000,0.000,0
2026-01-31 11:56:14,1480894,2905.000,5280.000,-250.000,-436.000,1392.000,1413.000,0.000,0.000,0
2026-01-31 11:56:14,1480934,1803.000,4205.000,204.000,817.000,1884.000,1093.000,0.000,0.000,0
2026-01-31 11:56:14,1480974,1308.000,4173.000,670.000,1918.000,2230.000,902.000,0.000,0.000,0
2026-01-31 11:56:14,1481014,1279.000,4886.000,682.000,2458.000,2695.000,772.000,0.000,0.000,0
2026-01-31 11:56:15,1481054,2117.000,6263.000,1153.000,3406.000,2707.000,502.000,0.000,0.000,0
2026-01-31 11:56:15,1481094,2506.000,7000.000,1753.000,3857.000,2257.000,128.000,0.000,0.000,0
2026-01-31 11:56:15,1481134,3124.000,8531.000,2089.000,4263.000,1320.000,-380.000,0.000,0.000,0
2026-01-31 11:56:15,1481174,3903.000,9460.000,1827.000,2944.000,280.000,-648.000,0.000,0.000,0
2026-01-31 11:56:15,1481214,4226.000,10090.000,825.000,1520.000,-289.000,-1202.000,0.000,0.000,0
2026-01-31 11:56:15,1481254,4174.000,10689.000,295.000,1247.000,-562.000,-1463.000,0.000,0.000,0
2026-01-31 11:56:15,1481294,4333.000,10497.000,462.000,906.000,-646.000,-1750.000,0.000,0.000,0
2026-01-31 11:56:15,1481334,3873.000,9537.000,-151.000,-1314.000,-1337.000,-2001.000,0.000,0.000,0
2026-01-31 11:56:15,1481374,4539.000,9759.000,-803.000,-2157.000,-1749.000,-2018.000,0.000,0.000,0
2026-01-31 11:56:15,1481414,4274.000,6935.000,-1345.000,-3115.000,-1726.000,-2146.000,0.000,0.000,0
2026-01-31 11:56:15,1481454,3070.000,6460.000,-587.000,-704.000,-2509.000,-2707.000,0.000,0.000,0
2026-01-31 11:56:15,1481494,2095.000,5443.000,-374.000,-1705.000,-2436.000,-3196.000,0.000,0.000,0
2026-01-31 11:56:15,1481534,1383.000,4947.000,-1063.000,-1054.000,-2263.000,-3619.000,0.000,0.000,0
2026-01-31 11:56:15,1481574,1498.000,5532.000,-1103.000,-64.000,-2176.000,-3728.000,0.000,0.000,0
2026-01-31 11:56:15,1481614,1241.000,6602.000,-1180.000,461.000,-1546.000,-3533.000,0.000,0.000,0
2026-01-31 11:56:15,1481654,1186.000,7866.000,-1986.000,404.000,-857.000,-3339.000,0.000,0.000,0
2026-01-31 11:56:15,1481694,2093.000,9782.000,-1476.000,709.000,-784.000,-3415.000,0.000,0.000,0
2026-01-31 11:56:15,1481734,1849.000,8535.000,-897.000,-1093.000,267.000,-3557.000,0.000,0.000,0
2026-01-31 11:56:15,1481774,1438.000,9825.000,-232.000,123.000,47.000,-3610.000,0.000,0.000,0
2026-01-31 11:56:15,1481814,1347.000,9835.000,48.000,-279.000,234.000,-2238.000,0.000,0.000,0
2026-01-31 11:56:15,1481855,932.000,8815.000,334.000,578.000,-52.000,-1672.000,0.000,0.000,0
2026-01-31 11:56:15,1481894,886.000,8603.000,908.000,372.000,-651.000,-2232.000,0.000,0.000,0
2026-01-31 11:56:15,1481934,1337.000,7894.000,258.000,-750.000,-422.000,-1803.000,0.000,0.000,0
2026-01-31 11:56:15,1481974,1010.000,6822.000,-68.000,-99.000,-5.000,-1818.000,0.000,0.000,0
2026-01-31 11:56:15,1482014,127.000,5866.000,313.000,401.000,389.000,-1557.000,0.000,0.000,0
2026-01-31 11:56:16,1482054,-560.000,5455.000,810.000,291.000,486.000,-1264.000,0.000,0.000,0
2026-01-31 11:56:16,1482094,-985.000,5585.000,683.000,-318.000,802.000,-1035.000,0.000,0.000,0
2026-01-31 11:56:16,1482134,-1125.000,6407.000,444.000,-149.000,793.000,-937.000,0.000,0.000,0
2026-01-31 11:56:16,1482174,-1574.000,7364.000,756.000,-147.000,776.000,-948.000,0.000,0.000,0
2026-01-31 11:56:16,1482214,-1936.000,8010.000,797.000,611.000,615.000,-650.000,0.000,0.000,0
2026-01-31 11:56:16,1482254,-1825.000,8635.000,715.000,577.000,120.000,-857.000,0.000,0.000,0
2026-01-31 11:56:16,1482294,-1661.000,8853.000,299.000,420.000,114.000,-861.000,0.000,0.000,0
2026-01-31 11:56:16,1482334,-1757.000,9462.000,-247.000,674.000,320.000,-701.000,0.000,0.000,0
2026-01-31 11:56:16,1482374,-2185.000,9963.000,-597.000,1249.000,150.000,-211.000,0.000,0.000,0
2026-01-31 11:56:16,1482414,-2048.000,10343.000,-924.000,1712.000,-406.000,1028.000,0.000,0.000,0
2026-01-31 11:56:16,1482454,-1427.000,9540.000,-756.000,961.000,-1323.000,1464.000,0.000,0.000,0
2026-01-31 11:56:16,1482494,-1213.000,9188.000,-1453.000,-556.000,-1401.000,1989.000,0.000,0.000,0
2026-01-31 11:56:16,1482534,-844.000,8977.000,-1968.000,-663.000,-1485.000,2308.000,0.000,0.000,0
2026-01-31 11:56:16,1482574,-425.000,6726.000,-1142.000,-35.000,-1468.000,2276.000,0.000,0.000,0
2026-01-31 11:56:16,1482614,-333.000,6356.000,-305.000,362.000,-1499.000,1720.000,0.000,0.000,0
2026-01-31 11:56:16,1482654,-669.000,6110.000,-57.000,-358.000,-1430.000,1275.000,0.000,0.000,0
2026-01-31 11:56:16,1482694,-776.000,6200.000,-344.000,-883.000,-1179.000,1149.000,0.000,0.000,0
2026-01-31 11:56:16,1482734,-734.000,6704.000,-706.000,-1013.000,-790.000,1102.000,0.000,0.000,0
2026-01-31 11:56:16,1482774,-715.000,7308.000,-823.000,-816.000,-371.000,1146.000,0.000,0.000,0
2026-01-31 11:56:16,1482814,-563.000,8875.000,-1007.000,-528.000,-48.000,1337.000,0.000,0.000,0
2026-01-31 11:56:16,1482854,154.000,9473.000,-1070.000,-514.000,137.000,1239.000,0.000,0.000,0
2026-01-31 11:56:16,1482894,595.000,9849.000,-612.000,110.000,316.000,1295.000,0.000,0.000,0
2026-01-31 11:56:16,1482934,1218.000,10605.000,-508.000,883.000,585.000,2232.000,0.000,0.000,0
2026-01-31 11:56:16,1482974,2192.000,9521.000,-418.000,1393.000,211.000,1163.000,0.000,0.000,0
2026-01-31 11:56:16,1483014,2246.000,7578.000,-705.000,478.000,1135.000,11.000,0.000,0.000,0
2026-01-31 11:56:17,1483054,2204.000,7753.000,-488.000,1430.000,1586.000,-690.000,0.000,0.000,0
2026-01-31 11:56:17,1483094,1681.000,7496.000,455.000,1865.000,1472.000,-853.000,0.000,0.000,0
2026-01-31 11:56:17,1483134,1242.000,6841.000,980.000,960.000,1426.000,-727.000,0.000,0.000,0
2026-01-31 11:56:17,1483174,719.000,5849.000,576.000,-14.000,1598.000,-741.000,0.000,0.000,0
2026-01-31 11:56:17,1483214,352.000,5950.000,285.000,-374.000,1661.000,-688.000,0.000,0.000,0
2026-01-31 11:56:17,1483254,122.000,5980.000,16.000,-482.000,1765.000,-437.000,0.000,0.000,0
2026-01-31 11:56:17,1483294,-277.000,6540.000,201.000,200.000,1472.000,-196.000,0.000,0.000,0
2026-01-31 11:56:17,1483334,-324.000,7738.000,201.000,565.000,954.000,46.000,0.000,0.000,0
2026-01-31 11:56:17,1483374,-611.000,8715.000,229.000,930.000,341.000,-205.000,0.000,0.000,0
2026-01-31 11:56:17,1483414,-490.000,9702.000,-235.000,698.000,2.000,-201.000,0.000,0.000,0
2026-01-31 11:56:17,1483454,-145.000,11288.000,-893.000,796.000,-168.000,29.000,0.000,0.000,0
2026-01-31 11:56:17,1483494,864.000,12764.000,-1332.000,971.000,-329.000,443.000,0.000,0.000,0
2026-01-31 11:56:17,1483534,872.000,10396.000,-464.000,-166.000,-757.000,250.000,0.000,0.000,0
2026-01-31 11:56:17,1483574,690.000,8463.000,-365.000,-1361.000,-1178.000,-16.000,0.000,0.000,0
2026-01-31 11:56:17,1483614,852.000,8684.000,-1355.000,-1734.000,-1327.000,378.000,0.000,0.000,0
2026-01-31 11:56:17,1483654,971.000,8122.000,-1685.000,-1759.000,-1360.000,586.000,0.000,0.000,0
2026-01-31 11:56:17,1483694,998.000,6993.000,-1314.000,-1322.000,-1144.000,987.000,0.000,0.000,0
2026-01-31 11:56:17,1483734,612.000,6121.000,-628.000,-1042.000,-1002.000,722.000,0.000,0.000,0
2026-01-31 11:56:17,1483774,242.000,6060.000,-797.000,-1351.000,-830.000,393.000,0.000,0.000,0
2026-01-31 11:56:17,1483814,63.000,6209.000,-547.000,-1418.000,-654.000,48.000,0.000,0.000,0
2026-01-31 11:56:17,1483854,-5.000,6264.000,-405.000,-1329.000,-182.000,16.000,0.000,0.000,0
2026-01-31 11:56:17,1483894,-84.000,7202.000,-638.000,-699.000,68.000,257.000,0.000,0.000,0
2026-01-31 11:56:17,1483934,500.000,8930.000,-525.000,-203.000,84.000,777.000,0.000,0.000,0
2026-01-31 11:56:17,1483974,1096.000,9262.000,-444.000,-71.000,375.000,1031.000,0.000,0.000,0
2026-01-31 11:56:17,1484014,1622.000,9936.000,-21.000,180.000,429.000,1375.000,0.000,0.000,0
2026-01-31 11:56:18,1484054,2242.000,10390.000,-115.000,70.000,602.000,1632.000,0.000,0.000,0
2026-01-31 11:56:18,1484094,2323.000,9235.000,52.000,932.000,942.000,1849.000,0.000,0.000,0
2026-01-31 11:56:18,1484134,2009.000,7635.000,884.000,402.000,861.000,971.000,0.000,0.000,0
2026-01-31 11:56:18,1484174,2605.000,7754.000,271.000,-90.000,882.000,431.000,0.000,0.000,0
2026-01-31 11:56:18,1484214,2688.000,6585.000,-60.000,129.000,920.000,34.000,0.000,0.000,0
2026-01-31 11:56:18,1484254,1931.000,5879.000,252.000,1138.000,1037.000,-110.000,0.000,0.000,0
2026-01-31 11:56:18,1484294,1157.000,5712.000,560.000,1347.000,894.000,-294.000,0.000,0.000,0
2026-01-31 11:56:18,1484334,785.000,5746.000,421.000,861.000,903.000,-368.000,0.000,0.000,0
2026-01-31 11:56:18,1484374,674.000,6048.000,99.000,712.000,938.000,-267.000,0.000,0.000,0
2026-01-31 11:56:18,1484414,640.000,6728.000,169.000,1063.000,845.000,-188.000,0.000,0.000,0
2026-01-31 11:56:18,1484454,632.000,7243.000,326.000,1219.000,774.000,1.000,0.000,0.000,0
2026-01-31 11:56:18,1484494,386.000,8521.000,541.000,1937.000,-89.000,-183.000,0.000,0.000,0
2026-01-31 11:56:18,1484534,829.000,9775.000,111.000,1264.000,-462.000,-156.000,0.000,0.000,0
2026-01-31 11:56:18,1484574,1144.000,10433.000,-556.000,771.000,-730.000,-285.000,0.000,0.000,0
2026-01-31 11:56:18,1484614,1510.000,11379.000,-1040.000,898.000,-1155.000,275.000,0.000,0.000,0
2026-01-31 11:56:18,1484654,1707.000,10488.000,-729.000,860.000,-1985.000,774.000,0.000,0.000,0
2026-01-31 11:56:18,1484694,1649.000,10248.000,-1156.000,-981.000,-2473.000,730.000,0.000,0.000,0
2026-01-31 11:56:18,1484734,2297.000,10161.000,-2430.000,-2388.000,-2306.000,960.000,0.000,0.000,0
2026-01-31 11:56:18,1484774,2509.000,8564.000,-2289.000,-2794.000,-1971.000,714.000,0.000,0.000,0
2026-01-31 11:56:18,1484814,2238.000,6850.000,-1123.000,-2281.000,-1627.000,543.000,0.000,0.000,0
2026-01-31 11:56:18,1484854,1281.000,5356.000,-346.000,-1925.000,-1411.000,-60.000,0.000,0.000,0
2026-01-31 11:56:18,1484894,437.000,4770.000,-371.000,-1492.000,-1453.000,-444.000,0.000,0.000,0
2026-01-31 11:56:18,1484934,422.000,5640.000,-534.000,-831.000,-1602.000,-439.000,0.000,0.000,0
2026-01-31 11:56:18,1484974,726.000,6228.000,-812.000,-855.000,-1524.000,-6.000,0.000,0.000,0
2026-01-31 11:56:18,1485014,1022.000,7185.000,-694.000,-241.000,-1428.000,308.000,0.000,0.000,0
2026-01-31 11:56:19,1485054,1930.000,8581.000,-604.000,-127.000,-1039.000,646.000,0.000,0.000,0
2026-01-31 11:56:19,1485094,2119.000,8388.000,-631.000,10.000,-516.000,835.000,0.000,0.000,0
2026-01-31 11:56:19,1485134,2129.000,9027.000,-227.000,899.000,-380.000,1238.000,0.000,0.000,0
2026-01-31 11:56:19,1485174,2548.000,9742.000,-840.000,878.000,331.000,1645.000,0.000,0.000,0
2026-01-31 11:56:19,1485214,2191.000,8938.000,-556.000,2595.000,379.000,2378.000,0.000,0.000,0
2026-01-31 11:56:19,1485254,2585.000,8403.000,-500.000,1554.000,-795.000,1071.000,0.000,0.000,0
2026-01-31 11:56:19,1485294,2940.000,7940.000,-1618.000,496.000,-697.000,495.000,0.000,0.000,0
2026-01-31 11:56:19,1485334,3033.000,7569.000,-1976.000,322.000,-594.000,-183.000,0.000,0.000,0
2026-01-31 11:56:19,1485374,2627.000,6695.000,-1056.000,1143.000,-971.000,-574.000,0.000,0.000,0
2026-01-31 11:56:19,1485414,1801.000,5942.000,-693.000,1112.000,-1348.000,-854.000,0.000,0.000,0
2026-01-31 11:56:19,1485454,1192.000,5992.000,-1035.000,1079.000,-1702.000,-1184.000,0.000,0.000,0
2026-01-31 11:56:19,1485494,954.000,6549.000,-1042.000,1120.000,-2095.000,-1607.000,0.000,0.000,0
2026-01-31 11:56:19,1485534,957.000,6847.000,-844.000,1100.000,-2235.000,-1775.000,0.000,0.000,0
2026-01-31 11:56:19,1485574,901.000,7310.000,-703.000,1180.000,-2201.000,-1784.000,0.000,0.000,0
2026-01-31 11:56:19,1485614,706.000,8088.000,-513.000,801.000,-2356.000,-2137.000,0.000,0.000,0
2026-01-31 11:56:19,1485654,851.000,8729.000,-965.000,261.000,-2165.000,-2492.000,0.000,0.000,0
2026-01-31 11:56:19,1485694,1299.000,9922.000,-1468.000,-42.000,-1782.000,-2690.000,0.000,0.000,0
2026-01-31 11:56:19,1485734,1500.000,10860.000,-1535.000,-533.000,-1269.000,-2173.000,0.000,0.000,0
2026-01-31 11:56:19,1485774,1541.000,11170.000,-2416.000,-1364.000,-582.000,-1161.000,0.000,0.000,0
2026-01-31 11:56:19,1485814,1381.000,9984.000,-3752.000,-3424.000,668.000,-90.000,0.000,0.000,0
2026-01-31 11:56:19,1485854,1196.000,8781.000,-3809.000,-2505.000,1379.000,-82.000,0.000,0.000,0
2026-01-31 11:56:19,1485900,623.000,6640.000,-2129.000,-1270.000,1744.000,-106.000,0.000,0.000,0
2026-01-31 11:56:19,1485934,468.000,6372.000,-1689.000,-607.000,1548.000,-140.000,0.000,0.000,0
2026-01-31 11:56:19,1485974,-427.000,5666.000,-1137.000,-774.000,1301.000,-377.000,0.000,0.000,0
2026-01-31 11:56:19,1486014,-975.000,6060.000,-1340.000,-1087.000,1245.000,-706.000,0.000,0.000,0
2026-01-31 11:56:20,1486054,-844.000,6432.000,-1227.000,-1113.000,1312.000,-601.000,0.000,0.000,0
2026-01-31 11:56:20,1486094,-678.000,6805.000,-1158.000,-1040.000,1554.000,-525.000,0.000,0.000,0
2026-01-31 11:56:20,1486134,-588.000,7858.000,-1161.000,-671.000,1760.000,-61.000,0.000,0.000,0
2026-01-31 11:56:20,1486174,-556.000,8616.000,-1042.000,-359.000,1753.000,166.000,0.000,0.000,0
2026-01-31 11:56:20,1486214,-653.000,9778.000,-1233.000,13.000,1631.000,247.000,0.000,0.000,0
2026-01-31 11:56:20,1486254,821.000,11206.000,-1948.000,200.000,1783.000,787.000,0.000,0.000,0
2026-01-31 11:56:20,1486294,977.000,9794.000,-814.000,1264.000,1294.000,580.000,0.000,0.000,0
2026-01-31 11:56:20,1486334,985.000,8601.000,-458.000,165.000,868.000,-545.000,0.000,0.000,0
2026-01-31 11:56:20,1486374,1282.000,8748.000,-1405.000,120.000,812.000,-887.000,0.000,0.000,0
2026-01-31 11:56:20,1486414,799.000,7411.000,-451.000,946.000,973.000,-753.000,0.000,0.000,0
2026-01-31 11:56:20,1486454,119.000,6015.000,406.000,818.000,1247.000,-577.000,0.000,0.000,0
2026-01-31 11:56:20,1486494,-555.000,5536.000,426.000,566.000,1257.000,-711.000,0.000,0.000,0
2026-01-31 11:56:20,1486534,-813.000,5978.000,315.000,346.000,1183.000,-757.000,0.000,0.000,0
2026-01-31 11:56:20,1486574,-842.000,6081.000,260.000,349.000,807.000,-568.000,0.000,0.000,0
2026-01-31 11:56:20,1486614,-690.000,7193.000,260.000,612.000,418.000,-22.000,0.000,0.000,0
2026-01-31 11:56:20,1486654,-654.000,8093.000,-22.000,561.000,-15.000,345.000,0.000,0.000,0
2026-01-31 11:56:20,1486694,-454.000,8757.000,-412.000,263.000,-301.000,188.000,0.000,0.000,0
2026-01-31 11:56:20,1486734,-178.000,9316.000,-927.000,467.000,-202.000,331.000,0.000,0.000,0
2026-01-31 11:56:20,1486774,-277.000,10306.000,-986.000,1695.000,-529.000,656.000,0.000,0.000,0
2026-01-31 11:56:20,1486814,-391.000,9856.000,-635.000,1535.000,-1057.000,1048.000,0.000,0.000,0
2026-01-31 11:56:20,1486854,-567.000,10421.000,-1272.000,-376.000,-1035.000,1410.000,0.000,0.000,0
2026-01-31 11:56:20,1486894,224.000,10514.000,-2458.000,-1919.000,-935.000,1714.000,0.000,0.000,0
2026-01-31 11:56:20,1486934,1261.000,9615.000,-2604.000,-2684.000,-593.000,1359.000,0.000,0.000,0
2026-01-31 11:56:20,1486974,1557.000,6736.000,-1836.000,-1816.000,-54.000,1042.000,0.000,0.000,0
2026-01-31 11:56:20,1487014,1115.000,6236.000,-1066.000,-659.000,17.000,-95.000,0.000,0.000,0
2026-01-31 11:56:21,1487054,99.000,5160.000,-428.000,-911.000,-49.000,-1084.000,0.000,0.000,0
2026-01-31 11:56:21,1487094,-263.000,5171.000,-610.000,-959.000,181.000,-1368.000,0.000,0.000,0
2026-01-31 11:56:21,1487134,-503.000,6274.000,-925.000,-654.000,304.000,-1359.000,0.000,0.000,0
2026-01-31 11:56:21,1487174,-518.000,7491.000,-526.000,-23.000,328.000,-1152.000,0.000,0.000,0
2026-01-31 11:56:21,1487214,123.000,9387.000,-976.000,-317.000,742.000,-578.000,0.000,0.000,0
2026-01-31 11:56:21,1487254,-8.000,8975.000,-844.000,-189.000,1072.000,-440.000,0.000,0.000,0
2026-01-31 11:56:21,1487294,60.000,9945.000,-655.000,312.000,1042.000,-31.000,0.000,0.000,0
2026-01-31 11:56:21,1487334,1067.000,11088.000,-1285.000,149.000,1551.000,626.000,0.000,0.000,0
2026-01-31 11:56:21,1487374,1098.000,9444.000,-672.000,736.000,1544.000,658.000,0.000,0.000,0
2026-01-31 11:56:21,1487414,1170.000,8056.000,-233.000,121.000,1207.000,-425.000,0.000,0.000,0
2026-01-31 11:56:21,1487454,1562.000,8547.000,-1292.000,-471.000,1641.000,-477.000,0.000,0.000,0
2026-01-31 11:56:21,1487494,1131.000,7597.000,-1460.000,-121.000,2124.000,-242.000,0.000,0.000,0
2026-01-31 11:56:21,1487534,143.000,5726.000,-136.000,549.000,2449.000,-84.000,0.000,0.000,0
2026-01-31 11:56:21,1487574,-677.000,5604.000,-69.000,934.000,2378.000,196.000,0.000,0.000,0
2026-01-31 11:56:21,1487614,-325.000,5915.000,-259.000,734.000,2256.000,122.000,0.000,0.000,0
2026-01-31 11:56:21,1487654,-435.000,5686.000,-105.000,962.000,2260.000,319.000,0.000,0.000,0
2026-01-31 11:56:21,1487694,-315.000,7097.000,152.000,2077.000,1843.000,1341.000,0.000,0.000,0
2026-01-31 11:56:21,1487734,-410.000,8181.000,176.000,1971.000,1099.000,1618.000,0.000,0.000,0
2026-01-31 11:56:21,1487774,-202.000,9008.000,-401.000,2070.000,471.000,2011.000,0.000,0.000,0
2026-01-31 11:56:21,1487814,347.000,10114.000,-1036.000,1696.000,280.000,1667.000,0.000,0.000,0
2026-01-31 11:56:21,1487854,310.000,10690.000,-1582.000,1112.000,476.000,1963.000,0.000,0.000,0
2026-01-31 11:56:21,1487898,469.000,10131.000,-1643.000,460.000,-338.000,1791.000,0.000,0.000,0
2026-01-31 11:56:21,1487934,460.000,9685.000,-1836.000,-1067.000,-927.000,1547.000,0.000,0.000,0
2026-01-31 11:56:21,1487974,686.000,9987.000,-2312.000,-1897.000,-1563.000,1838.000,0.000,0.000,0
2026-01-31 11:56:21,1488014,1272.000,7965.000,-2191.000,-2387.000,-1869.000,1816.000,0.000,0.000,0
2026-01-31 11:56:22,1488054,1988.000,6839.000,-2538.000,-1341.000,-1355.000,2132.000,0.000,0.000,0
2026-01-31 11:56:22,1488094,2342.000,6642.000,-1783.000,-1257.000,-1601.000,63.000,0.000,0.000,0
2026-01-31 11:56:22,1488134,1049.000,5185.000,-1125.000,-2314.000,-936.000,-1273.000,0.000,0.000,0
2026-01-31 11:56:22,1488174,619.000,6184.000,-1501.000,-1374.000,-395.000,-2334.000,0.000,0.000,0
2026-01-31 11:56:22,1488214,131.000,6141.000,-1640.000,-1957.000,-156.000,-3072.000,0.000,0.000,0
2026-01-31 11:56:22,1488254,280.000,7198.000,-1306.000,-593.000,-234.000,-3591.000,0.000,0.000,0
2026-01-31 11:56:22,1488294,1064.000,8601.000,-1777.000,-1015.000,-39.000,-3708.000,0.000,0.000,0
2026-01-31 11:56:22,1488334,824.000,9102.000,-666.000,12.000,68.000,-2814.000,0.000,0.000,0
2026-01-31 11:56:22,1488374,806.000,10182.000,-376.000,-607.000,122.000,-2199.000,0.000,0.000,0
2026-01-31 11:56:22,1488414,768.000,9899.000,-948.000,-786.000,328.000,-916.000,0.000,0.000,0
2026-01-31 11:56:22,1488454,834.000,8718.000,-360.000,155.000,177.000,-873.000,0.000,0.000,0
2026-01-31 11:56:22,1488494,1092.000,8296.000,-336.000,-138.000,481.000,-1196.000,0.000,0.000,0
2026-01-31 11:56:22,1488534,1535.000,8002.000,-832.000,-14.000,889.000,-606.000,0.000,0.000,0
2026-01-31 11:56:22,1488574,995.000,6898.000,-279.000,1132.000,1157.000,-402.000,0.000,0.000,0
2026-01-31 11:56:22,1488614,-116.000,6396.000,586.000,1187.000,1399.000,-279.000,0.000,0.000,0
2026-01-31 11:56:22,1488654,-1183.000,5779.000,477.000,15.000,1677.000,-410.000,0.000,0.000,0
2026-01-31 11:56:22,1488694,-1892.000,5753.000,72.000,-101.000,1335.000,-1201.000,0.000,0.000,0
2026-01-31 11:56:22,1488734,-1972.000,6538.000,439.000,811.000,621.000,-1450.000,0.000,0.000,0
2026-01-31 11:56:22,1488774,-1999.000,7362.000,485.000,784.000,123.000,-1667.000,0.000,0.000,0
2026-01-31 11:56:22,1488814,-1911.000,8830.000,305.000,993.000,-499.000,-1437.000,0.000,0.000,0
2026-01-31 11:56:22,1488854,-1531.000,9365.000,188.000,218.000,-1040.000,-1305.000,0.000,0.000,0
2026-01-31 11:56:22,1488894,-1068.000,10009.000,-654.000,-275.000,-907.000,-761.000,0.000,0.000,0
2026-01-31 11:56:22,1488934,-1006.000,10711.000,-1610.000,491.000,-1064.000,166.000,0.000,0.000,0
2026-01-31 11:56:22,1488974,-1392.000,10053.000,-1035.000,867.000,-1672.000,965.000,0.000,0.000,0
2026-01-31 11:56:22,1489014,-1503.000,9772.000,-1477.000,-226.000,-1648.000,1812.000,0.000,0.000,0
2026-01-31 11:56:23,1489054,-1005.000,9889.000,-2385.000,-901.000,-1745.000,2363.000,0.000,0.000,0
2026-01-31 11:56:23,1489094,-249.000,8034.000,-1691.000,-1066.000,-1825.000,1888.000,0.000,0.000,0
2026-01-31 11:56:23,1489134,138.000,6562.000,-512.000,-1004.000,-1620.000,1168.000,0.000,0.000,0
2026-01-31 11:56:23,1489174,-315.000,6045.000,-110.000,-1640.000,-1327.000,96.000,0.000,0.000,0
2026-01-31 11:56:23,1489214,-852.000,5524.000,-55.000,-2080.000,-1058.000,-569.000,0.000,0.000,0
2026-01-31 11:56:23,1489254,-1202.000,5802.000,-425.000,-2012.000,-399.000,-437.000,0.000,0.000,0
2026-01-31 11:56:23,1489294,-1622.000,6754.000,-354.000,-1392.000,41.000,-43.000,0.000,0.000,0
2026-01-31 11:56:23,1489334,-1521.000,7875.000,-384.000,-1765.000,304.000,293.000,0.000,0.000,0
2026-01-31 11:56:23,1489374,-759.000,8643.000,-456.000,-1415.000,537.000,527.000,0.000,0.000,0
2026-01-31 11:56:23,1489414,-23.000,8931.000,-51.000,-866.000,678.000,542.000,0.000,0.000,0
2026-01-31 11:56:23,1489454,890.000,10949.000,-435.000,-544.000,1412.000,867.000,0.000,0.000,0
2026-01-31 11:56:23,1489494,795.000,9087.000,427.000,223.000,1912.000,964.000,0.000,0.000,0
2026-01-31 11:56:23,1489534,647.000,8158.000,925.000,731.000,1722.000,171.000,0.000,0.000,0
2026-01-31 11:56:23,1489574,794.000,8093.000,-107.000,-31.000,2016.000,368.000,0.000,0.000,0
2026-01-31 11:56:23,1489614,481.000,7356.000,-305.000,1048.000,1907.000,402.000,0.000,0.000,0
2026-01-31 11:56:23,1489654,-100.000,6871.000,-193.000,1519.000,2039.000,504.000,0.000,0.000,0
2026-01-31 11:56:23,1489694,-695.000,6145.000,365.000,1503.000,1899.000,491.000,0.000,0.000,0
2026-01-31 11:56:23,1489734,-1346.000,5618.000,649.000,1264.000,1610.000,322.000,0.000,0.000,0
2026-01-31 11:56:23,1489774,-1462.000,6451.000,206.000,1113.000,1351.000,303.000,0.000,0.000,0
2026-01-31 11:56:23,1489814,-1399.000,7425.000,95.000,889.000,1127.000,226.000,0.000,0.000,0
2026-01-31 11:56:23,1489854,-933.000,8333.000,604.000,1402.000,431.000,92.000,0.000,0.000,0
2026-01-31 11:56:23,1489899,-501.000,9546.000,425.000,637.000,-49.000,102.000,0.000,0.000,0
2026-01-31 11:56:23,1489934,-485.000,9882.000,274.000,557.000,-206.000,49.000,0.000,0.000,0
2026-01-31 11:56:23,1489974,-609.000,10668.000,-252.000,82.000,-353.000,62.000,0.000,0.000,0
2026-01-31 11:56:23,1490014,-562.000,10867.000,-779.000,275.000,-622.000,438.000,0.000,0.000,0
2026-01-31 11:56:24,1490054,-198.000,9916.000,-459.000,-142.000,-1101.000,667.000,0.000,0.000,0
2026-01-31 11:56:24,1490094,-447.000,9649.000,-949.000,-1306.000,-1049.000,939.000,0.000,0.000,0
2026-01-31 11:56:24,1490134,-117.000,9159.000,-1548.000,-1686.000,-1371.000,846.000,0.000,0.000,0
2026-01-31 11:56:24,1490174,316.000,8588.000,-1465.000,-1329.000,-1624.000,654.000,0.000,0.000,0
2026-01-31 11:56:24,1490214,464.000,6852.000,-504.000,-975.000,-1646.000,548.000,0.000,0.000,0
2026-01-31 11:56:24,1490254,109.000,6369.000,58.000,-1113.000,-1785.000,-211.000,0.000,0.000,0
2026-01-31 11:56:24,1490294,-596.000,5978.000,-84.000,-1567.000,-1578.000,-607.000,0.000,0.000,0
2026-01-31 11:56:24,1490334,-733.000,6238.000,-250.000,-1559.000,-1552.000,-771.000,0.000,0.000,0
2026-01-31 11:56:24,1490374,-757.000,6273.000,-53.000,-1361.000,-1437.000,-916.000,0.000,0.000,0
2026-01-31 11:56:24,1490414,-882.000,7295.000,-246.000,-956.000,-1050.000,-674.000,0.000,0.000,0
2026-01-31 11:56:24,1490454,-481.000,8593.000,-580.000,-784.000,-659.000,-374.000,0.000,0.000,0
2026-01-31 11:56:24,1490494,-326.000,8541.000,7.000,-172.000,-308.000,-319.000,0.000,0.000,0
2026-01-31 11:56:24,1490534,119.000,9929.000,-26.000,63.000,-50.000,-196.000,0.000,0.000,0
2026-01-31 11:56:24,1490574,779.000,10443.000,-545.000,552.000,590.000,224.000,0.000,0.000,0
2026-01-31 11:56:24,1490614,549.000,8724.000,529.000,2369.000,464.000,-169.000,0.000,0.000,0
2026-01-31 11:56:24,1490654,1028.000,9154.000,203.000,1193.000,499.000,-432.000,0.000,0.000,0
2026-01-31 11:56:24,1490694,1502.000,8770.000,-271.000,702.000,451.000,-480.000,0.000,0.000,0
2026-01-31 11:56:24,1490734,1548.000,7441.000,41.000,724.000,460.000,-495.000,0.000,0.000,0
2026-01-31 11:56:24,1490774,568.000,6583.000,557.000,1252.000,564.000,-391.000,0.000,0.000,0
2026-01-31 11:56:24,1490814,-432.000,6266.000,480.000,746.000,737.000,-392.000,0.000,0.000,0
2026-01-31 11:56:24,1490854,-1056.000,6408.000,410.000,550.000,753.000,-511.000,0.000,0.000,0
2026-01-31 11:56:24,1490894,-1468.000,6567.000,750.000,458.000,426.000,-821.000,0.000,0.000,0
2026-01-31 11:56:24,1490934,-1590.000,7449.000,1064.000,318.000,98.000,-907.000,0.000,0.000,0
2026-01-31 11:56:24,1490974,-2158.000,8249.000,915.000,-248.000,-568.000,-1226.000,0.000,0.000,0
2026-01-31 11:56:24,1491014,-2479.000,9334.000,703.000,-254.000,-1184.000,-1579.000,0.000,0.000,0
2026-01-31 11:56:25,1491054,-2242.000,9508.000,356.000,-678.000,-1536.000,-2001.000,0.000,0.000,0
2026-01-31 11:56:25,1491094,-2586.000,10028.000,-286.000,-462.000,-1694.000,-2370.000,0.000,0.000,0
2026-01-31 11:56:25,1491134,-2778.000,10524.000,-649.000,200.000,-2212.000,-2127.000,0.000,0.000,0
2026-01-31 11:56:25,1491174,-2701.000,9601.000,-716.000,-153.000,-3166.000,-1935.000,0.000,0.000,0
2026-01-31 11:56:25,1491214,-2690.000,9729.000,-1514.000,-1241.000,-3671.000,-1570.000,0.000,0.000,0
2026-01-31 11:56:25,1491254,-1729.000,9855.000,-1770.000,-830.000,-4169.000,-1169.000,0.000,0.000,0
2026-01-31 11:56:25,1491294,-958.000,8613.000,-946.000,-1056.000,-4144.000,-1201.000,0.000,0.000,0
2026-01-31 11:56:25,1491334,-1092.000,6682.000,-310.000,-1309.000,-3650.000,-1376.000,0.000,0.000,0
2026-01-31 11:56:25,1491374,-1175.000,5384.000,878.000,-1072.000,-3467.000,-1547.000,0.000,0.000,0
2026-01-31 11:56:25,1491414,-1613.000,4958.000,687.000,-1809.000,-2618.000,-1311.000,0.000,0.000,0
2026-01-31 11:56:25,1491454,-1912.000,4947.000,198.000,-962.000,-2142.000,-938.000,0.000,0.000,0
2026-01-31 11:56:25,1491494,-2213.000,6333.000,450.000,-701.000,-1924.000,-358.000,0.000,0.000,0
2026-01-31 11:56:25,1491534,-2791.000,7003.000,299.000,-617.000,-1587.000,493.000,0.000,0.000,0
2026-01-31 11:56:25,1491574,-2415.000,7396.000,652.000,857.000,-1797.000,1068.000,0.000,0.000,0
2026-01-31 11:56:25,1491614,-2082.000,8757.000,1455.000,2212.000,-2131.000,1255.000,0.000,0.000,0
2026-01-31 11:56:25,1491654,-1670.000,10271.000,867.000,1252.000,-2237.000,1863.000,0.000,0.000,0
2026-01-31 11:56:25,1491694,-714.000,9641.000,1356.000,2308.000,-1875.000,2596.000,0.000,0.000,0
2026-01-31 11:56:25,1491734,238.000,9399.000,1923.000,3639.000,-863.000,2720.000,0.000,0.000,0
2026-01-31 11:56:25,1491774,718.000,8508.000,677.000,-77.000,1886.000,2612.000,0.000,0.000,0
2026-01-31 11:56:25,1491814,1340.000,8501.000,-547.000,1436.000,3067.000,2389.000,0.000,0.000,0
2026-01-31 11:56:25,1491854,-188.000,8327.000,-431.000,-4.000,2656.000,1175.000,0.000,0.000,0
2026-01-31 11:56:25,1491899,-1584.000,6200.000,657.000,888.000,1448.000,755.000,0.000,0.000,0
2026-01-31 11:56:25,1491934,-1628.000,6192.000,818.000,463.000,1193.000,422.000,0.000,0.000,0
2026-01-31 11:56:25,1491974,-1102.000,5497.000,1073.000,-686.000,933.000,208.000,0.000,0.000,0
2026-01-31 11:56:25,1492014,-827.000,5907.000,1306.000,-245.000,776.000,27.000,0.000,0.000,0
2026-01-31 11:56:26,1492054,-176.000,7050.000,1598.000,161.000,877.000,214.000,0.000,0.000,0
2026-01-31 11:56:26,1492094,183.000,7736.000,1992.000,-213.000,965.000,812.000,0.000,0.000,0
2026-01-31 11:56:26,1492134,1486.000,8792.000,2063.000,-1172.000,409.000,2010.000,0.000,0.000,0
2026-01-31 11:56:26,1492174,2006.000,8994.000,1781.000,-1758.000,782.000,2750.000,0.000,0.000,0
2026-01-31 11:56:26,1492214,2448.000,9375.000,1248.000,-1572.000,1374.000,4007.000,0.000,0.000,0
2026-01-31 11:56:26,1492254,3045.000,10520.000,1101.000,-2101.000,1517.000,5755.000,0.000,0.000,0
2026-01-31 11:56:26,1492294,3174.000,9243.000,782.000,-3644.000,1263.000,7511.000,0.000,0.000,0
2026-01-31 11:56:26,1492334,3138.000,9174.000,-24.000,-3978.000,141.000,9263.000,0.000,0.000,0
2026-01-31 11:56:26,1492374,3665.000,8110.000,-47.000,-3594.000,-1833.000,11421.000,0.000,0.000,0
2026-01-31 11:56:26,1492414,5293.000,7398.000,-270.000,-3767.000,-3440.000,12762.000,0.000,0.000,0
2026-01-31 11:56:26,1492454,5098.000,5783.000,-8.000,-3690.000,-5097.000,11602.000,0.000,0.000,0
2026-01-31 11:56:26,1492494,5142.000,4456.000,-226.000,-2396.000,-6666.000,9713.000,0.000,0.000,0
2026-01-31 11:56:26,1492534,5067.000,5601.000,-360.000,1868.000,-7632.000,5912.000,0.000,0.000,0
2026-01-31 11:56:26,1492574,4428.000,6053.000,-973.000,1867.000,-8271.000,4297.000,0.000,0.000,0
2026-01-31 11:56:26,1492614,6085.000,7405.000,-87.000,800.000,-10214.000,2545.000,0.000,0.000,0
2026-01-31 11:56:26,1492654,6956.000,6918.000,-105.000,-968.000,-9091.000,440.000,0.000,0.000,0
2026-01-31 11:56:26,1492694,7633.000,7185.000,-1218.000,1380.000,-8153.000,-1525.000,0.000,0.000,0
2026-01-31 11:56:26,1492734,8490.000,7873.000,-959.000,1733.000,-7507.000,-2722.000,0.000,0.000,0
2026-01-31 11:56:26,1492774,8994.000,8039.000,-1057.000,-1360.000,-6333.000,-4321.000,0.000,0.000,0
2026-01-31 11:56:26,1492814,8760.000,6345.000,-1849.000,-1445.000,-4288.000,-4561.000,0.000,0.000,0
2026-01-31 11:56:26,1492854,8753.000,5042.000,-2457.000,-1443.000,-3656.000,-5618.000,0.000,0.000,0
2026-01-31 11:56:26,1492894,4380.000,2771.000,-3550.000,-4011.000,-1643.000,-5279.000,0.000,0.000,0
2026-01-31 11:56:26,1492934,3079.000,3394.000,-2844.000,-3165.000,-1359.000,-3874.000,0.000,0.000,0
2026-01-31 11:56:26,1492974,2648.000,4267.000,-2245.000,-2400.000,-1019.000,-1839.000,0.000,0.000,0
2026-01-31 11:56:26,1493014,1766.000,3961.000,-2405.000,-2962.000,-1558.000,-1761.000,0.000,0.000,0
2026-01-31 11:56:27,1493054,1178.000,4398.000,-1583.000,-1373.000,-2149.000,-1720.000,0.000,0.000,0
2026-01-31 11:56:27,1493094,1723.000,4851.000,-2267.000,-1451.000,-2247.000,-1816.000,0.000,0.000,0
2026-01-31 11:56:27,1493134,2348.000,4737.000,-1968.000,-875.000,-2537.000,-1374.000,0.000,0.000,0
2026-01-31 11:56:27,1493174,4144.000,6257.000,-2287.000,215.000,-1851.000,-1341.000,0.000,0.000,0
2026-01-31 11:56:27,1493214,6046.000,6567.000,-3099.000,-462.000,-1431.000,-1186.000,0.000,0.000,0
2026-01-31 11:56:27,1493254,8241.000,6169.000,-2732.000,433.000,287.000,538.000,0.000,0.000,0
2026-01-31 11:56:27,1493294,7518.000,7988.000,-958.000,-127.000,1007.000,2360.000,0.000,0.000,0
2026-01-31 11:56:27,1493334,4792.000,7014.000,-1645.000,-1765.000,-62.000,3437.000,0.000,0.000,0
2026-01-31 11:56:27,1493374,2347.000,8112.000,-1129.000,2567.000,-1925.000,5187.000,0.000,0.000,0
2026-01-31 11:56:27,1493414,266.000,10287.000,-3887.000,2916.000,-2733.000,5096.000,0.000,0.000,0
2026-01-31 11:56:27,1493454,-4325.000,5904.000,-8163.000,340.000,-3882.000,4762.000,0.000,0.000,0
2026-01-31 11:56:27,1493494,-3346.000,6159.000,-12206.000,4789.000,-5954.000,4202.000,0.000,0.000,0
2026-01-31 11:56:27,1493534,-6189.000,7874.000,-9386.000,-2815.000,-8976.000,4719.000,0.000,0.000,0
2026-01-31 11:56:27,1493574,142.000,4724.000,-7145.000,-8017.000,-12423.000,5120.000,0.000,0.000,0
2026-01-31 11:56:27,1493614,994.000,4119.000,-3851.000,-7042.000,-11684.000,2667.000,0.000,0.000,0
2026-01-31 11:56:27,1493654,6799.000,-238.000,790.000,-7896.000,-7855.000,5200.000,0.000,0.000,0
2026-01-31 11:56:27,1493694,7237.000,642.000,185.000,-658.000,-3456.000,3995.000,0.000,0.000,0
2026-01-31 11:56:27,1493734,5870.000,1615.000,-56.000,3864.000,-665.000,4912.000,0.000,0.000,0
2026-01-31 11:56:27,1493774,8251.000,-1442.000,-5234.000,9143.000,651.000,10353.000,0.000,0.000,0
2026-01-31 11:56:27,1493814,10999.000,7502.000,-9371.000,27053.000,5034.000,7703.000,0.000,0.000,0
2026-01-31 11:56:27,1493854,7935.000,2129.000,-8624.000,15112.000,3842.000,2456.000,0.000,0.000,0
2026-01-31 11:56:27,1493894,9052.000,-2346.000,-11674.000,26710.000,3753.000,-4599.000,0.000,0.000,0
2026-01-31 11:56:27,1493934,5927.000,-1026.000,-15295.000,32713.000,6716.000,-10496.000,0.000,0.000,0
2026-01-31 11:56:27,1493974,4615.000,-5011.000,-11152.000,32713.000,2434.000,-8966.000,0.000,0.000,0
2026-01-31 11:56:27,1494014,3770.000,-1485.000,-956.000,30836.000,-838.000,-8875.000,0.000,0.000,0
2026-01-31 11:56:28,1494054,9025.000,-9771.000,2011.000,17013.000,-1481.000,-3999.000,0.000,0.000,0
2026-01-31 11:56:28,1494094,7395.000,-3358.000,5156.000,18702.000,-347.000,-4352.000,0.000,0.000,0
2026-01-31 11:56:28,1494134,7054.000,-2076.000,2004.000,18758.000,1236.000,-4677.000,0.000,0.000,0
2026-01-31 11:56:28,1494174,7247.000,518.000,5242.000,11877.000,1853.000,-8580.000,0.000,0.000,0
2026-01-31 11:56:28,1494214,7921.000,-729.000,-2287.000,3403.000,3942.000,-6271.000,0.000,0.000,0
2026-01-31 11:56:28,1494254,7470.000,2475.000,-153.000,1415.000,1805.000,-12651.000,0.000,0.000,0
2026-01-31 11:56:28,1494294,8202.000,8561.000,350.000,-8708.000,806.000,-14040.000,0.000,0.000,0
2026-01-31 11:56:28,1494334,9002.000,11375.000,6129.000,-23861.000,824.000,-16813.000,0.000,0.000,0
2026-01-31 11:56:28,1494374,9415.000,8281.000,3797.000,32721.000,6636.000,-18029.000,0.000,0.000,0
2026-01-31 11:56:28,1494414,6537.000,1289.000,806.000,-31365.000,12179.000,-15353.000,0.000,0.000,0
2026-01-31 11:56:28,1494454,3483.000,1757.000,2891.000,-17576.000,9228.000,-16335.000,0.000,0.000,0
2026-01-31 11:56:28,1494494,8302.000,-2876.000,10157.000,-15490.000,3901.000,-17667.000,0.000,0.000,0
2026-01-31 11:56:28,1494534,9319.000,14289.000,19854.000,19834.000,11244.000,8018.000,0.000,0.000,0
2026-01-31 11:56:28,1494574,7300.000,12218.000,13252.000,-13224.000,-2576.000,-15615.000,0.000,0.000,0
2026-01-31 11:56:28,1494614,9346.000,6054.000,9968.000,-21154.000,463.000,-8368.000,0.000,0.000,0
2026-01-31 11:56:28,1494654,10047.000,4645.000,10475.000,-8097.000,3725.000,-2364.000,0.000,0.000,0
2026-01-31 11:56:28,1494694,6741.000,-930.000,10139.000,-10767.000,2995.000,-8314.000,0.000,0.000,0
2026-01-31 11:56:28,1494734,2293.000,-3532.000,8629.000,-9201.000,479.000,-11101.000,0.000,0.000,0
2026-01-31 11:56:28,1494774,-886.000,-455.000,5986.000,-7394.000,1655.000,-8324.000,0.000,0.000,0
2026-01-31 11:56:28,1494814,-2991.000,-498.000,1822.000,-8052.000,4350.000,-414.000,0.000,0.000,0
2026-01-31 11:56:28,1494854,-187.000,-1109.000,3604.000,-2402.000,8263.000,4415.000,0.000,0.000,0
2026-01-31 11:56:28,1494894,4727.000,4713.000,3031.000,7491.000,16326.000,6249.000,0.000,0.000,0
2026-01-31 11:56:28,1494934,3802.000,2739.000,1911.000,10267.000,23260.000,4520.000,0.000,0.000,0
2026-01-31 11:56:28,1494974,436.000,6128.000,2584.000,19883.000,26083.000,-5102.000,0.000,0.000,0
2026-01-31 11:56:28,1495014,-2055.000,2294.000,-53.000,16180.000,26447.000,-9598.000,0.000,0.000,0
2026-01-31 11:56:29,1495054,-8580.000,1516.000,-645.000,18087.000,20792.000,-14821.000,0.000,0.000,0
2026-01-31 11:56:29,1495094,-9364.000,4327.000,2113.000,19721.000,15786.000,-15272.000,0.000,0.000,0
2026-01-31 11:56:29,1495134,-9694.000,4510.000,4561.000,9085.000,12101.000,-14360.000,0.000,0.000,0
2026-01-31 11:56:29,1495174,-9443.000,-1010.000,7211.000,2180.000,9286.000,-8709.000,0.000,0.000,0
2026-01-31 11:56:29,1495214,-13210.000,-4487.000,4670.000,-1798.000,5447.000,-4307.000,0.000,0.000,0
2026-01-31 11:56:29,1495254,-7919.000,-1835.000,3500.000,-2809.000,1947.000,-1886.000,0.000,0.000,0
2026-01-31 11:56:29,1495294,-7931.000,-4972.000,1498.000,-4990.000,1401.000,1462.000,0.000,0.000,0
2026-01-31 11:56:29,1495334,-8583.000,-3206.000,183.000,-2660.000,-1124.000,3433.000,0.000,0.000,0
2026-01-31 11:56:29,1495374,-7563.000,-3908.000,-150.000,-2372.000,-3957.000,3130.000,0.000,0.000,0
2026-01-31 11:56:29,1495414,-7852.000,-2079.000,-197.000,-2402.000,-4061.000,2549.000,0.000,0.000,0
2026-01-31 11:56:29,1495454,-6910.000,-1436.000,-1008.000,-5342.000,-3435.000,2940.000,0.000,0.000,0
2026-01-31 11:56:29,1495494,-9890.000,-2767.000,-2720.000,-6016.000,-5087.000,4229.000,0.000,0.000,0
2026-01-31 11:56:29,1495534,-5775.000,-5293.000,2808.000,-330.000,-8940.000,4645.000,0.000,0.000,0
2026-01-31 11:56:29,1495574,-7248.000,64.000,1430.000,-3756.000,-7829.000,9048.000,0.000,0.000,0
2026-01-31 11:56:29,1495614,-7408.000,2219.000,-1151.000,1041.000,-8271.000,14838.000,0.000,0.000,0
2026-01-31 11:56:29,1495654,-7086.000,6137.000,-864.000,8233.000,-7720.000,19228.000,0.000,0.000,0
2026-01-31 11:56:29,1495694,-11348.000,4394.000,427.000,9825.000,-7264.000,20638.000,0.000,0.000,0
2026-01-31 11:56:29,1495735,-9879.000,13425.000,8843.000,17561.000,-5587.000,15079.000,0.000,0.000,0
2026-01-31 11:56:29,1495774,-16763.000,14082.000,9628.000,3791.000,-1230.000,1987.000,0.000,0.000,0
2026-01-31 11:56:29,1495814,-12009.000,3941.000,7100.000,-3603.000,-1762.000,-9329.000,0.000,0.000,0
2026-01-31 11:56:29,1495854,-7097.000,2373.000,2083.000,-5949.000,-1688.000,-14128.000,0.000,0.000,0
2026-01-31 11:56:29,1495894,-8448.000,1715.000,-4213.000,-3109.000,-2165.000,-17822.000,0.000,0.000,0
2026-01-31 11:56:29,1495934,-2306.000,3115.000,1030.000,1197.000,-3489.000,-17382.000,0.000,0.000,0
2026-01-31 11:56:29,1495974,-1656.000,-491.000,1340.000,2079.000,-5545.000,-10991.000,0.000,0.000,0
2026-01-31 11:56:29,1496014,-2247.000,2157.000,3677.000,7325.000,-6225.000,-4816.000,0.000,0.000,0
2026-01-31 11:56:30,1496054,-3259.000,5504.000,5397.000,6085.000,-6285.000,-1260.000,0.000,0.000,0
2026-01-31 11:56:30,1496094,-3520.000,3440.000,5473.000,3285.000,-4179.000,1278.000,0.000,0.000,0
2026-01-31 11:56:30,1496134,-3452.000,3356.000,6494.000,3723.000,-1135.000,4472.000,0.000,0.000,0
2026-01-31 11:56:30,1496174,-3469.000,4654.000,5421.000,5987.000,872.000,8088.000,0.000,0.000,0
2026-01-31 11:56:30,1496214,-2228.000,5947.000,4436.000,8912.000,-941.000,11883.000,0.000,0.000,0
2026-01-31 11:56:30,1496254,575.000,7003.000,3992.000,11189.000,-2006.000,16056.000,0.000,0.000,0
2026-01-31 11:56:30,1496294,716.000,8322.000,3433.000,8842.000,-420.000,18034.000,0.000,0.000,0
2026-01-31 11:56:30,1496334,1001.000,6344.000,2690.000,-3617.000,1737.000,18408.000,0.000,0.000,0
2026-01-31 11:56:30,1496374,-1021.000,4213.000,26.000,-670.000,302.000,13827.000,0.000,0.000,0
2026-01-31 11:56:30,1496414,455.000,6885.000,2300.000,6510.000,-2306.000,9391.000,0.000,0.000,0
2026-01-31 11:56:30,1496454,1084.000,8451.000,3538.000,7304.000,686.000,8826.000,0.000,0.000,0
2026-01-31 11:56:30,1496494,-513.000,9791.000,4310.000,9466.000,-1070.000,4398.000,0.000,0.000,0
2026-01-31 11:56:30,1496534,394.000,11836.000,5832.000,5428.000,-1751.000,1508.000,0.000,0.000,0
2026-01-31 11:56:30,1496574,377.000,8857.000,4991.000,-70.000,-1551.000,-1924.000,0.000,0.000,0
2026-01-31 11:56:30,1496614,692.000,10458.000,4083.000,-91.000,-1176.000,-3744.000,0.000,0.000,0
2026-01-31 11:56:30,1496654,1092.000,12880.000,3327.000,-2043.000,-703.000,-4049.000,0.000,0.000,0
2026-01-31 11:56:30,1496694,2368.000,13300.000,2561.000,-3621.000,-1116.000,-3682.000,0.000,0.000,0
2026-01-31 11:56:30,1496734,1731.000,12636.000,1902.000,-6282.000,-1242.000,-2307.000,0.000,0.000,0
2026-01-31 11:56:30,1496774,1446.000,9310.000,1414.000,-6695.000,-1482.000,-1021.000,0.000,0.000,0
2026-01-31 11:56:30,1496814,1720.000,6661.000,1288.000,-5101.000,-1875.000,-55.000,0.000,0.000,0
2026-01-31 11:56:30,1496854,1987.000,4476.000,1829.000,-4430.000,-1997.000,-258.000,0.000,0.000,0
2026-01-31 11:56:30,1496894,1857.000,3186.000,2112.000,-5126.000,-1988.000,-1015.000,0.000,0.000,0
2026-01-31 11:56:30,1496934,1862.000,3644.000,1901.000,-5903.000,-1181.000,-1098.000,0.000,0.000,0
2026-01-31 11:56:30,1496974,717.000,3767.000,2545.000,-5708.000,-1305.000,-277.000,0.000,0.000,0
2026-01-31 11:56:30,1497014,1366.000,5390.000,4189.000,-2824.000,-1069.000,-22.000,0.000,0.000,0
2026-01-31 11:56:31,1497054,1769.000,7914.000,4458.000,-1170.000,-105.000,638.000,0.000,0.000,0
2026-01-31 11:56:31,1497094,1860.000,8115.000,5018.000,2829.000,525.000,449.000,0.000,0.000,0
2026-01-31 11:56:31,1497134,1998.000,9235.000,5389.000,3560.000,1284.000,303.000,0.000,0.000,0
2026-01-31 11:56:31,1497174,1568.000,7807.000,5567.000,3754.000,1636.000,1392.000,0.000,0.000,0
2026-01-31 11:56:31,1497214,1440.000,7962.000,5809.000,7214.000,731.000,936.000,0.000,0.000,0
2026-01-31 11:56:31,1497254,1845.000,9628.000,5784.000,6686.000,295.000,-539.000,0.000,0.000,0
2026-01-31 11:56:31,1497294,2262.000,9195.000,5576.000,356.000,863.000,-959.000,0.000,0.000,0
2026-01-31 11:56:31,1497334,690.000,6257.000,4206.000,-1282.000,1503.000,-951.000,0.000,0.000,0
2026-01-31 11:56:31,1497374,-624.000,4764.000,4438.000,1415.000,1417.000,-1298.000,0.000,0.000,0
2026-01-31 11:56:31,1497414,-648.000,3438.000,3839.000,3156.000,1952.000,-1401.000,0.000,0.000,0
2026-01-31 11:56:31,1497454,-1073.000,3458.000,3224.000,5880.000,2108.000,-1475.000,0.000,0.000,0
2026-01-31 11:56:31,1497494,-170.000,5843.000,2848.000,6924.000,2152.000,-2114.000,0.000,0.000,0
2026-01-31 11:56:31,1497534,-314.000,6842.000,2486.000,4355.000,2394.000,-417.000,0.000,0.000,0
2026-01-31 11:56:31,1497574,864.000,10132.000,1462.000,2287.000,2444.000,-764.000,0.000,0.000,0
2026-01-31 11:56:31,1497614,1438.000,8860.000,1608.000,-550.000,2743.000,-406.000,0.000,0.000,0
2026-01-31 11:56:31,1497654,607.000,8506.000,1637.000,962.000,1842.000,-32.000,0.000,0.000,0
2026-01-31 11:56:31,1497694,1635.000,10188.000,761.000,-236.000,391.000,-136.000,0.000,0.000,0
2026-01-31 11:56:31,1497734,986.000,10577.000,1045.000,510.000,691.000,375.000,0.000,0.000,0
2026-01-31 11:56:31,1497774,-421.000,11087.000,1347.000,-398.000,-222.000,695.000,0.000,0.000,0
2026-01-31 11:56:31,1497814,-135.000,10269.000,708.000,-3272.000,515.000,2170.000,0.000,0.000,0
2026-01-31 11:56:31,1497854,-852.000,9341.000,368.000,-3450.000,780.000,3354.000,0.000,0.000,0
2026-01-31 11:56:31,1497894,-468.000,8872.000,1721.000,-3435.000,-1150.000,4308.000,0.000,0.000,0
2026-01-31 11:56:31,1497934,-20.000,8295.000,2076.000,-6520.000,-144.000,4240.000,0.000,0.000,0
2026-01-31 11:56:31,1497974,1429.000,6077.000,1571.000,-8760.000,-1050.000,3820.000,0.000,0.000,0
2026-01-31 11:56:31,1498014,3298.000,5703.000,3315.000,-11284.000,-1783.000,5084.000,0.000,0.000,0
2026-01-31 11:56:32,1498054,3327.000,4992.000,4018.000,-10873.000,-643.000,4321.000,0.000,0.000,0
2026-01-31 11:56:32,1498115,4921.000,1002.000,4126.000,-10298.000,389.000,2768.000,0.000,0.000,0
2026-01-31 11:56:32,1498134,3723.000,1225.000,5596.000,-8207.000,1173.000,2389.000,0.000,0.000,0
2026-01-31 11:56:32,1498174,2916.000,5346.000,6514.000,-7418.000,1307.000,4573.000,0.000,0.000,0
2026-01-31 11:56:32,1498214,4763.000,720.000,5815.000,-5912.000,1345.000,3343.000,0.000,0.000,0
2026-01-31 11:56:32,1498254,3131.000,1463.000,7131.000,-1805.000,1311.000,5125.000,0.000,0.000,0
2026-01-31 11:56:32,1498294,6263.000,2342.000,7351.000,1818.000,384.000,4813.000,0.000,0.000,0
2026-01-31 11:56:32,1498334,5253.000,-799.000,5714.000,2144.000,604.000,4032.000,0.000,0.000,0
2026-01-31 11:56:32,1498374,6645.000,227.000,6669.000,5790.000,1513.000,1956.000,0.000,0.000,0
2026-01-31 11:56:32,1498414,5117.000,990.000,5285.000,11063.000,1953.000,2065.000,0.000,0.000,0
2026-01-31 11:56:32,1498454,2473.000,4399.000,5626.000,10483.000,2584.000,2632.000,0.000,0.000,0
2026-01-31 11:56:32,1498494,1358.000,3456.000,4006.000,11446.000,3848.000,683.000,0.000,0.000,0
2026-01-31 11:56:32,1498534,898.000,5765.000,3247.000,10475.000,4314.000,-1181.000,0.000,0.000,0
2026-01-31 11:56:32,1498574,982.000,5634.000,1313.000,9896.000,4475.000,-2599.000,0.000,0.000,0
2026-01-31 11:56:32,1498614,-1357.000,8723.000,1545.000,11166.000,3094.000,-5536.000,0.000,0.000,0
2026-01-31 11:56:32,1498654,680.000,8599.000,2519.000,6083.000,-761.000,-6862.000,0.000,0.000,0
2026-01-31 11:56:32,1498694,-731.000,10726.000,2698.000,5029.000,-2574.000,-7334.000,0.000,0.000,0
2026-01-31 11:56:32,1498734,-654.000,9603.000,2581.000,-8.000,-4798.000,-5563.000,0.000,0.000,0
2026-01-31 11:56:32,1498774,327.000,10104.000,2691.000,-334.000,-5320.000,-5523.000,0.000,0.000,0
2026-01-31 11:56:32,1498814,769.000,10228.000,1962.000,-1695.000,-6807.000,-4084.000,0.000,0.000,0
2026-01-31 11:56:32,1498854,1255.000,8881.000,2366.000,-3921.000,-8849.000,-1671.000,0.000,0.000,0
2026-01-31 11:56:32,1498894,2283.000,7550.000,449.000,-1748.000,-8172.000,-759.000,0.000,0.000,0
2026-01-31 11:56:32,1498934,1397.000,6577.000,-1113.000,977.000,-8819.000,1398.000,0.000,0.000,0
2026-01-31 11:56:32,1498974,1064.000,7205.000,1748.000,4529.000,-8948.000,1534.000,0.000,0.000,0
2026-01-31 11:56:32,1499014,150.000,5300.000,403.000,4062.000,-7014.000,1842.000,0.000,0.000,0
2026-01-31 11:56:33,1499054,1195.000,7361.000,3006.000,5568.000,-5950.000,148.000,0.000,0.000,0
2026-01-31 11:56:33,1499094,-49.000,6002.000,1947.000,3693.000,-2538.000,-647.000,0.000,0.000,0
2026-01-31 11:56:33,1499134,419.000,9964.000,2088.000,6655.000,-2053.000,-853.000,0.000,0.000,0
2026-01-31 11:56:33,1499174,782.000,11357.000,2704.000,2901.000,-1011.000,-1699.000,0.000,0.000,0
2026-01-31 11:56:33,1499214,1074.000,10450.000,1313.000,627.000,152.000,-1411.000,0.000,0.000,0
2026-01-31 11:56:33,1499254,1410.000,10039.000,1050.000,1759.000,194.000,-1290.000,0.000,0.000,0
2026-01-31 11:56:33,1499294,1957.000,12475.000,669.000,379.000,813.000,-1178.000,0.000,0.000,0
2026-01-31 11:56:33,1499334,1896.000,10639.000,-352.000,-375.000,2545.000,-770.000,0.000,0.000,0
2026-01-31 11:56:33,1499374,2063.000,9337.000,1136.000,1542.000,2105.000,-789.000,0.000,0.000,0
2026-01-31 11:56:33,1499414,2944.000,7336.000,118.000,196.000,1351.000,-475.000,0.000,0.000,0
2026-01-31 11:56:33,1499454,2189.000,6371.000,-185.000,1541.000,1896.000,453.000,0.000,0.000,0
2026-01-31 11:56:33,1499494,437.000,4341.000,-115.000,1195.000,1486.000,1052.000,0.000,0.000,0
2026-01-31 11:56:33,1499534,422.000,4377.000,-80.000,2047.000,1264.000,1074.000,0.000,0.000,0
2026-01-31 11:56:33,1499574,-93.000,5075.000,-127.000,1992.000,1883.000,285.000,0.000,0.000,0
2026-01-31 11:56:33,1499614,-1040.000,4530.000,-64.000,1115.000,2392.000,-132.000,0.000,0.000,0
2026-01-31 11:56:33,1499654,-1367.000,6882.000,167.000,2762.000,1589.000,137.000,0.000,0.000,0
2026-01-31 11:56:33,1499694,-1088.000,8456.000,1361.000,1545.000,839.000,-173.000,0.000,0.000,0
2026-01-31 11:56:33,1499734,-1334.000,10107.000,785.000,2014.000,-294.000,-380.000,0.000,0.000,0
2026-01-31 11:56:33,1499774,457.000,10417.000,138.000,-616.000,-1798.000,-1593.000,0.000,0.000,0
2026-01-31 11:56:33,1499814,-823.000,11980.000,-1022.000,297.000,-1773.000,-1620.000,0.000,0.000,0
2026-01-31 11:56:33,1499854,-726.000,12165.000,-1496.000,-1237.000,-2766.000,-854.000,0.000,0.000,0
2026-01-31 11:56:33,1499894,-726.000,10669.000,-2249.000,-2497.000,-3263.000,-430.000,0.000,0.000,0
2026-01-31 11:56:33,1499934,-709.000,10449.000,-3025.000,-2324.000,-3973.000,840.000,0.000,0.000,0
2026-01-31 11:56:33,1499974,-245.000,7615.000,-2770.000,-2644.000,-4150.000,2380.000,0.000,0.000,0
2026-01-31 11:56:33,1500014,862.000,6321.000,-1499.000,-864.000,-4571.000,2998.000,0.000,0.000,0
2026-01-31 11:56:34,1500054,1398.000,5498.000,-757.000,-2435.000,-4742.000,2739.000,0.000,0.000,0
2026-01-31 11:56:34,1500094,2143.000,4912.000,132.000,-3727.000,-3978.000,1900.000,0.000,0.000,0
2026-01-31 11:56:34,1500134,2273.000,6088.000,221.000,-4437.000,-2406.000,580.000,0.000,0.000,0
2026-01-31 11:56:34,1500174,2310.000,6472.000,893.000,-4046.000,459.000,-1722.000,0.000,0.000,0
2026-01-31 11:56:34,1500214,2066.000,9461.000,1081.000,-5814.000,1982.000,-724.000,0.000,0.000,0
2026-01-31 11:56:34,1500254,2503.000,8771.000,672.000,-10132.000,3447.000,887.000,0.000,0.000,0
2026-01-31 11:56:34,1500294,2028.000,7222.000,1683.000,-7776.000,3129.000,2501.000,0.000,0.000,0
2026-01-31 11:56:34,1500334,3070.000,9387.000,3494.000,-4165.000,3371.000,4626.000,0.000,0.000,0
2026-01-31 11:56:34,1500374,3387.000,10258.000,4318.000,-5134.000,4092.000,6738.000,0.000,0.000,0
2026-01-31 11:56:34,1500414,2882.000,6529.000,3923.000,-5575.000,3056.000,7464.000,0.000,0.000,0
2026-01-31 11:56:34,1500454,3668.000,5678.000,4097.000,-1634.000,1255.000,5992.000,0.000,0.000,0
2026-01-31 11:56:34,1500494,3405.000,5691.000,3102.000,3588.000,290.000,4513.000,0.000,0.000,0
2026-01-31 11:56:34,1500534,1527.000,6471.000,1691.000,9356.000,-471.000,3225.000,0.000,0.000,0
2026-01-31 11:56:34,1500574,791.000,5978.000,2057.000,5301.000,-626.000,2464.000,0.000,0.000,0
2026-01-31 11:56:34,1500614,670.000,4332.000,2044.000,1654.000,-252.000,2049.000,0.000,0.000,0
2026-01-31 11:56:34,1500654,769.000,4678.000,2025.000,1955.000,238.000,1584.000,0.000,0.000,0
2026-01-31 11:56:34,1500694,1584.000,5996.000,2891.000,3682.000,347.000,1491.000,0.000,0.000,0
2026-01-31 11:56:34,1500734,2369.000,7228.000,3900.000,4784.000,652.000,1138.000,0.000,0.000,0
2026-01-31 11:56:34,1500774,2712.000,8980.000,4678.000,3770.000,464.000,-34.000,0.000,0.000,0
2026-01-31 11:56:34,1500814,3016.000,9136.000,4872.000,1408.000,-110.000,-705.000,0.000,0.000,0
2026-01-31 11:56:34,1500854,3232.000,9867.000,4500.000,357.000,-195.000,-1057.000,0.000,0.000,0
2026-01-31 11:56:34,1500894,3109.000,10963.000,4461.000,-1074.000,-552.000,-713.000,0.000,0.000,0
2026-01-31 11:56:34,1500934,3578.000,10586.000,3294.000,-5313.000,-1175.000,-528.000,0.000,0.000,0
2026-01-31 11:56:34,1500974,3791.000,10406.000,2611.000,-9763.000,-1935.000,120.000,0.000,0.000,0
2026-01-31 11:56:34,1501014,4355.000,8463.000,2511.000,-11427.000,-2753.000,946.000,0.000,0.000,0
2026-01-31 11:56:35,1501054,4830.000,6787.000,2470.000,-8020.000,-2745.000,405.000,0.000,0.000,0
2026-01-31 11:56:35,1501094,4034.000,5289.000,2049.000,-6211.000,-2423.000,-1127.000,0.000,0.000,0
2026-01-31 11:56:35,1501134,2842.000,3374.000,1513.000,-5600.000,-2203.000,-2479.000,0.000,0.000,0
2026-01-31 11:56:35,1501174,2329.000,2838.000,1306.000,-3482.000,-1878.000,-2984.000,0.000,0.000,0
2026-01-31 11:56:35,1501214,2526.000,3392.000,1689.000,-1887.000,-1034.000,-2395.000,0.000,0.000,0
2026-01-31 11:56:35,1501254,3052.000,4472.000,2343.000,-956.000,221.000,-1084.000,0.000,0.000,0
2026-01-31 11:56:35,1501294,4405.000,7175.000,4200.000,314.000,-63.000,531.000,0.000,0.000,0
2026-01-31 11:56:35,1501334,5895.000,7023.000,5030.000,-1296.000,467.000,1063.000,0.000,0.000,0
2026-01-31 11:56:35,1501374,5782.000,6366.000,5636.000,-1598.000,404.000,1389.000,0.000,0.000,0
2026-01-31 11:56:35,1501414,5860.000,5807.000,6551.000,-780.000,-419.000,2481.000,0.000,0.000,0
2026-01-31 11:56:35,1501454,5955.000,5598.000,6677.000,207.000,-947.000,3406.000,0.000,0.000,0
2026-01-31 11:56:35,1501494,6594.000,5145.000,5787.000,-1032.000,-805.000,2719.000,0.000,0.000,0
2026-01-31 11:56:35,1501534,7359.000,4638.000,4525.000,-2562.000,-26.000,2127.000,0.000,0.000,0
2026-01-31 11:56:35,1501574,6053.000,2544.000,3917.000,-1051.000,648.000,2130.000,0.000,0.000,0
2026-01-31 11:56:35,1501614,3613.000,3564.000,4537.000,1778.000,1301.000,1444.000,0.000,0.000,0
2026-01-31 11:56:35,1501654,1937.000,2353.000,4232.000,493.000,1443.000,1188.000,0.000,0.000,0
2026-01-31 11:56:35,1501694,1415.000,2559.000,4446.000,2301.000,1687.000,291.000,0.000,0.000,0
2026-01-31 11:56:35,1501734,1775.000,3488.000,4793.000,3404.000,1406.000,359.000,0.000,0.000,0
2026-01-31 11:56:35,1501774,2295.000,4341.000,5403.000,3290.000,1094.000,-176.000,0.000,0.000,0
2026-01-31 11:56:35,1501814,2654.000,5269.000,5961.000,1916.000,540.000,-780.000,0.000,0.000,0
2026-01-31 11:56:35,1501854,3616.000,5683.000,6088.000,1026.000,-8.000,-1010.000,0.000,0.000,0
2026-01-31 11:56:35,1501897,4925.000,7393.000,6277.000,678.000,31.000,-1612.000,0.000,0.000,0
2026-01-31 11:56:35,1501934,5226.000,7394.000,6456.000,1074.000,-126.000,-1225.000,0.000,0.000,0
2026-01-31 11:56:35,1501974,5489.000,8538.000,6538.000,3372.000,-824.000,-588.000,0.000,0.000,0
2026-01-31 11:56:35,1502014,4668.000,9387.000,6095.000,2353.000,-1574.000,-1166.000,0.000,0.000,0
2026-01-31 11:56:36,1502054,4488.000,7983.000,4998.000,-1314.000,-2762.000,-955.000,0.000,0.000,0
2026-01-31 11:56:36,1502094,4540.000,7287.000,4489.000,-2517.000,-3213.000,-1614.000,0.000,0.000,0
2026-01-31 11:56:36,1502134,3699.000,4517.000,3563.000,-4962.000,-3139.000,-2494.000,0.000,0.000,0
2026-01-31 11:56:36,1502174,2772.000,2287.000,2682.000,-4374.000,-2932.000,-2986.000,0.000,0.000,0
2026-01-31 11:56:36,1502214,2403.000,2768.000,2630.000,-2144.000,-2475.000,-2651.000,0.000,0.000,0
2026-01-31 11:56:36,1502254,2500.000,4088.000,2843.000,-1776.000,-1542.000,-1758.000,0.000,0.000,0
2026-01-31 11:56:36,1502294,2702.000,4395.000,2851.000,-1876.000,-723.000,-265.000,0.000,0.000,0
2026-01-31 11:56:36,1502334,3470.000,5693.000,3848.000,-840.000,9.000,338.000,0.000,0.000,0
2026-01-31 11:56:36,1502374,4601.000,6639.000,4303.000,-553.000,905.000,894.000,0.000,0.000,0
2026-01-31 11:56:36,1502414,5136.000,6574.000,4574.000,466.000,1876.000,1445.000,0.000,0.000,0
2026-01-31 11:56:36,1502454,6245.000,7626.000,5757.000,1995.000,2465.000,1632.000,0.000,0.000,0
2026-01-31 11:56:36,1502494,6485.000,7194.000,5929.000,3081.000,3158.000,2121.000,0.000,0.000,0
2026-01-31 11:56:36,1502534,6443.000,6885.000,5755.000,2613.000,3588.000,628.000,0.000,0.000,0
2026-01-31 11:56:36,1502574,5762.000,5182.000,4873.000,215.000,3031.000,241.000,0.000,0.000,0
2026-01-31 11:56:36,1502614,3978.000,3554.000,4184.000,1984.000,2285.000,728.000,0.000,0.000,0
2026-01-31 11:56:36,1502654,2037.000,3757.000,3661.000,4176.000,1563.000,794.000,0.000,0.000,0
2026-01-31 11:56:36,1502694,1045.000,3631.000,2973.000,2327.000,1120.000,1074.000,0.000,0.000,0
2026-01-31 11:56:36,1502734,845.000,3704.000,2887.000,1050.000,991.000,1068.000,0.000,0.000,0
2026-01-31 11:56:36,1502774,848.000,4225.000,3335.000,1599.000,808.000,961.000,0.000,0.000,0
2026-01-31 11:56:36,1502814,1448.000,5663.000,4718.000,2020.000,371.000,870.000,0.000,0.000,0
2026-01-31 11:56:36,1502854,1571.000,6366.000,5179.000,1020.000,-114.000,-354.000,0.000,0.000,0
2026-01-31 11:56:36,1502894,2253.000,7330.000,5575.000,856.000,-833.000,-1137.000,0.000,0.000,0
2026-01-31 11:56:36,1502934,2799.000,8051.000,5768.000,351.000,-1311.000,-2033.000,0.000,0.000,0
2026-01-31 11:56:36,1502974,2928.000,8412.000,5911.000,-91.000,-1895.000,-2816.000,0.000,0.000,0
2026-01-31 11:56:36,1503014,3451.000,9703.000,6109.000,309.000,-2852.000,-2954.000,0.000,0.000,0
2026-01-31 11:56:37,1503054,3770.000,9975.000,5242.000,-1213.000,-3405.000,-3127.000,0.000,0.000,0
2026-01-31 11:56:37,1503094,3993.000,10105.000,4424.000,-3965.000,-3734.000,-2894.000,0.000,0.000,0
2026-01-31 11:56:37,1503134,4406.000,8896.000,3778.000,-4770.000,-3662.000,-1901.000,0.000,0.000,0
2026-01-31 11:56:37,1503174,4310.000,7347.000,3120.000,-4560.000,-3264.000,-1919.000,0.000,0.000,0
2026-01-31 11:56:37,1503214,3423.000,3780.000,2246.000,-3683.000,-3138.000,-2371.000,0.000,0.000,0
2026-01-31 11:56:37,1503254,2633.000,3375.000,1816.000,-2332.000,-2750.000,-2391.000,0.000,0.000,0
2026-01-31 11:56:37,1503294,2426.000,3676.000,1529.000,-2179.000,-2194.000,-1794.000,0.000,0.000,0
2026-01-31 11:56:37,1503334,2659.000,4088.000,1887.000,-1604.000,-1423.000,-712.000,0.000,0.000,0
2026-01-31 11:56:37,1503374,2928.000,5179.000,2561.000,-142.000,-604.000,514.000,0.000,0.000,0
2026-01-31 11:56:37,1503414,4373.000,7647.000,3490.000,450.000,33.000,1677.000,0.000,0.000,0
2026-01-31 11:56:37,1503454,5680.000,7654.000,4044.000,-699.000,1274.000,2103.000,0.000,0.000,0
2026-01-31 11:56:37,1503494,5135.000,6736.000,4779.000,1186.000,2164.000,2146.000,0.000,0.000,0
2026-01-31 11:56:37,1503534,5300.000,7867.000,5460.000,4058.000,2650.000,3108.000,0.000,0.000,0
2026-01-31 11:56:37,1503574,5528.000,8927.000,6290.000,6129.000,3238.000,3738.000,0.000,0.000,0
2026-01-31 11:56:37,1503614,4568.000,6133.000,5739.000,1825.000,2986.000,1528.000,0.000,0.000,0
2026-01-31 11:56:37,1503654,4139.000,3830.000,4818.000,259.000,2125.000,977.000,0.000,0.000,0
2026-01-31 11:56:37,1503694,3940.000,3754.000,4135.000,1894.000,1437.000,1208.000,0.000,0.000,0
2026-01-31 11:56:37,1503734,3367.000,4327.000,3560.000,1453.000,1828.000,1639.000,0.000,0.000,0
2026-01-31 11:56:37,1503774,2406.000,3223.000,3013.000,256.000,2297.000,2091.000,0.000,0.000,0
2026-01-31 11:56:37,1503814,1932.000,3211.000,3629.000,1913.000,2242.000,2030.000,0.000,0.000,0
2026-01-31 11:56:37,1503855,1517.000,4465.000,4390.000,2835.000,1942.000,1600.000,0.000,0.000,0
2026-01-31 11:56:37,1503894,1227.000,5154.000,4717.000,2153.000,1225.000,1193.000,0.000,0.000,0
2026-01-31 11:56:37,1503934,1300.000,5850.000,5127.000,1078.000,428.000,430.000,0.000,0.000,0
2026-01-31 11:56:37,1503974,2050.000,6504.000,5292.000,225.000,-516.000,-1041.000,0.000,0.000,0
2026-01-31 11:56:37,1504014,2870.000,7423.000,5169.000,57.000,-809.000,-2023.000,0.000,0.000,0
2026-01-31 11:56:38,1504054,3368.000,7999.000,5108.000,-119.000,-679.000,-2522.000,0.000,0.000,0
2026-01-31 11:56:38,1504094,3421.000,9323.000,5537.000,782.000,-998.000,-2421.000,0.000,0.000,0
2026-01-31 11:56:38,1504134,3861.000,10502.000,5623.000,215.000,-1919.000,-2287.000,0.000,0.000,0
2026-01-31 11:56:38,1504174,3331.000,8970.000,4754.000,-1871.000,-3007.000,-2860.000,0.000,0.000,0
2026-01-31 11:56:38,1504214,3134.000,8201.000,3875.000,-2997.000,-3781.000,-2792.000,0.000,0.000,0
2026-01-31 11:56:38,1504254,2986.000,7316.000,3046.000,-2867.000,-3946.000,-2215.000,0.000,0.000,0
2026-01-31 11:56:38,1504294,2454.000,6205.000,2626.000,-3401.000,-3925.000,-2086.000,0.000,0.000,0
2026-01-31 11:56:38,1504334,1726.000,4631.000,2264.000,-4032.000,-4013.000,-2190.000,0.000,0.000,0
2026-01-31 11:56:38,1504374,1664.000,5467.000,2058.000,-3558.000,-3964.000,-1838.000,0.000,0.000,0
2026-01-31 11:56:38,1504414,2216.000,6214.000,2198.000,-3781.000,-3508.000,-1214.000,0.000,0.000,0
2026-01-31 11:56:38,1504454,2908.000,6557.000,2832.000,-3549.000,-2567.000,-741.000,0.000,0.000,0
2026-01-31 11:56:38,1504494,3376.000,7102.000,3733.000,-2273.000,-1816.000,-334.000,0.000,0.000,0
2026-01-31 11:56:38,1504534,3774.000,7559.000,4595.000,-1331.000,-1334.000,-106.000,0.000,0.000,0
2026-01-31 11:56:38,1504574,4022.000,6523.000,4831.000,-760.000,-610.000,284.000,0.000,0.000,0
2026-01-31 11:56:38,1504614,3654.000,6288.000,5186.000,1038.000,-174.000,811.000,0.000,0.000,0
2026-01-31 11:56:38,1504654,4401.000,7477.000,5710.000,1779.000,-22.000,1799.000,0.000,0.000,0
2026-01-31 11:56:38,1504694,4502.000,7530.000,5704.000,1846.000,749.000,2521.000,0.000,0.000,0
2026-01-31 11:56:38,1504734,4177.000,6110.000,5516.000,851.000,1358.000,1705.000,0.000,0.000,0
2026-01-31 11:56:38,1504774,4099.000,4424.000,5282.000,-1326.000,958.000,158.000,0.000,0.000,0
2026-01-31 11:56:38,1504814,4166.000,3436.000,4640.000,-1589.000,451.000,-529.000,0.000,0.000,0
2026-01-31 11:56:38,1504854,3675.000,3384.000,4122.000,81.000,384.000,-657.000,0.000,0.000,0
2026-01-31 11:56:38,1504894,2947.000,3767.000,3830.000,517.000,616.000,-761.000,0.000,0.000,0
2026-01-31 11:56:38,1504934,1914.000,3098.000,3514.000,-173.000,752.000,-578.000,0.000,0.000,0
2026-01-31 11:56:38,1504974,1161.000,3288.000,4165.000,818.000,543.000,-530.000,0.000,0.000,0
2026-01-31 11:56:38,1505014,1541.000,4835.000,4746.000,1227.000,340.000,-854.000,0.000,0.000,0
2026-01-31 11:56:39,1505054,1796.000,5385.000,5569.000,-122.000,-304.000,-975.000,0.000,0.000,0
2026-01-31 11:56:39,1505094,3015.000,5927.000,6191.000,-1003.000,-576.000,-1559.000,0.000,0.000,0
2026-01-31 11:56:39,1505134,2741.000,5609.000,6585.000,-1423.000,-645.000,-2729.000,0.000,0.000,0
2026-01-31 11:56:39,1505174,3021.000,6160.000,6614.000,-621.000,-488.000,-3161.000,0.000,0.000,0
2026-01-31 11:56:39,1505214,3002.000,7075.000,6803.000,-119.000,-461.000,-3266.000,0.000,0.000,0
2026-01-31 11:56:39,1505254,3378.000,8666.000,7222.000,92.000,-1031.000,-2900.000,0.000,0.000,0
2026-01-31 11:56:39,1505294,3373.000,8927.000,6624.000,-953.000,-1966.000,-2517.000,0.000,0.000,0
2026-01-31 11:56:39,1505334,3598.000,8668.000,5336.000,-2338.000,-2596.000,-2444.000,0.000,0.000,0
2026-01-31 11:56:39,1505374,4150.000,8179.000,4729.000,-3386.000,-2961.000,-1945.000,0.000,0.000,0
2026-01-31 11:56:39,1505414,4547.000,6328.000,4065.000,-3088.000,-2371.000,-1679.000,0.000,0.000,0
2026-01-31 11:56:39,1505454,4037.000,4382.000,3675.000,-2040.000,-1517.000,-1620.000,0.000,0.000,0
2026-01-31 11:56:39,1505494,1522.000,2571.000,3926.000,-1242.000,-814.000,-1002.000,0.000,0.000,0
2026-01-31 11:56:39,1505534,1152.000,3088.000,4447.000,-1300.000,-459.000,-247.000,0.000,0.000,0
2026-01-31 11:56:39,1505574,691.000,3621.000,5218.000,-1483.000,359.000,833.000,0.000,0.000,0
2026-01-31 11:56:39,1505614,686.000,5571.000,7244.000,-2153.000,320.000,1546.000,0.000,0.000,0
2026-01-31 11:56:39,1505654,2760.000,6595.000,8750.000,-4840.000,435.000,1842.000,0.000,0.000,0
2026-01-31 11:56:39,1505694,3621.000,5082.000,8672.000,-5234.000,1530.000,2315.000,0.000,0.000,0
2026-01-31 11:56:39,1505734,3746.000,4987.000,8829.000,-2773.000,2742.000,2147.000,0.000,0.000,0
2026-01-31 11:56:39,1505774,2906.000,6257.000,8942.000,-3419.000,3214.000,2328.000,0.000,0.000,0
2026-01-31 11:56:39,1505814,2548.000,4735.000,9172.000,-3626.000,2508.000,2998.000,0.000,0.000,0
2026-01-31 11:56:39,1505854,3432.000,3773.000,8436.000,-2779.000,1115.000,2765.000,0.000,0.000,0
2026-01-31 11:56:39,1505894,3339.000,2478.000,6430.000,-4149.000,-213.000,3229.000,0.000,0.000,0
2026-01-31 11:56:39,1505934,3937.000,1467.000,6109.000,-3550.000,-1151.000,3378.000,0.000,0.000,0
2026-01-31 11:56:39,1505974,6669.000,-9926.000,4522.000,-1060.000,-1901.000,-24.000,0.000,0.000,0
2026-01-31 11:56:39,1506014,3787.000,2135.000,5139.000,12480.000,283.000,1264.000,0.000,0.000,0
2026-01-31 11:56:40,1506054,2361.000,4317.000,5558.000,772.000,946.000,6974.000,0.000,0.000,0
2026-01-31 11:56:40,1506094,1988.000,2235.000,5527.000,-6161.000,676.000,6037.000,0.000,0.000,0
2026-01-31 11:56:40,1506134,2180.000,2323.000,5632.000,-5501.000,861.000,5732.000,0.000,0.000,0
2026-01-31 11:56:40,1506174,3844.000,-1640.000,5760.000,-5277.000,-391.000,5558.000,0.000,0.000,0
2026-01-31 11:56:40,1506214,2908.000,749.000,7699.000,504.000,-210.000,257.000,0.000,0.000,0
2026-01-31 11:56:40,1506254,4339.000,946.000,7816.000,533.000,-345.000,-1142.000,0.000,0.000,0
2026-01-31 11:56:40,1506294,2455.000,879.000,8491.000,-4490.000,1214.000,1000.000,0.000,0.000,0
2026-01-31 11:56:40,1506334,2962.000,-747.000,8532.000,-4789.000,284.000,2685.000,0.000,0.000,0
2026-01-31 11:56:40,1506374,4009.000,224.000,9246.000,-1913.000,-871.000,1717.000,0.000,0.000,0
2026-01-31 11:56:40,1506414,3262.000,610.000,7904.000,-2941.000,-1648.000,1928.000,0.000,0.000,0
2026-01-31 11:56:40,1506454,4384.000,633.000,7349.000,-2391.000,-2584.000,2518.000,0.000,0.000,0
2026-01-31 11:56:40,1506494,5063.000,819.000,6944.000,-1005.000,-2928.000,2589.000,0.000,0.000,0
2026-01-31 11:56:40,1506534,4208.000,-187.000,6772.000,-1760.000,-3914.000,1622.000,0.000,0.000,0
2026-01-31 11:56:40,1506574,4442.000,-328.000,5791.000,-4180.000,-4328.000,559.000,0.000,0.000,0
2026-01-31 11:56:40,1506614,3333.000,-2369.000,4546.000,-8240.000,-3965.000,325.000,0.000,0.000,0
2026-01-31 11:56:40,1506654,2584.000,-4750.000,4183.000,-9030.000,-4071.000,1734.000,0.000,0.000,0
2026-01-31 11:56:40,1506694,2917.000,-1531.000,4676.000,-7282.000,-3822.000,2790.000,0.000,0.000,0
2026-01-31 11:56:40,1506734,4977.000,-5110.000,4489.000,-6976.000,-3643.000,2371.000,0.000,0.000,0
2026-01-31 11:56:40,1506774,5379.000,-9061.000,3491.000,1676.000,-2417.000,1514.000,0.000,0.000,0
2026-01-31 11:56:40,1506814,6427.000,-6883.000,4922.000,4893.000,-2968.000,3036.000,0.000,0.000,0
2026-01-31 11:56:40,1506854,6174.000,-10844.000,4895.000,7872.000,-2037.000,2813.000,0.000,0.000,0
2026-01-31 11:56:40,1506894,7665.000,-9842.000,1948.000,22190.000,-6.000,2163.000,0.000,0.000,0
2026-01-31 11:56:40,1506934,9137.000,-4958.000,186.000,32686.000,1794.000,-229.000,0.000,0.000,0
2026-01-31 11:56:40,1506974,8769.000,6764.000,2361.000,32713.000,4587.000,-1629.000,0.000,0.000,0
2026-01-31 11:56:40,1507014,6144.000,7085.000,2624.000,26227.000,6771.000,-3934.000,0.000,0.000,0
2026-01-31 11:56:41,1507054,2890.000,10734.000,2178.000,22788.000,6304.000,-7465.000,0.000,0.000,0
2026-01-31 11:56:41,1507094,185.000,10344.000,2283.000,16298.000,5199.000,-9884.000,0.000,0.000,0
2026-01-31 11:56:41,1507134,-1066.000,8048.000,1390.000,7804.000,4026.000,-8594.000,0.000,0.000,0
2026-01-31 11:56:41,1507174,-536.000,6420.000,-42.000,3591.000,1601.000,-8354.000,0.000,0.000,0
2026-01-31 11:56:41,1507214,-1384.000,6344.000,-659.000,1608.000,-644.000,-8694.000,0.000,0.000,0
2026-01-31 11:56:41,1507254,-1422.000,5326.000,-276.000,-306.000,-2007.000,-6739.000,0.000,0.000,0
2026-01-31 11:56:41,1507294,-1828.000,5986.000,587.000,-212.000,-2834.000,-5624.000,0.000,0.000,0
2026-01-31 11:56:41,1507334,-1752.000,6965.000,1554.000,-2132.000,-4680.000,-4699.000,0.000,0.000,0
2026-01-31 11:56:41,1507374,-2022.000,6645.000,2555.000,-4539.000,-5417.000,-2001.000,0.000,0.000,0
2026-01-31 11:56:41,1507414,-2686.000,9828.000,2561.000,-7686.000,-6957.000,-1636.000,0.000,0.000,0
2026-01-31 11:56:41,1507454,-1640.000,8726.000,4191.000,-10529.000,-9413.000,973.000,0.000,0.000,0
2026-01-31 11:56:41,1507494,-1038.000,8562.000,4300.000,-10013.000,-10675.000,1075.000,0.000,0.000,0
2026-01-31 11:56:41,1507534,1119.000,8269.000,4122.000,-9752.000,-12983.000,342.000,0.000,0.000,0
2026-01-31 11:56:41,1507574,2489.000,7533.000,5521.000,-10052.000,-13019.000,108.000,0.000,0.000,0
2026-01-31 11:56:41,1507614,2153.000,4816.000,4707.000,-9281.000,-11734.000,-1100.000,0.000,0.000,0
2026-01-31 11:56:41,1507654,2795.000,3776.000,5588.000,-6873.000,-11612.000,-2766.000,0.000,0.000,0
2026-01-31 11:56:41,1507694,3127.000,2345.000,5149.000,-7180.000,-9982.000,-4292.000,0.000,0.000,0
2026-01-31 11:56:41,1507734,3149.000,1652.000,5192.000,-6001.000,-7821.000,-4685.000,0.000,0.000,0
2026-01-31 11:56:41,1507774,3215.000,551.000,5079.000,-4024.000,-5481.000,-4472.000,0.000,0.000,0
2026-01-31 11:56:41,1507814,2899.000,2824.000,6767.000,1601.000,-2344.000,-1749.000,0.000,0.000,0
2026-01-31 11:56:41,1507854,3841.000,3666.000,7912.000,104.000,-708.000,640.000,0.000,0.000,0
2026-01-31 11:56:41,1507894,4938.000,3634.000,7464.000,358.000,734.000,2310.000,0.000,0.000,0
2026-01-31 11:56:41,1507934,5795.000,3657.000,8124.000,1178.000,1375.000,2587.000,0.000,0.000,0
2026-01-31 11:56:41,1507974,5985.000,3775.000,8559.000,1634.000,1290.000,3033.000,0.000,0.000,0
2026-01-31 11:56:41,1508014,6105.000,4635.000,8377.000,3803.000,1458.000,4369.000,0.000,0.000,0
2026-01-31 11:56:42,1508054,5768.000,4871.000,7952.000,3577.000,1947.000,4365.000,0.000,0.000,0
2026-01-31 11:56:42,1508094,4910.000,3046.000,6962.000,1251.000,1784.000,3264.000,0.000,0.000,0
2026-01-31 11:56:42,1508134,4685.000,2309.000,5878.000,915.000,920.000,2454.000,0.000,0.000,0
2026-01-31 11:56:42,1508174,3838.000,1400.000,4903.000,1430.000,-82.000,1901.000,0.000,0.000,0
2026-01-31 11:56:42,1508214,3319.000,1053.000,4194.000,1098.000,-244.000,2202.000,0.000,0.000,0
2026-01-31 11:56:42,1508254,3468.000,1440.000,4687.000,758.000,-366.000,2014.000,0.000,0.000,0
2026-01-31 11:56:42,1508294,3545.000,1930.000,5193.000,535.000,-170.000,1241.000,0.000,0.000,0
2026-01-31 11:56:42,1508334,3213.000,1345.000,5755.000,-541.000,-618.000,569.000,0.000,0.000,0
2026-01-31 11:56:42,1508374,3803.000,1920.000,7067.000,-431.000,-1314.000,-430.000,0.000,0.000,0
2026-01-31 11:56:42,1508414,4521.000,2481.000,7631.000,-1733.000,-1908.000,-969.000,0.000,0.000,0
2026-01-31 11:56:42,1508454,5442.000,2578.000,8311.000,-3005.000,-2059.000,-1344.000,0.000,0.000,0
2026-01-31 11:56:42,1508494,5983.000,1710.000,7853.000,-4162.000,-2008.000,-1350.000,0.000,0.000,0
2026-01-31 11:56:42,1508534,6265.000,1604.000,7275.000,-2879.000,-1524.000,-1121.000,0.000,0.000,0
2026-01-31 11:56:42,1508574,6309.000,4228.000,8404.000,-2224.000,-2316.000,270.000,0.000,0.000,0
2026-01-31 11:56:42,1508614,5691.000,3399.000,6788.000,-2925.000,-2583.000,-295.000,0.000,0.000,0
2026-01-31 11:56:42,1508654,5729.000,3574.000,5097.000,-3534.000,-2694.000,-629.000,0.000,0.000,0
2026-01-31 11:56:42,1508694,6387.000,2887.000,4261.000,-3019.000,-3430.000,706.000,0.000,0.000,0
2026-01-31 11:56:42,1508734,6596.000,2100.000,3702.000,903.000,-3272.000,1897.000,0.000,0.000,0
2026-01-31 11:56:42,1508774,6280.000,2036.000,3287.000,2742.000,-2649.000,2110.000,0.000,0.000,0
2026-01-31 11:56:42,1508814,5480.000,1151.000,3277.000,1314.000,-2204.000,1250.000,0.000,0.000,0
2026-01-31 11:56:42,1508854,4788.000,650.000,3341.000,-620.000,-2679.000,805.000,0.000,0.000,0
2026-01-31 11:56:42,1508894,4992.000,344.000,3260.000,-544.000,-2719.000,863.000,0.000,0.000,0
2026-01-31 11:56:42,1508934,5915.000,472.000,3559.000,187.000,-2539.000,1322.000,0.000,0.000,0
2026-01-31 11:56:42,1508974,7160.000,639.000,4073.000,1454.000,-2657.000,1943.000,0.000,0.000,0
2026-01-31 11:56:42,1509014,8359.000,255.000,3936.000,3067.000,-2613.000,2651.000,0.000,0.000,0
2026-01-31 11:56:43,1509054,8738.000,976.000,4178.000,4426.000,-2247.000,2442.000,0.000,0.000,0
2026-01-31 11:56:43,1509094,10220.000,1607.000,4551.000,3649.000,-3112.000,2990.000,0.000,0.000,0
2026-01-31 11:56:43,1509134,11859.000,1311.000,3840.000,3756.000,-3619.000,3461.000,0.000,0.000,0
2026-01-31 11:56:43,1509174,9997.000,1349.000,3119.000,4044.000,-2503.000,3094.000,0.000,0.000,0
2026-01-31 11:56:43,1509214,7901.000,417.000,1940.000,1729.000,-943.000,2002.000,0.000,0.000,0
2026-01-31 11:56:43,1509254,8204.000,-1551.000,684.000,1661.000,-267.000,2022.000,0.000,0.000,0
2026-01-31 11:56:43,1509294,7204.000,-68.000,1363.000,5222.000,-12.000,1902.000,0.000,0.000,0
2026-01-31 11:56:43,1509334,5489.000,-444.000,2796.000,3196.000,-109.000,1490.000,0.000,0.000,0
2026-01-31 11:56:43,1509374,4660.000,-612.000,2253.000,4366.000,542.000,1453.000,0.000,0.000,0
2026-01-31 11:56:43,1509414,4921.000,-124.000,2251.000,4440.000,770.000,937.000,0.000,0.000,0
2026-01-31 11:56:43,1509454,6090.000,-1295.000,2097.000,4026.000,1010.000,274.000,0.000,0.000,0
2026-01-31 11:56:43,1509494,7042.000,-97.000,2961.000,6731.000,1197.000,-810.000,0.000,0.000,0
2026-01-31 11:56:43,1509534,7357.000,295.000,4251.000,5160.000,602.000,-901.000,0.000,0.000,0
2026-01-31 11:56:43,1509574,7991.000,524.000,3924.000,6274.000,1687.000,-1369.000,0.000,0.000,0
2026-01-31 11:56:43,1509614,8885.000,933.000,3411.000,8698.000,2274.000,-1694.000,0.000,0.000,0
2026-01-31 11:56:43,1509654,9618.000,1428.000,3039.000,10683.000,2793.000,-2524.000,0.000,0.000,0
2026-01-31 11:56:43,1509694,10568.000,4634.000,3000.000,12295.000,3166.000,-5541.000,0.000,0.000,0
2026-01-31 11:56:43,1509734,8755.000,6142.000,2598.000,8412.000,2670.000,-5937.000,0.000,0.000,0
2026-01-31 11:56:43,1509774,8522.000,8043.000,1960.000,5948.000,1618.000,-6130.000,0.000,0.000,0
2026-01-31 11:56:43,1509814,6828.000,6898.000,1781.000,2664.000,884.000,-5390.000,0.000,0.000,0
2026-01-31 11:56:43,1509854,4489.000,5310.000,1630.000,2638.000,18.000,-4712.000,0.000,0.000,0
2026-01-31 11:56:43,1509898,2778.000,4074.000,1447.000,1002.000,-1261.000,-3555.000,0.000,0.000,0
2026-01-31 11:56:43,1509934,2529.000,3869.000,1404.000,-37.000,-1519.000,-3148.000,0.000,0.000,0
2026-01-31 11:56:43,1509974,2595.000,3774.000,1055.000,-1997.000,-1747.000,-2343.000,0.000,0.000,0
2026-01-31 11:56:43,1510014,3052.000,3970.000,757.000,-2677.000,-1745.000,-966.000,0.000,0.000,0
2026-01-31 11:56:44,1510054,4122.000,4560.000,753.000,-1973.000,-1599.000,638.000,0.000,0.000,0
2026-01-31 11:56:44,1510094,6404.000,5955.000,1484.000,-2559.000,-1027.000,2190.000,0.000,0.000,0
2026-01-31 11:56:44,1510134,7170.000,5219.000,1751.000,-3694.000,-451.000,3286.000,0.000,0.000,0
2026-01-31 11:56:44,1510174,6900.000,4582.000,2189.000,-3136.000,-294.000,4525.000,0.000,0.000,0
2026-01-31 11:56:44,1510214,8224.000,4860.000,2514.000,-1643.000,-621.000,6564.000,0.000,0.000,0
2026-01-31 11:56:44,1510254,10091.000,3903.000,2825.000,2222.000,-153.000,7907.000,0.000,0.000,0
2026-01-31 11:56:44,1510294,8770.000,2694.000,2332.000,6692.000,630.000,6806.000,0.000,0.000,0
2026-01-31 11:56:44,1510334,8544.000,3354.000,2200.000,5399.000,1392.000,3923.000,0.000,0.000,0
2026-01-31 11:56:44,1510374,7859.000,2151.000,1489.000,753.000,1536.000,3590.000,0.000,0.000,0
2026-01-31 11:56:44,1510414,6076.000,557.000,1171.000,2260.000,1224.000,3424.000,0.000,0.000,0
2026-01-31 11:56:44,1510454,5394.000,1760.000,1416.000,6952.000,1274.000,2334.000,0.000,0.000,0
2026-01-31 11:56:44,1510494,4562.000,1794.000,1188.000,7534.000,2021.000,1749.000,0.000,0.000,0
2026-01-31 11:56:44,1510534,4675.000,2417.000,1608.000,7173.000,1574.000,1835.000,0.000,0.000,0
2026-01-31 11:56:44,1510574,5313.000,3126.000,2513.000,6437.000,626.000,2147.000,0.000,0.000,0
2026-01-31 11:56:44,1510614,6444.000,3337.000,3041.000,6097.000,-534.000,1797.000,0.000,0.000,0
2026-01-31 11:56:44,1510654,7059.000,3811.000,3124.000,4776.000,-1154.000,2256.000,0.000,0.000,0
2026-01-31 11:56:44,1510694,8368.000,3925.000,2555.000,3588.000,-1376.000,2393.000,0.000,0.000,0
2026-01-31 11:56:44,1510734,9767.000,3655.000,2063.000,2808.000,-1131.000,2392.000,0.000,0.000,0
2026-01-31 11:56:44,1510774,11023.000,3430.000,2256.000,3085.000,-1339.000,1952.000,0.000,0.000,0
2026-01-31 11:56:44,1510814,11094.000,4065.000,2893.000,2950.000,-1129.000,1362.000,0.000,0.000,0
2026-01-31 11:56:44,1510854,10038.000,3172.000,1255.000,-2666.000,330.000,-45.000,0.000,0.000,0
2026-01-31 11:56:44,1510894,10783.000,3146.000,269.000,-4689.000,891.000,-690.000,0.000,0.000,0
2026-01-31 11:56:44,1510934,9091.000,2228.000,312.000,-5611.000,1546.000,-781.000,0.000,0.000,0
2026-01-31 11:56:44,1510974,6878.000,957.000,693.000,-5231.000,1760.000,-1521.000,0.000,0.000,0
2026-01-31 11:56:44,1511014,5528.000,683.000,954.000,-4143.000,1825.000,-2891.000,0.000,0.000,0
2026-01-31 11:56:45,1511054,5047.000,1141.000,650.000,-3729.000,2134.000,-3950.000,0.000,0.000,0
2026-01-31 11:56:45,1511094,5077.000,1530.000,215.000,-3523.000,2314.000,-4045.000,0.000,0.000,0
2026-01-31 11:56:45,1511134,5317.000,1718.000,333.000,-2846.000,2073.000,-3358.000,0.000,0.000,0
2026-01-31 11:56:45,1511174,6146.000,2285.000,716.000,-1868.000,1381.000,-2189.000,0.000,0.000,0
2026-01-31 11:56:45,1511214,7166.000,2803.000,1202.000,-1395.000,583.000,-245.000,0.000,0.000,0
2026-01-31 11:56:45,1511254,8276.000,2422.000,1106.000,171.000,-505.000,2741.000,0.000,0.000,0
2026-01-31 11:56:45,1511294,9681.000,2843.000,1165.000,1625.000,-1176.000,4162.000,0.000,0.000,0
2026-01-31 11:56:45,1511334,10355.000,2149.000,1828.000,3141.000,-1791.000,5903.000,0.000,0.000,0
2026-01-31 11:56:45,1511374,9805.000,1950.000,2987.000,4907.000,-2400.000,6272.000,0.000,0.000,0
2026-01-31 11:56:45,1511414,8114.000,302.000,3046.000,5140.000,-1513.000,4579.000,0.000,0.000,0
2026-01-31 11:56:45,1511454,8894.000,1972.000,2159.000,3687.000,-718.000,1952.000,0.000,0.000,0
2026-01-31 11:56:45,1511494,7289.000,640.000,1817.000,-205.000,-493.000,485.000,0.000,0.000,0
2026-01-31 11:56:45,1511534,6135.000,502.000,2007.000,869.000,8.000,-1101.000,0.000,0.000,0
2026-01-31 11:56:45,1511574,4892.000,1247.000,2104.000,2802.000,507.000,-1494.000,0.000,0.000,0
2026-01-31 11:56:45,1511614,4437.000,2170.000,1908.000,3448.000,557.000,-1325.000,0.000,0.000,0
2026-01-31 11:56:45,1511654,5156.000,2668.000,2380.000,1864.000,-296.000,-576.000,0.000,0.000,0
2026-01-31 11:56:45,1511694,6032.000,2400.000,2811.000,-605.000,-1091.000,9.000,0.000,0.000,0
2026-01-31 11:56:45,1511734,7343.000,2149.000,2163.000,-1120.000,-1045.000,287.000,0.000,0.000,0
2026-01-31 11:56:45,1511774,9291.000,2403.000,1836.000,-425.000,-1446.000,940.000,0.000,0.000,0
2026-01-31 11:56:45,1511814,9933.000,2338.000,1959.000,457.000,-1390.000,1275.000,0.000,0.000,0
2026-01-31 11:56:45,1511854,12124.000,2347.000,1798.000,492.000,-1568.000,708.000,0.000,0.000,0
2026-01-31 11:56:45,1511894,11707.000,2482.000,2249.000,568.000,-1336.000,185.000,0.000,0.000,0
2026-01-31 11:56:45,1511934,9408.000,3062.000,1927.000,-1330.000,-249.000,-462.000,0.000,0.000,0
2026-01-31 11:56:45,1511974,10183.000,3120.000,443.000,-4654.000,393.000,-1176.000,0.000,0.000,0
2026-01-31 11:56:45,1512014,7829.000,2063.000,208.000,-6215.000,1163.000,-481.000,0.000,0.000,0
2026-01-31 11:56:46,1512054,5640.000,1163.000,571.000,-5132.000,1136.000,-897.000,0.000,0.000,0
2026-01-31 11:56:46,1512094,4813.000,1507.000,746.000,-4859.000,1055.000,-1817.000,0.000,0.000,0
2026-01-31 11:56:46,1512134,4758.000,1709.000,188.000,-5949.000,1192.000,-2362.000,0.000,0.000,0
2026-01-31 11:56:46,1512174,5385.000,1632.000,-361.000,-6181.000,1376.000,-2506.000,0.000,0.000,0
2026-01-31 11:56:46,1512214,6113.000,1564.000,-462.000,-4817.000,1453.000,-2088.000,0.000,0.000,0
2026-01-31 11:56:46,1512254,7438.000,2057.000,-327.000,-2163.000,1174.000,-1206.000,0.000,0.000,0
2026-01-31 11:56:46,1512294,9049.000,2484.000,-8.000,196.000,753.000,78.000,0.000,0.000,0
2026-01-31 11:56:46,1512334,9049.000,1550.000,181.000,1286.000,556.000,717.000,0.000,0.000,0
2026-01-31 11:56:46,1512374,10382.000,475.000,874.000,2215.000,116.000,348.000,0.000,0.000,0
2026-01-31 11:56:46,1512414,10495.000,1985.000,1934.000,6405.000,-548.000,1461.000,0.000,0.000,0
2026-01-31 11:56:46,1512454,8296.000,1874.000,3462.000,4778.000,-1737.000,2564.000,0.000,0.000,0
2026-01-31 11:56:46,1512494,8643.000,1483.000,3559.000,1740.000,-1907.000,1786.000,0.000,0.000,0
2026-01-31 11:56:46,1512534,8292.000,819.000,2639.000,-2032.000,-1309.000,1248.000,0.000,0.000,0
2026-01-31 11:56:46,1512574,6519.000,-250.000,1821.000,-2143.000,-958.000,688.000,0.000,0.000,0
2026-01-31 11:56:46,1512614,5347.000,-70.000,1516.000,-136.000,-310.000,283.000,0.000,0.000,0
2026-01-31 11:56:46,1512654,4334.000,211.000,1173.000,2161.000,253.000,278.000,0.000,0.000,0
2026-01-31 11:56:46,1512694,4709.000,1299.000,1261.000,3504.000,63.000,276.000,0.000,0.000,0
2026-01-31 11:56:46,1512734,5795.000,1604.000,1507.000,2957.000,-290.000,470.000,0.000,0.000,0
2026-01-31 11:56:46,1512774,6945.000,2235.000,2247.000,1918.000,-1179.000,807.000,0.000,0.000,0
2026-01-31 11:56:46,1512814,8344.000,2549.000,2374.000,1807.000,-1531.000,877.000,0.000,0.000,0
2026-01-31 11:56:46,1512854,9295.000,2806.000,2290.000,1393.000,-1524.000,814.000,0.000,0.000,0
2026-01-31 11:56:46,1512894,10593.000,3277.000,1897.000,1226.000,-1004.000,243.000,0.000,0.000,0
2026-01-31 11:56:46,1512934,11323.000,4234.000,2348.000,1069.000,-1156.000,360.000,0.000,0.000,0
2026-01-31 11:56:46,1512974,9199.000,3219.000,2450.000,163.000,-336.000,-317.000,0.000,0.000,0
2026-01-31 11:56:46,1513014,9527.000,3964.000,1299.000,-1692.000,551.000,-1985.000,0.000,0.000,0
2026-01-31 11:56:47,1513054,11199.000,3288.000,82.000,-4920.000,1359.000,-2910.000,0.000,0.000,0
2026-01-31 11:56:47,1513094,9910.000,1921.000,221.000,-5435.000,1990.000,-3541.000,0.000,0.000,0
2026-01-31 11:56:47,1513134,6811.000,1016.000,912.000,-3961.000,2233.000,-4637.000,0.000,0.000,0
2026-01-31 11:56:47,1513174,5490.000,1609.000,863.000,-3387.000,2345.000,-5989.000,0.000,0.000,0
2026-01-31 11:56:47,1513214,4997.000,1726.000,380.000,-5038.000,2445.000,-6163.000,0.000,0.000,0
2026-01-31 11:56:47,1513254,5006.000,1388.000,-14.000,-5522.000,2425.000,-5431.000,0.000,0.000,0
2026-01-31 11:56:47,1513294,5132.000,1375.000,-51.000,-3307.000,2149.000,-3751.000,0.000,0.000,0
2026-01-31 11:56:47,1513334,5767.000,2291.000,441.000,-164.000,1377.000,-1480.000,0.000,0.000,0
2026-01-31 11:56:47,1513374,7523.000,3077.000,1087.000,1111.000,429.000,1301.000,0.000,0.000,0
2026-01-31 11:56:47,1513414,8010.000,2531.000,1504.000,1065.000,-521.000,3872.000,0.000,0.000,0
2026-01-31 11:56:47,1513454,9151.000,2391.000,1802.000,1700.000,-1379.000,5537.000,0.000,0.000,0
2026-01-31 11:56:47,1513494,11269.000,2805.000,2049.000,3478.000,-2235.000,7951.000,0.000,0.000,0
2026-01-31 11:56:47,1513534,9514.000,1050.000,2763.000,5788.000,-2384.000,9922.000,0.000,0.000,0
2026-01-31 11:56:47,1513574,8905.000,1640.000,3015.000,7138.000,-1659.000,7818.000,0.000,0.000,0
2026-01-31 11:56:47,1513614,8132.000,1568.000,2584.000,2019.000,-1167.000,5278.000,0.000,0.000,0
2026-01-31 11:56:47,1513654,6606.000,-220.000,1681.000,107.000,-925.000,2452.000,0.000,0.000,0
2026-01-31 11:56:47,1513694,5500.000,1324.000,1781.000,3157.000,-143.000,309.000,0.000,0.000,0
2026-01-31 11:56:47,1513734,4621.000,1963.000,1481.000,3136.000,179.000,-418.000,0.000,0.000,0
2026-01-31 11:56:47,1513774,4622.000,2199.000,1400.000,2560.000,-12.000,-599.000,0.000,0.000,0
2026-01-31 11:56:47,1513814,5462.000,2704.000,1997.000,1495.000,-553.000,-279.000,0.000,0.000,0
2026-01-31 11:56:47,1513854,5927.000,2579.000,2486.000,548.000,-1080.000,327.000,0.000,0.000,0
2026-01-31 11:56:47,1513900,7841.000,1362.000,2336.000,-1121.000,-1415.000,62.000,0.000,0.000,0
2026-01-31 11:56:47,1513934,8402.000,1519.000,2108.000,-122.000,-1286.000,-374.000,0.000,0.000,0
2026-01-31 11:56:47,1513974,9447.000,2470.000,2038.000,996.000,-1001.000,-1161.000,0.000,0.000,0
2026-01-31 11:56:47,1514014,11132.000,3220.000,2196.000,460.000,-1071.000,-2221.000,0.000,0.000,0
2026-01-31 11:56:48,1514054,11361.000,4064.000,2155.000,556.000,-966.000,-3096.000,0.000,0.000,0
2026-01-31 11:56:48,1514094,8820.000,5435.000,1845.000,-1425.000,-417.000,-4461.000,0.000,0.000,0
2026-01-31 11:56:48,1514134,11008.000,7196.000,479.000,-7445.000,-264.000,-7330.000,0.000,0.000,0
2026-01-31 11:56:48,1514174,11079.000,6142.000,-331.000,-13002.000,227.000,-7469.000,0.000,0.000,0
2026-01-31 11:56:48,1514214,9664.000,5950.000,-257.000,-13245.000,444.000,-8773.000,0.000,0.000,0
2026-01-31 11:56:48,1514254,7778.000,5668.000,-378.000,-13947.000,-417.000,-10279.000,0.000,0.000,0
2026-01-31 11:56:48,1514294,5592.000,5561.000,-852.000,-13097.000,-235.000,-12983.000,0.000,0.000,0
2026-01-31 11:56:48,1514334,4848.000,4172.000,-47.000,-11303.000,-157.000,-13566.000,0.000,0.000,0
2026-01-31 11:56:48,1514374,4164.000,4287.000,445.000,-7530.000,380.000,-13762.000,0.000,0.000,0
2026-01-31 11:56:48,1514414,4264.000,3865.000,831.000,-3971.000,-68.000,-13028.000,0.000,0.000,0
2026-01-31 11:56:48,1514454,4352.000,4938.000,2232.000,-538.000,-1699.000,-11500.000,0.000,0.000,0
2026-01-31 11:56:48,1514494,5953.000,4706.000,2797.000,422.000,-1980.000,-8367.000,0.000,0.000,0
2026-01-31 11:56:48,1514534,4923.000,5267.000,3231.000,1239.000,-2055.000,-6406.000,0.000,0.000,0
2026-01-31 11:56:48,1514574,4138.000,4795.000,4637.000,1324.000,-2123.000,-4477.000,0.000,0.000,0
2026-01-31 11:56:48,1514614,3154.000,5703.000,5005.000,4029.000,-1525.000,-983.000,0.000,0.000,0
2026-01-31 11:56:48,1514654,4419.000,7580.000,4419.000,7309.000,-613.000,1667.000,0.000,0.000,0
2026-01-31 11:56:48,1514694,1534.000,8139.000,1556.000,3956.000,1589.000,483.000,0.000,0.000,0
2026-01-31 11:56:48,1514734,2767.000,7907.000,1074.000,3571.000,1538.000,-86.000,0.000,0.000,0
2026-01-31 11:56:48,1514774,1535.000,6676.000,835.000,3189.000,1487.000,-595.000,0.000,0.000,0
2026-01-31 11:56:48,1514814,443.000,6205.000,2147.000,3222.000,1305.000,-1074.000,0.000,0.000,0
2026-01-31 11:56:48,1514854,65.000,5899.000,1887.000,1160.000,1059.000,-1390.000,0.000,0.000,0
2026-01-31 11:56:48,1514894,1685.000,4010.000,3662.000,-535.000,1447.000,-1359.000,0.000,0.000,0
2026-01-31 11:56:48,1514934,1514.000,5043.000,1605.000,917.000,2176.000,-810.000,0.000,0.000,0
2026-01-31 11:56:48,1514974,482.000,7753.000,1994.000,1771.000,934.000,-1152.000,0.000,0.000,0
2026-01-31 11:56:48,1515014,1595.000,7739.000,3063.000,1599.000,553.000,-714.000,0.000,0.000,0
2026-01-31 11:56:49,1515054,246.000,9626.000,2281.000,1834.000,577.000,-623.000,0.000,0.000,0
2026-01-31 11:56:49,1515094,-383.000,11007.000,1349.000,1777.000,-951.000,-1049.000,0.000,0.000,0
2026-01-31 11:56:49,1515134,2823.000,10391.000,2393.000,1169.000,-699.000,-447.000,0.000,0.000,0
2026-01-31 11:56:49,1515174,-136.000,14435.000,597.000,2334.000,-327.000,5.000,0.000,0.000,0
2026-01-31 11:56:49,1515214,-2949.000,9636.000,-511.000,-3039.000,-1023.000,-342.000,0.000,0.000,0
2026-01-31 11:56:49,1515254,-1205.000,8843.000,-1420.000,-1507.000,-2207.000,-1046.000,0.000,0.000,0
2026-01-31 11:56:49,1515294,1236.000,5855.000,-1053.000,-392.000,-1657.000,59.000,0.000,0.000,0
2026-01-31 11:56:49,1515334,1492.000,6590.000,318.000,1759.000,-1483.000,296.000,0.000,0.000,0
2026-01-31 11:56:49,1515374,699.000,5420.000,1633.000,967.000,-765.000,500.000,0.000,0.000,0
2026-01-31 11:56:49,1515414,434.000,5580.000,2061.000,848.000,-261.000,855.000,0.000,0.000,0
2026-01-31 11:56:49,1515454,-316.000,5819.000,798.000,135.000,516.000,674.000,0.000,0.000,0
2026-01-31 11:56:49,1515494,-310.000,7287.000,1164.000,264.000,142.000,706.000,0.000,0.000,0
2026-01-31 11:56:49,1515534,779.000,8241.000,1329.000,295.000,726.000,1023.000,0.000,0.000,0
2026-01-31 11:56:49,1515574,1401.000,10014.000,919.000,33.000,841.000,1120.000,0.000,0.000,0
2026-01-31 11:56:49,1515614,-573.000,9343.000,839.000,-589.000,1427.000,501.000,0.000,0.000,0
2026-01-31 11:56:49,1515654,-164.000,10309.000,740.000,-22.000,952.000,859.000,0.000,0.000,0
2026-01-31 11:56:49,1515694,2165.000,11310.000,1620.000,996.000,732.000,236.000,0.000,0.000,0
2026-01-31 11:56:49,1515734,2272.000,10269.000,1260.000,-249.000,1395.000,1669.000,0.000,0.000,0
2026-01-31 11:56:49,1515774,3087.000,7585.000,332.000,-1825.000,2537.000,2621.000,0.000,0.000,0
2026-01-31 11:56:49,1515814,3646.000,8151.000,-430.000,-2218.000,4415.000,3844.000,0.000,0.000,0
2026-01-31 11:56:49,1515854,2963.000,7451.000,2256.000,2484.000,3533.000,1393.000,0.000,0.000,0
2026-01-31 11:56:49,1515894,-66.000,5479.000,677.000,1555.000,3300.000,1748.000,0.000,0.000,0
2026-01-31 11:56:49,1515934,1174.000,2948.000,2042.000,777.000,2110.000,1942.000,0.000,0.000,0
2026-01-31 11:56:49,1515974,465.000,1916.000,179.000,-327.000,2670.000,4891.000,0.000,0.000,0
2026-01-31 11:56:49,1516014,4810.000,5402.000,2845.000,943.000,1458.000,3873.000,0.000,0.000,0
2026-01-31 11:56:50,1516054,1917.000,6974.000,2309.000,382.000,1811.000,4157.000,0.000,0.000,0
2026-01-31 11:56:50,1516094,7047.000,4886.000,3108.000,-2570.000,2193.000,5808.000,0.000,0.000,0
2026-01-31 11:56:50,1516134,7471.000,10493.000,1804.000,2429.000,2443.000,2479.000,0.000,0.000,0
2026-01-31 11:56:50,1516174,2323.000,10315.000,-1042.000,922.000,-404.000,-1241.000,0.000,0.000,0
2026-01-31 11:56:50,1516214,5854.000,6849.000,479.000,-1177.000,-707.000,-102.000,0.000,0.000,0
2026-01-31 11:56:50,1516254,4051.000,10183.000,503.000,5940.000,-264.000,-723.000,0.000,0.000,0
2026-01-31 11:56:50,1516294,4196.000,9863.000,1705.000,-909.000,-612.000,1275.000,0.000,0.000,0
2026-01-31 11:56:50,1516334,6384.000,6599.000,1180.000,-2959.000,326.000,4084.000,0.000,0.000,0
2026-01-31 11:56:50,1516374,6667.000,5764.000,1052.000,-955.000,1027.000,4054.000,0.000,0.000,0
2026-01-31 11:56:50,1516414,4311.000,8033.000,-303.000,1409.000,-190.000,2389.000,0.000,0.000,0
2026-01-31 11:56:50,1516454,3013.000,5657.000,8.000,-1404.000,-822.000,-660.000,0.000,0.000,0
2026-01-31 11:56:50,1516494,1890.000,5130.000,1577.000,-1548.000,-309.000,-2272.000,0.000,0.000,0
2026-01-31 11:56:50,1516534,1722.000,4072.000,1158.000,-1429.000,778.000,-2049.000,0.000,0.000,0
2026-01-31 11:56:50,1516574,1493.000,8036.000,2031.000,756.000,1237.000,-2920.000,0.000,0.000,0
2026-01-31 11:56:50,1516614,3464.000,6877.000,2785.000,888.000,2659.000,-454.000,0.000,0.000,0
2026-01-31 11:56:50,1516654,4558.000,8559.000,1854.000,4755.000,3161.000,-793.000,0.000,0.000,0
2026-01-31 11:56:50,1516694,4200.000,8984.000,1425.000,4905.000,3163.000,-777.000,0.000,0.000,0
2026-01-31 11:56:50,1516734,4429.000,9125.000,1181.000,4870.000,3385.000,59.000,0.000,0.000,0
2026-01-31 11:56:50,1516774,4089.000,9357.000,-17.000,4116.000,3264.000,1035.000,0.000,0.000,0
2026-01-31 11:56:50,1516814,4603.000,9111.000,758.000,2746.000,1773.000,1672.000,0.000,0.000,0
2026-01-31 11:56:50,1516854,4087.000,7763.000,-268.000,954.000,1402.000,1396.000,0.000,0.000,0
2026-01-31 11:56:50,1516894,3548.000,7214.000,-1019.000,-281.000,602.000,401.000,0.000,0.000,0
2026-01-31 11:56:50,1516934,3200.000,5273.000,306.000,208.000,184.000,642.000,0.000,0.000,0
2026-01-31 11:56:50,1516974,2961.000,5450.000,372.000,1686.000,826.000,363.000,0.000,0.000,0
2026-01-31 11:56:50,1517014,2388.000,4287.000,854.000,-340.000,472.000,435.000,0.000,0.000,0
2026-01-31 11:56:51,1517054,3959.000,3797.000,1151.000,-275.000,276.000,437.000,0.000,0.000,0
2026-01-31 11:56:51,1517094,2786.000,5481.000,1163.000,1467.000,670.000,-327.000,0.000,0.000,0
2026-01-31 11:56:51,1517134,3338.000,5913.000,621.000,665.000,434.000,85.000,0.000,0.000,0
2026-01-31 11:56:51,1517174,2973.000,9240.000,1227.000,680.000,121.000,13.000,0.000,0.000,0
2026-01-31 11:56:51,1517214,3077.000,6591.000,1118.000,-1298.000,-383.000,-573.000,0.000,0.000,0
2026-01-31 11:56:51,1517254,4379.000,9217.000,1707.000,666.000,-459.000,-202.000,0.000,0.000,0
2026-01-31 11:56:51,1517294,4464.000,9818.000,2320.000,-619.000,320.000,-299.000,0.000,0.000,0
2026-01-31 11:56:51,1517334,5077.000,11743.000,1148.000,-1083.000,548.000,199.000,0.000,0.000,0
2026-01-31 11:56:51,1517374,4374.000,11213.000,503.000,-2988.000,908.000,1266.000,0.000,0.000,0
2026-01-31 11:56:51,1517414,5818.000,10065.000,596.000,-5187.000,1540.000,1933.000,0.000,0.000,0
2026-01-31 11:56:51,1517454,6681.000,6768.000,758.000,-6007.000,2191.000,3244.000,0.000,0.000,0
2026-01-31 11:56:51,1517494,6103.000,6246.000,2226.000,-4450.000,2260.000,3938.000,0.000,0.000,0
2026-01-31 11:56:51,1517534,5275.000,3936.000,2342.000,-4806.000,2313.000,3079.000,0.000,0.000,0
2026-01-31 11:56:51,1517574,4174.000,4946.000,2550.000,-4140.000,3090.000,2449.000,0.000,0.000,0
2026-01-31 11:56:51,1517614,4542.000,3638.000,2187.000,-4665.000,3784.000,1412.000,0.000,0.000,0
2026-01-31 11:56:51,1517654,4239.000,2713.000,2622.000,-3521.000,3570.000,355.000,0.000,0.000,0
2026-01-31 11:56:51,1517694,4779.000,4739.000,3154.000,-2302.000,3267.000,514.000,0.000,0.000,0
2026-01-31 11:56:51,1517734,5302.000,4682.000,3679.000,-1707.000,3363.000,1190.000,0.000,0.000,0
2026-01-31 11:56:51,1517774,4687.000,3839.000,4880.000,-1794.000,3018.000,1216.000,0.000,0.000,0
2026-01-31 11:56:51,1517850,5182.000,4799.000,4631.000,-1244.000,2251.000,2156.000,0.000,0.000,0
2026-01-31 11:56:51,1517896,5426.000,4381.000,6656.000,1335.000,1285.000,1998.000,0.000,0.000,0
2026-01-31 11:56:51,1517934,5500.000,3008.000,5957.000,859.000,1219.000,1059.000,0.000,0.000,0
2026-01-31 11:56:51,1517974,5404.000,3665.000,5680.000,123.000,570.000,-581.000,0.000,0.000,0
2026-01-31 11:56:51,1518014,4632.000,1934.000,5156.000,-1052.000,21.000,-566.000,0.000,0.000,0
2026-01-31 11:56:52,1518054,3968.000,2574.000,6156.000,2302.000,-139.000,-291.000,0.000,0.000,0
2026-01-31 11:56:52,1518094,3438.000,2967.000,4822.000,2554.000,293.000,-189.000,0.000,0.000,0
2026-01-31 11:56:52,1518134,2111.000,3742.000,4480.000,1025.000,1439.000,1532.000,0.000,0.000,0
2026-01-31 11:56:52,1518174,1774.000,4001.000,4729.000,2441.000,2107.000,1564.000,0.000,0.000,0
2026-01-31 11:56:52,1518214,2669.000,3872.000,5764.000,612.000,1769.000,1298.000,0.000,0.000,0
2026-01-31 11:56:52,1518254,2644.000,3066.000,5736.000,-277.000,1007.000,211.000,0.000,0.000,0
2026-01-31 11:56:52,1518294,3202.000,4451.000,5924.000,1112.000,785.000,-210.000,0.000,0.000,0
2026-01-31 11:56:52,1518334,3583.000,5821.000,6186.000,1485.000,660.000,-142.000,0.000,0.000,0
2026-01-31 11:56:52,1518374,3974.000,5626.000,6283.000,700.000,363.000,-69.000,0.000,0.000,0
2026-01-31 11:56:52,1518414,5656.000,6167.000,6436.000,1481.000,-61.000,-79.000,0.000,0.000,0
2026-01-31 11:56:52,1518454,5788.000,6505.000,7134.000,2284.000,-485.000,53.000,0.000,0.000,0
2026-01-31 11:56:52,1518494,5659.000,5506.000,4737.000,-169.000,104.000,95.000,0.000,0.000,0
2026-01-31 11:56:52,1518534,5713.000,5774.000,5075.000,394.000,40.000,6.000,0.000,0.000,0
2026-01-31 11:56:52,1518574,4760.000,3396.000,4879.000,409.000,180.000,-167.000,0.000,0.000,0
2026-01-31 11:56:52,1518614,3658.000,4816.000,5295.000,2245.000,61.000,-782.000,0.000,0.000,0
2026-01-31 11:56:52,1518654,3080.000,3425.000,4524.000,364.000,698.000,-1313.000,0.000,0.000,0
2026-01-31 11:56:52,1518694,3126.000,5668.000,4482.000,1136.000,1748.000,-2040.000,0.000,0.000,0
2026-01-31 11:56:52,1518734,2130.000,3876.000,3593.000,358.000,2885.000,-1258.000,0.000,0.000,0
2026-01-31 11:56:52,1518774,2735.000,6057.000,3856.000,2425.000,2873.000,119.000,0.000,0.000,0
2026-01-31 11:56:52,1518814,2328.000,4562.000,3425.000,1212.000,1993.000,1581.000,0.000,0.000,0
2026-01-31 11:56:52,1518854,3306.000,6301.000,4253.000,3864.000,1277.000,1020.000,0.000,0.000,0
2026-01-31 11:56:52,1518894,2066.000,7822.000,4461.000,2801.000,351.000,-242.000,0.000,0.000,0
2026-01-31 11:56:52,1518934,3609.000,9189.000,4454.000,2230.000,-1129.000,1916.000,0.000,0.000,0
2026-01-31 11:56:52,1518974,3964.000,7996.000,4991.000,2.000,-1264.000,2153.000,0.000,0.000,0
2026-01-31 11:56:52,1519014,4832.000,6876.000,5729.000,-655.000,-1045.000,469.000,0.000,0.000,0
2026-01-31 11:56:53,1519054,4898.000,5852.000,7045.000,2314.000,-1218.000,-611.000,0.000,0.000,0
2026-01-31 11:56:53,1519094,5296.000,5740.000,7030.000,2773.000,-1263.000,-2512.000,0.000,0.000,0
2026-01-31 11:56:53,1519134,4420.000,6522.000,4723.000,808.000,-78.000,-2863.000,0.000,0.000,0
2026-01-31 11:56:53,1519174,2941.000,4853.000,4404.000,-1352.000,-49.000,-1533.000,0.000,0.000,0
2026-01-31 11:56:53,1519214,1705.000,4590.000,4380.000,1837.000,1001.000,-1108.000,0.000,0.000,0
2026-01-31 11:56:53,1519254,1805.000,4740.000,2888.000,44.000,1869.000,388.000,0.000,0.000,0
2026-01-31 11:56:53,1519294,1757.000,5429.000,3743.000,-3036.000,1105.000,859.000,0.000,0.000,0
2026-01-31 11:56:53,1519334,1447.000,3846.000,4154.000,-5677.000,505.000,1185.000,0.000,0.000,0
2026-01-31 11:56:53,1519374,2074.000,4872.000,5217.000,-1599.000,-159.000,281.000,0.000,0.000,0
2026-01-31 11:56:53,1519414,2110.000,3849.000,5141.000,-1151.000,-207.000,-476.000,0.000,0.000,0
2026-01-31 11:56:53,1519454,2337.000,9332.000,6437.000,-269.000,22.000,36.000,0.000,0.000,0
2026-01-31 11:56:53,1519494,3059.000,4006.000,5799.000,-4343.000,34.000,720.000,0.000,0.000,0
2026-01-31 11:56:53,1519534,4058.000,7658.000,7244.000,4351.000,-310.000,-724.000,0.000,0.000,0
2026-01-31 11:56:53,1519574,4912.000,7085.000,6691.000,-1385.000,-656.000,367.000,0.000,0.000,0
2026-01-31 11:56:53,1519614,4415.000,6915.000,4346.000,185.000,310.000,1046.000,0.000,0.000,0
2026-01-31 11:56:53,1519654,4128.000,6171.000,4197.000,-3017.000,-26.000,2067.000,0.000,0.000,0
2026-01-31 11:56:53,1519694,3339.000,3411.000,4376.000,-2702.000,-1292.000,2193.000,0.000,0.000,0
2026-01-31 11:56:53,1519734,2928.000,4649.000,4256.000,-431.000,-1527.000,653.000,0.000,0.000,0
2026-01-31 11:56:53,1519774,4502.000,4383.000,3785.000,-2773.000,-533.000,-1221.000,0.000,0.000,0
2026-01-31 11:56:53,1519814,2695.000,3896.000,4064.000,-1621.000,-614.000,-378.000,0.000,0.000,0
2026-01-31 11:56:53,1519854,3394.000,3715.000,5184.000,381.000,-37.000,-895.000,0.000,0.000,0
2026-01-31 11:56:53,1519894,2475.000,4129.000,5745.000,381.000,242.000,-932.000,0.000,0.000,0
2026-01-31 11:56:53,1519939,4074.000,6140.000,5653.000,1158.000,906.000,-738.000,0.000,0.000,0
2026-01-31 11:56:53,1519974,3457.000,5321.000,5952.000,2109.000,1394.000,-568.000,0.000,0.000,0
2026-01-31 11:56:53,1520014,2511.000,9797.000,5058.000,4040.000,1560.000,-979.000,0.000,0.000,0
2026-01-31 11:56:54,1520054,3287.000,3848.000,5702.000,-2287.000,1453.000,-800.000,0.000,0.000,0
2026-01-31 11:56:54,1520094,3625.000,10815.000,7014.000,7368.000,848.000,-1677.000,0.000,0.000,0
2026-01-31 11:56:54,1520134,5214.000,9440.000,4536.000,1519.000,1201.000,-235.000,0.000,0.000,0
2026-01-31 11:56:54,1520174,3800.000,5915.000,5510.000,-1841.000,869.000,-218.000,0.000,0.000,0
2026-01-31 11:56:54,1520214,3825.000,3460.000,5442.000,-1649.000,-87.000,-1796.000,0.000,0.000,0
2026-01-31 11:56:54,1520254,2970.000,4137.000,4704.000,1077.000,-517.000,-1672.000,0.000,0.000,0
2026-01-31 11:56:54,1520294,2342.000,5919.000,5915.000,3299.000,-319.000,-1109.000,0.000,0.000,0
2026-01-31 11:56:54,1520334,1632.000,4039.000,5365.000,-3501.000,270.000,112.000,0.000,0.000,0
2026-01-31 11:56:54,1520374,1929.000,2474.000,3742.000,-1045.000,809.000,-279.000,0.000,0.000,0
2026-01-31 11:56:54,1520414,367.000,3338.000,4005.000,416.000,1192.000,582.000,0.000,0.000,0
2026-01-31 11:56:54,1520454,890.000,4206.000,3931.000,1293.000,748.000,471.000,0.000,0.000,0
2026-01-31 11:56:54,1520494,1226.000,5478.000,4739.000,510.000,135.000,9.000,0.000,0.000,0
2026-01-31 11:56:54,1520534,1345.000,5088.000,5987.000,-372.000,-934.000,-425.000,0.000,0.000,0
2026-01-31 11:56:54,1520574,1960.000,7117.000,5967.000,-305.000,-1101.000,-85.000,0.000,0.000,0
2026-01-31 11:56:54,1520614,2124.000,5752.000,5511.000,-2561.000,-1292.000,-8.000,0.000,0.000,0
2026-01-31 11:56:54,1520654,5033.000,8232.000,6208.000,-1022.000,-2043.000,116.000,0.000,0.000,0
2026-01-31 11:56:54,1520694,3831.000,5893.000,5711.000,-1394.000,-2158.000,760.000,0.000,0.000,0
2026-01-31 11:56:54,1520734,4279.000,8674.000,4390.000,966.000,-1666.000,1631.000,0.000,0.000,0
2026-01-31 11:56:54,1520774,3628.000,7522.000,3504.000,-1761.000,-1264.000,2025.000,0.000,0.000,0
2026-01-31 11:56:54,1520814,3572.000,5651.000,4328.000,-6326.000,-2738.000,2695.000,0.000,0.000,0
2026-01-31 11:56:54,1520854,3256.000,5825.000,5568.000,-3339.000,-3298.000,815.000,0.000,0.000,0
2026-01-31 11:56:54,1520894,3086.000,5671.000,4737.000,-6735.000,-2882.000,-5.000,0.000,0.000,0
2026-01-31 11:56:54,1520934,3602.000,3304.000,5107.000,-6531.000,-2076.000,-1263.000,0.000,0.000,0
2026-01-31 11:56:54,1520974,3390.000,114.000,5037.000,-2984.000,-1353.000,-2198.000,0.000,0.000,0
2026-01-31 11:56:54,1521014,3700.000,4616.000,6892.000,262.000,-1152.000,-2022.000,0.000,0.000,0
2026-01-31 11:56:55,1521054,5935.000,1564.000,6497.000,-2768.000,-819.000,-786.000,0.000,0.000,0
2026-01-31 11:56:55,1521094,5498.000,3302.000,6947.000,306.000,34.000,-137.000,0.000,0.000,0
2026-01-31 11:56:55,1521134,4399.000,2045.000,6731.000,-2246.000,550.000,803.000,0.000,0.000,0
2026-01-31 11:56:55,1521174,3437.000,1494.000,6436.000,2163.000,975.000,546.000,0.000,0.000,0
2026-01-31 11:56:55,1521214,7492.000,3956.000,6226.000,8721.000,806.000,-2459.000,0.000,0.000,0
2026-01-31 11:56:55,1521254,5455.000,6317.000,6888.000,7913.000,436.000,-2499.000,0.000,0.000,0
2026-01-31 11:56:55,1521294,4647.000,5044.000,4423.000,5568.000,782.000,-2970.000,0.000,0.000,0
2026-01-31 11:56:55,1521334,4912.000,5580.000,3968.000,7067.000,918.000,-4128.000,0.000,0.000,0
2026-01-31 11:56:55,1521374,5052.000,6217.000,5336.000,4829.000,439.000,-5203.000,0.000,0.000,0
2026-01-31 11:56:55,1521414,4374.000,4621.000,4430.000,792.000,-21.000,-5237.000,0.000,0.000,0
2026-01-31 11:56:55,1521454,2297.000,2965.000,2714.000,1111.000,155.000,-4958.000,0.000,0.000,0
2026-01-31 11:56:55,1521494,1538.000,4487.000,2453.000,1547.000,-1010.000,-4430.000,0.000,0.000,0
2026-01-31 11:56:55,1521534,908.000,3721.000,1983.000,71.000,-1106.000,-2888.000,0.000,0.000,0
2026-01-31 11:56:55,1521574,-708.000,5714.000,2706.000,4072.000,-1808.000,-462.000,0.000,0.000,0
2026-01-31 11:56:55,1521614,-976.000,7881.000,1860.000,4949.000,-1941.000,1139.000,0.000,0.000,0
2026-01-31 11:56:55,1521654,-449.000,9447.000,3281.000,4564.000,-2938.000,737.000,0.000,0.000,0
2026-01-31 11:56:55,1521694,-371.000,9510.000,2101.000,5099.000,-2295.000,570.000,0.000,0.000,0
2026-01-31 11:56:55,1521734,263.000,11963.000,2800.000,6750.000,-2352.000,-365.000,0.000,0.000,0
2026-01-31 11:56:55,1521774,1193.000,12060.000,2813.000,5279.000,-2346.000,-474.000,0.000,0.000,0
2026-01-31 11:56:55,1521814,1760.000,11798.000,2616.000,5114.000,-2758.000,-121.000,0.000,0.000,0
2026-01-31 11:56:55,1521854,2763.000,11310.000,2785.000,1830.000,-2973.000,-9.000,0.000,0.000,0
2026-01-31 11:56:55,1521894,2793.000,9886.000,2058.000,-2432.000,-2530.000,1780.000,0.000,0.000,0
2026-01-31 11:56:55,1521934,2827.000,6452.000,949.000,-2333.000,-2017.000,3630.000,0.000,0.000,0
2026-01-31 11:56:55,1521974,2850.000,6386.000,1025.000,-750.000,-1638.000,3483.000,0.000,0.000,0
2026-01-31 11:56:55,1522014,3117.000,4466.000,721.000,-3608.000,-1348.000,3430.000,0.000,0.000,0
2026-01-31 11:56:56,1522054,3422.000,4334.000,420.000,-4994.000,-509.000,3046.000,0.000,0.000,0
2026-01-31 11:56:56,1522094,3718.000,4321.000,927.000,-5215.000,-169.000,3133.000,0.000,0.000,0
2026-01-31 11:56:56,1522134,4083.000,4832.000,1796.000,-5275.000,-18.000,3876.000,0.000,0.000,0
2026-01-31 11:56:56,1522174,5150.000,5443.000,1955.000,-5566.000,344.000,5568.000,0.000,0.000,0
2026-01-31 11:56:56,1522214,6792.000,6536.000,2260.000,-3524.000,-42.000,6348.000,0.000,0.000,0
2026-01-31 11:56:56,1522254,7364.000,6127.000,2374.000,-1588.000,-213.000,5728.000,0.000,0.000,0
2026-01-31 11:56:56,1522294,7761.000,6683.000,2387.000,-774.000,17.000,6294.000,0.000,0.000,0
2026-01-31 11:56:56,1522334,8209.000,5857.000,2695.000,-2016.000,-707.000,9046.000,0.000,0.000,0
2026-01-31 11:56:56,1522374,7255.000,3242.000,3327.000,-201.000,-2071.000,8665.000,0.000,0.000,0
2026-01-31 11:56:56,1522414,7944.000,2017.000,2909.000,2175.000,-2253.000,6896.000,0.000,0.000,0
2026-01-31 11:56:56,1522454,7918.000,1665.000,1994.000,3349.000,-1685.000,6201.000,0.000,0.000,0
2026-01-31 11:56:56,1522494,6558.000,1330.000,1407.000,5474.000,-870.000,5086.000,0.000,0.000,0
2026-01-31 11:56:56,1522534,5361.000,2184.000,1502.000,7144.000,-334.000,3896.000,0.000,0.000,0
2026-01-31 11:56:56,1522574,4718.000,1689.000,1431.000,6179.000,-49.000,3132.000,0.000,0.000,0
2026-01-31 11:56:56,1522614,4767.000,1982.000,1629.000,5975.000,-153.000,2424.000,0.000,0.000,0
2026-01-31 11:56:56,1522654,5491.000,2392.000,2350.000,5281.000,-951.000,2403.000,0.000,0.000,0
2026-01-31 11:56:56,1522694,7146.000,2904.000,3201.000,3710.000,-2064.000,2441.000,0.000,0.000,0
2026-01-31 11:56:56,1522734,8225.000,2510.000,3059.000,195.000,-2168.000,2261.000,0.000,0.000,0
2026-01-31 11:56:56,1522774,8967.000,1637.000,2738.000,-436.000,-1919.000,1605.000,0.000,0.000,0
2026-01-31 11:56:56,1522814,9917.000,1564.000,2439.000,57.000,-1356.000,486.000,0.000,0.000,0
2026-01-31 11:56:56,1522854,11502.000,1799.000,2411.000,1066.000,-1017.000,-220.000,0.000,0.000,0
2026-01-31 11:56:56,1522894,10398.000,3008.000,2929.000,1877.000,-176.000,-731.000,0.000,0.000,0
2026-01-31 11:56:56,1522934,9044.000,3204.000,2243.000,-464.000,554.000,-1590.000,0.000,0.000,0
2026-01-31 11:56:56,1522974,9602.000,3246.000,1388.000,-3305.000,807.000,-1634.000,0.000,0.000,0
2026-01-31 11:56:56,1523014,9033.000,2053.000,1023.000,-4269.000,1494.000,-1583.000,0.000,0.000,0
2026-01-31 11:56:57,1523054,7235.000,1364.000,1057.000,-3299.000,2184.000,-2394.000,0.000,0.000,0
2026-01-31 11:56:57,1523094,5572.000,1110.000,778.000,-3467.000,2338.000,-3887.000,0.000,0.000,0
2026-01-31 11:56:57,1523134,5747.000,1380.000,427.000,-3189.000,2218.000,-4203.000,0.000,0.000,0
2026-01-31 11:56:57,1523174,6111.000,1643.000,292.000,-1820.000,2226.000,-3727.000,0.000,0.000,0
2026-01-31 11:56:57,1523214,6193.000,2153.000,407.000,-139.000,2060.000,-2689.000,0.000,0.000,0
2026-01-31 11:56:57,1523254,6985.000,2594.000,811.000,583.000,1468.000,-1214.000,0.000,0.000,0
2026-01-31 11:56:57,1523294,8248.000,2749.000,1275.000,257.000,542.000,449.000,0.000,0.000,0
2026-01-31 11:56:57,1523334,8517.000,2235.000,1602.000,-379.000,-343.000,1634.000,0.000,0.000,0
2026-01-31 11:56:57,1523374,8923.000,2634.000,1845.000,-731.000,-1430.000,2589.000,0.000,0.000,0
2026-01-31 11:56:57,1523414,10193.000,2393.000,2024.000,-1229.000,-2407.000,3986.000,0.000,0.000,0
2026-01-31 11:56:57,1523454,8732.000,661.000,2674.000,-509.000,-2687.000,4398.000,0.000,0.000,0
2026-01-31 11:56:57,1523494,8824.000,461.000,2280.000,-20.000,-1737.000,2311.000,0.000,0.000,0
2026-01-31 11:56:57,1523534,8835.000,175.000,1343.000,-1128.000,-693.000,982.000,0.000,0.000,0
2026-01-31 11:56:57,1523574,6744.000,-130.000,1267.000,496.000,44.000,243.000,0.000,0.000,0
2026-01-31 11:56:57,1523614,5100.000,910.000,1895.000,3287.000,351.000,-384.000,0.000,0.000,0
2026-01-31 11:56:57,1523654,4303.000,1613.000,2117.000,3200.000,576.000,-711.000,0.000,0.000,0
2026-01-31 11:56:57,1523694,4527.000,2100.000,2213.000,2065.000,439.000,-738.000,0.000,0.000,0
2026-01-31 11:56:57,1523734,5122.000,2534.000,3324.000,419.000,-259.000,-351.000,0.000,0.000,0
2026-01-31 11:56:57,1523774,6200.000,2709.000,3800.000,-1558.000,-729.000,-257.000,0.000,0.000,0
2026-01-31 11:56:57,1523814,7283.000,2786.000,3719.000,-3239.000,-955.000,-114.000,0.000,0.000,0
2026-01-31 11:56:57,1523854,9238.000,2566.000,2779.000,-3879.000,-29.000,-779.000,0.000,0.000,0
2026-01-31 11:56:57,1523894,9741.000,2499.000,2426.000,-3248.000,717.000,-1470.000,0.000,0.000,0
2026-01-31 11:56:57,1523939,9526.000,3030.000,2978.000,-885.000,854.000,-2337.000,0.000,0.000,0
