datetime_local,uptime_ms,acc_x,acc_y,acc_z,gyro_x,gyro_y,gyro_z,speed_mps,turn_rate_deg_s,gps_valid
2026-01-31 13:38:36,7622694,4202.000,1242.000,7578.000,2994.000,1040.000,1541.000,0.000,0.000,1
2026-01-31 13:38:36,7622734,3732.000,1537.000,8163.000,730.000,1750.000,1815.000,0.000,0.000,1
2026-01-31 13:38:36,7622774,2443.000,-1530.000,6950.000,-79.000,1290.000,1927.000,0.000,0.000,1
2026-01-31 13:38:36,7622814,1861.000,-796.000,6083.000,1369.000,1019.000,1007.000,0.000,0.000,1
2026-01-31 13:38:36,7622854,1532.000,-1343.000,5348.000,-85.000,1177.000,662.000,0.000,0.000,1
2026-01-31 13:38:36,7622897,1816.000,-1179.000,5557.000,-513.000,1061.000,1185.000,0.000,0.000,1
2026-01-31 13:38:36,7622936,2139.000,-1041.000,6138.000,-695.000,935.000,1403.000,0.000,0.000,1
2026-01-31 13:38:36,7622974,2518.000,-1447.000,6996.000,-1464.000,690.000,1252.000,0.000,0.000,1
2026-01-31 13:38:36,7623014,2742.000,-1901.000,8216.000,-1371.000,150.000,621.000,0.000,0.000,1
2026-01-31 13:38:37,7623054,2642.000,-1464.000,8823.000,-2006.000,475.000,259.000,0.000,0.000,1
2026-01-31 13:38:37,7623094,2232.000,-1828.000,9522.000,-1736.000,519.000,297.000,0.000,0.000,1
2026-01-31 13:38:37,7623134,2324.000,-1322.000,10581.000,77.000,422.000,821.000,0.000,0.000,1
2026-01-31 13:38:37,7623174,1550.000,-1199.000,10804.000,1683.000,-14.000,-520.000,0.000,0.000,1
2026-01-31 13:38:37,7623214,645.000,-1058.000,9337.000,2543.000,-183.000,-2178.000,0.000,0.000,1
2026-01-31 13:38:37,7623254,2935.000,-117.000,6888.000,4243.000,-1287.000,2145.000,0.000,0.000,1
2026-01-31 13:38:37,7623294,3563.000,686.000,5453.000,5767.000,85.000,2059.000,0.000,0.000,1
2026-01-31 13:38:37,7623334,3974.000,730.000,5210.000,7919.000,1380.000,3494.000,0.000,0.000,1
2026-01-31 13:38:37,7623374,3246.000,-125.000,4976.000,9897.000,2621.000,5061.000,0.000,0.000,1
2026-01-31 13:38:37,7623414,2495.000,53.000,4556.000,14511.000,3397.000,6126.000,0.000,0.000,1
2026-01-31 13:38:37,7623454,2317.000,3638.000,4079.000,19154.000,3922.000,6128.000,0.000,0.000,1
2026-01-31 13:38:37,7623494,827.000,8181.000,3681.000,18855.000,4319.000,5074.000,0.000,0.000,1
2026-01-31 13:38:37,7623534,619.000,8598.000,2387.000,16088.000,4452.000,4164.000,0.000,0.000,1
2026-01-31 13:38:37,7623574,725.000,9939.000,1155.000,15619.000,4080.000,2010.000,0.000,0.000,1
2026-01-31 13:38:37,7623614,198.000,11098.000,791.000,13361.000,3941.000,644.000,0.000,0.000,1
2026-01-31 13:38:37,7623654,417.000,11792.000,-50.000,10426.000,4565.000,297.000,0.000,0.000,1
2026-01-31 13:38:37,7623694,-37.000,10997.000,-597.000,8616.000,5732.000,511.000,0.000,0.000,1
2026-01-31 13:38:37,7623734,174.000,12703.000,1748.000,9158.000,6076.000,361.000,0.000,0.000,1
2026-01-31 13:38:37,7623774,651.000,10185.000,2637.000,3673.000,4928.000,-660.000,0.000,0.000,1
2026-01-31 13:38:37,7623814,2210.000,9412.000,2199.000,1839.000,2623.000,104.000,0.000,0.000,1
2026-01-31 13:38:37,7623854,2039.000,7092.000,1486.000,157.000,1287.000,597.000,0.000,0.000,1
2026-01-31 13:38:37,7623894,1360.000,5459.000,739.000,-728.000,969.000,410.000,0.000,0.000,1
2026-01-31 13:38:37,7623934,731.000,4856.000,-75.000,-1387.000,1116.000,-324.000,0.000,0.000,1
2026-01-31 13:38:37,7623974,252.000,4611.000,-677.000,-1247.000,1212.000,-520.000,0.000,0.000,1
2026-01-31 13:38:37,7624014,98.000,5651.000,-949.000,77.000,996.000,-448.000,0.000,0.000,1
2026-01-31 13:38:38,7624054,144.000,6344.000,-625.000,1340.000,627.000,-276.000,0.000,0.000,1
2026-01-31 13:38:38,7624094,251.000,7946.000,29.000,2960.000,-208.000,-582.000,0.000,0.000,1
2026-01-31 13:38:38,7624134,670.000,9983.000,474.000,3495.000,-851.000,-1532.000,0.000,0.000,1
2026-01-31 13:38:38,7624174,750.000,10899.000,283.000,2778.000,-1229.000,-1784.000,0.000,0.000,1
2026-01-31 13:38:38,7624214,532.000,12080.000,334.000,2366.000,-1705.000,-1225.000,0.000,0.000,1
2026-01-31 13:38:38,7624254,643.000,12187.000,-149.000,370.000,-2527.000,-252.000,0.000,0.000,1
2026-01-31 13:38:38,7624294,769.000,11047.000,-1865.000,-2102.000,-2737.000,212.000,0.000,0.000,1
2026-01-31 13:38:38,7624334,1112.000,10028.000,-3246.000,-3302.000,-2303.000,958.000,0.000,0.000,1
2026-01-31 13:38:38,7624374,853.000,8374.000,-3226.000,-2569.000,-1629.000,1323.000,0.000,0.000,1
2026-01-31 13:38:38,7624417,527.000,4751.000,-1374.000,-797.000,-1657.000,728.000,0.000,0.000,1
2026-01-31 13:38:38,7624456,361.000,4266.000,-584.000,-703.000,-1568.000,247.000,0.000,0.000,1
2026-01-31 13:38:38,7624494,216.000,4453.000,-664.000,-570.000,-1470.000,-173.000,0.000,0.000,1
2026-01-31 13:38:38,7624534,-371.000,5106.000,-702.000,-537.000,-918.000,-1284.000,0.000,0.000,1
2026-01-31 13:38:38,7624574,-387.000,7259.000,-630.000,497.000,-19.000,-1635.000,0.000,0.000,1
2026-01-31 13:38:38,7624614,-425.000,8500.000,-1367.000,-175.000,748.000,-1212.000,0.000,0.000,1
2026-01-31 13:38:38,7624654,307.000,9523.000,-1899.000,347.000,829.000,-369.000,0.000,0.000,1
2026-01-31 13:38:38,7624694,877.000,10333.000,-1303.000,1239.000,1271.000,-261.000,0.000,0.000,1
2026-01-31 13:38:38,7624734,912.000,10458.000,-1606.000,668.000,1953.000,450.000,0.000,0.000,1
2026-01-31 13:38:38,7624774,477.000,10959.000,-1376.000,1924.000,1814.000,1079.000,0.000,0.000,1
2026-01-31 13:38:38,7624814,791.000,9786.000,-587.000,956.000,1187.000,1191.000,0.000,0.000,1
2026-01-31 13:38:38,7624854,2126.000,9359.000,-1210.000,329.000,390.000,510.000,0.000,0.000,1
2026-01-31 13:38:38,7624894,1928.000,7102.000,-1496.000,-48.000,357.000,188.000,0.000,0.000,1
2026-01-31 13:38:38,7624934,471.000,5527.000,-965.000,-191.000,643.000,-446.000,0.000,0.000,1
2026-01-31 13:38:38,7624974,54.000,4675.000,-578.000,-305.000,431.000,-792.000,0.000,0.000,1
2026-01-31 13:38:38,7625014,-354.000,4305.000,-479.000,-347.000,148.000,-1284.000,0.000,0.000,1
2026-01-31 13:38:39,7625054,-592.000,4856.000,-450.000,531.000,-127.000,-1444.000,0.000,0.000,1
2026-01-31 13:38:39,7625094,-700.000,6188.000,38.000,874.000,-364.000,-1489.000,0.000,0.000,1
2026-01-31 13:38:39,7625134,-939.000,7094.000,332.000,1093.000,-750.000,-1410.000,0.000,0.000,1
2026-01-31 13:38:39,7625174,-845.000,8519.000,272.000,1137.000,-1356.000,-1131.000,0.000,0.000,1
2026-01-31 13:38:39,7625214,-591.000,9700.000,-286.000,1188.000,-1654.000,-744.000,0.000,0.000,1
2026-01-31 13:38:39,7625254,-248.000,10991.000,-924.000,979.000,-1728.000,-565.000,0.000,0.000,1
2026-01-31 13:38:39,7625294,-487.000,11937.000,-1071.000,178.000,-1926.000,-362.000,0.000,0.000,1
2026-01-31 13:38:39,7625334,-500.000,10842.000,-2589.000,-1581.000,-1634.000,-55.000,0.000,0.000,1
2026-01-31 13:38:39,7625374,-1.000,9891.000,-5186.000,-2429.000,-52.000,614.000,0.000,0.000,1
2026-01-31 13:38:39,7625414,380.000,8765.000,-5008.000,-980.000,1730.000,807.000,0.000,0.000,1
2026-01-31 13:38:39,7625454,320.000,6455.000,-2609.000,101.000,2157.000,1045.000,0.000,0.000,1
2026-01-31 13:38:39,7625494,518.000,5990.000,-369.000,1173.000,985.000,1088.000,0.000,0.000,1
2026-01-31 13:38:39,7625534,499.000,5141.000,542.000,-334.000,-250.000,1093.000,0.000,0.000,1
2026-01-31 13:38:39,7625574,-318.000,4720.000,428.000,-1153.000,-862.000,1209.000,0.000,0.000,1
2026-01-31 13:38:39,7625614,-1061.000,5593.000,-178.000,-1788.000,-1065.000,1404.000,0.000,0.000,1
2026-01-31 13:38:39,7625654,-1264.000,7362.000,-1318.000,-2284.000,-1034.000,1583.000,0.000,0.000,1
2026-01-31 13:38:39,7625694,-585.000,9646.000,-2320.000,-1640.000,-341.000,1947.000,0.000,0.000,1
2026-01-31 13:38:39,7625734,608.000,9419.000,-2511.000,-692.000,280.000,1419.000,0.000,0.000,1
2026-01-31 13:38:39,7625774,860.000,10261.000,-2205.000,1154.000,532.000,1083.000,0.000,0.000,1
2026-01-31 13:38:39,7625814,1133.000,10739.000,-1467.000,2671.000,739.000,1115.000,0.000,0.000,1
2026-01-31 13:38:39,7625854,1214.000,10975.000,-244.000,2238.000,416.000,429.000,0.000,0.000,1
2026-01-31 13:38:39,7625894,2515.000,10303.000,-622.000,394.000,-463.000,-489.000,0.000,0.000,1
2026-01-31 13:38:39,7625934,3446.000,9200.000,-1101.000,-350.000,-383.000,-545.000,0.000,0.000,1
2026-01-31 13:38:39,7625974,2264.000,6856.000,-1084.000,-993.000,230.000,-918.000,0.000,0.000,1
2026-01-31 13:38:39,7626014,1108.000,5151.000,-827.000,-1107.000,478.000,-926.000,0.000,0.000,1
2026-01-31 13:38:40,7626054,358.000,3566.000,-426.000,-756.000,693.000,-1057.000,0.000,0.000,1
2026-01-31 13:38:40,7626094,-264.000,4032.000,-249.000,552.000,514.000,-1273.000,0.000,0.000,1
2026-01-31 13:38:40,7626134,-643.000,4959.000,187.000,622.000,516.000,-1381.000,0.000,0.000,1
2026-01-31 13:38:40,7626174,-871.000,6673.000,-69.000,1297.000,341.000,-1412.000,0.000,0.000,1
2026-01-31 13:38:40,7626214,-718.000,8287.000,-76.000,1871.000,-593.000,-1180.000,0.000,0.000,1
2026-01-31 13:38:40,7626254,-272.000,10226.000,70.000,2375.000,-1411.000,-574.000,0.000,0.000,1
2026-01-31 13:38:40,7626294,607.000,11685.000,-431.000,1587.000,-1720.000,-661.000,0.000,0.000,1
2026-01-31 13:38:40,7626334,-59.000,12011.000,-219.000,461.000,-1722.000,-838.000,0.000,0.000,1
2026-01-31 13:38:40,7626374,-584.000,12361.000,-981.000,-821.000,-1799.000,-483.000,0.000,0.000,1
2026-01-31 13:38:40,7626417,-316.000,10684.000,-3641.000,-3381.000,-1680.000,704.000,0.000,0.000,1
2026-01-31 13:38:40,7626456,-144.000,9111.000,-3417.000,-2166.000,-1021.000,1211.000,0.000,0.000,1
2026-01-31 13:38:40,7626494,291.000,7719.000,-2810.000,-1751.000,-773.000,1228.000,0.000,0.000,1
2026-01-31 13:38:40,7626534,650.000,5425.000,-1412.000,-1429.000,-653.000,1043.000,0.000,0.000,1
2026-01-31 13:38:40,7626574,702.000,3801.000,-656.000,-1506.000,-812.000,816.000,0.000,0.000,1
2026-01-31 13:38:40,7626614,367.000,4003.000,-600.000,-685.000,-1200.000,334.000,0.000,0.000,1
2026-01-31 13:38:40,7626654,-134.000,4204.000,-740.000,-685.000,-1088.000,357.000,0.000,0.000,1
2026-01-31 13:38:40,7626697,-379.000,6967.000,-1023.000,-145.000,-693.000,878.000,0.000,0.000,1
2026-01-31 13:38:40,7626734,-546.000,8125.000,-887.000,84.000,-495.000,1045.000,0.000,0.000,1
2026-01-31 13:38:40,7626774,437.000,9888.000,-392.000,394.000,487.000,1395.000,0.000,0.000,1
2026-01-31 13:38:40,7626814,238.000,10616.000,67.000,570.000,2242.000,585.000,0.000,0.000,1
2026-01-31 13:38:40,7626854,105.000,11637.000,407.000,864.000,2717.000,750.000,0.000,0.000,1
2026-01-31 13:38:40,7626894,611.000,12315.000,79.000,771.000,2749.000,535.000,0.000,0.000,1
2026-01-31 13:38:40,7626934,1672.000,10339.000,259.000,-576.000,1983.000,-144.000,0.000,0.000,1
2026-01-31 13:38:40,7626974,3137.000,8403.000,-428.000,-2345.000,1514.000,-1109.000,0.000,0.000,1
2026-01-31 13:38:40,7627014,3188.000,7146.000,-1106.000,-1385.000,2073.000,-1034.000,0.000,0.000,1
2026-01-31 13:38:41,7627054,1980.000,5246.000,-795.000,-356.000,2441.000,-914.000,0.000,0.000,1
2026-01-31 13:38:41,7627094,709.000,3919.000,-269.000,777.000,2539.000,-435.000,0.000,0.000,1
2026-01-31 13:38:41,7627134,-159.000,3874.000,-46.000,1593.000,2634.000,-133.000,0.000,0.000,1
2026-01-31 13:38:41,7627174,-864.000,3778.000,-325.000,1813.000,2856.000,293.000,0.000,0.000,1
2026-01-31 13:38:41,7627214,-1665.000,6603.000,143.000,3066.000,2102.000,76.000,0.000,0.000,1
2026-01-31 13:38:41,7627254,-1725.000,7859.000,800.000,2885.000,1006.000,38.000,0.000,0.000,1
2026-01-31 13:38:41,7627294,-877.000,10536.000,1023.000,2574.000,-333.000,-319.000,0.000,0.000,1
2026-01-31 13:38:41,7627334,-205.000,11979.000,848.000,1049.000,-1060.000,-684.000,0.000,0.000,1
2026-01-31 13:38:41,7627374,-894.000,12958.000,694.000,-1.000,-1362.000,-1171.000,0.000,0.000,1
2026-01-31 13:38:41,7627414,-1871.000,13734.000,-7.000,-2427.000,-1886.000,-1249.000,0.000,0.000,1
2026-01-31 13:38:41,7627454,-1804.000,11610.000,-712.000,-4819.000,-3259.000,-1143.000,0.000,0.000,1
2026-01-31 13:38:41,7627494,-1003.000,11426.000,-840.000,-6489.000,-4459.000,-833.000,0.000,0.000,1
2026-01-31 13:38:41,7627534,-259.000,9475.000,-1948.000,-8734.000,-4291.000,988.000,0.000,0.000,1
2026-01-31 13:38:41,7627574,854.000,7977.000,-1004.000,-7542.000,-4439.000,1859.000,0.000,0.000,1
2026-01-31 13:38:41,7627614,1037.000,5092.000,-722.000,-9845.000,-4607.000,1622.000,0.000,0.000,1
2026-01-31 13:38:41,7627654,1078.000,3500.000,-123.000,-8877.000,-4823.000,1052.000,0.000,0.000,1
2026-01-31 13:38:41,7627694,1361.000,3305.000,860.000,-7378.000,-4792.000,781.000,0.000,0.000,1
2026-01-31 13:38:41,7627734,964.000,3105.000,1364.000,-5052.000,-3795.000,1495.000,0.000,0.000,1
2026-01-31 13:38:41,7627774,1218.000,4806.000,2231.000,-2262.000,-3543.000,2452.000,0.000,0.000,1
2026-01-31 13:38:41,7627814,1657.000,7300.000,3560.000,-958.000,-2745.000,2894.000,0.000,0.000,1
2026-01-31 13:38:41,7627854,2009.000,8029.000,4241.000,-676.000,-1616.000,2914.000,0.000,0.000,1
2026-01-31 13:38:41,7627894,2577.000,7283.000,4922.000,-377.000,-1142.000,2886.000,0.000,0.000,1
2026-01-31 13:38:41,7627934,3952.000,7948.000,4594.000,3552.000,326.000,4069.000,0.000,0.000,1
2026-01-31 13:38:41,7627974,6551.000,10998.000,4162.000,9378.000,1360.000,3316.000,0.000,0.000,1
2026-01-31 13:38:41,7628014,7644.000,8347.000,3977.000,6154.000,2728.000,2481.000,0.000,0.000,1
2026-01-31 13:38:42,7628054,7195.000,8070.000,3417.000,9521.000,4327.000,1060.000,0.000,0.000,1
2026-01-31 13:38:42,7628094,4828.000,6666.000,4367.000,7476.000,4172.000,-424.000,0.000,0.000,1
2026-01-31 13:38:42,7628134,2515.000,4718.000,3680.000,1418.000,4654.000,-1085.000,0.000,0.000,1
2026-01-31 13:38:42,7628174,731.000,2427.000,1831.000,1332.000,4703.000,-1003.000,0.000,0.000,1
2026-01-31 13:38:42,7628214,624.000,3664.000,1141.000,3821.000,3480.000,-1187.000,0.000,0.000,1
2026-01-31 13:38:42,7628254,771.000,4361.000,1160.000,2760.000,2454.000,-1374.000,0.000,0.000,1
2026-01-31 13:38:42,7628294,521.000,5368.000,797.000,2720.000,1782.000,-829.000,0.000,0.000,1
2026-01-31 13:38:42,7628334,1053.000,10388.000,1387.000,4326.000,473.000,-707.000,0.000,0.000,1
2026-01-31 13:38:42,7628374,1509.000,9470.000,1526.000,1777.000,-294.000,-1427.000,0.000,0.000,1
2026-01-31 13:38:42,7628414,1522.000,10883.000,1263.000,3279.000,-813.000,-1646.000,0.000,0.000,1
2026-01-31 13:38:42,7628454,1629.000,12645.000,1625.000,2145.000,-1646.000,-881.000,0.000,0.000,1
2026-01-31 13:38:42,7628494,2346.000,12409.000,1683.000,906.000,-2262.000,-430.000,0.000,0.000,1
2026-01-31 13:38:42,7628534,2498.000,11897.000,261.000,-1469.000,-2148.000,-433.000,0.000,0.000,1
2026-01-31 13:38:42,7628574,2721.000,10838.000,-656.000,-2227.000,-1812.000,212.000,0.000,0.000,1
2026-01-31 13:38:42,7628614,2505.000,8784.000,-626.000,-2328.000,-1216.000,-51.000,0.000,0.000,1
2026-01-31 13:38:42,7628654,1827.000,5796.000,-85.000,-2274.000,-952.000,-712.000,0.000,0.000,1
2026-01-31 13:38:42,7628697,480.000,3809.000,-177.000,-2145.000,-1342.000,-1431.000,0.000,0.000,1
2026-01-31 13:38:42,7628734,82.000,3741.000,-321.000,-2219.000,-1611.000,-1631.000,0.000,0.000,1
2026-01-31 13:38:42,7628774,308.000,4552.000,-423.000,-1469.000,-1771.000,-1485.000,0.000,0.000,1
2026-01-31 13:38:42,7628814,541.000,6370.000,-76.000,-838.000,-1557.000,-890.000,0.000,0.000,1
2026-01-31 13:38:42,7628854,1231.000,7595.000,-25.000,317.000,-1346.000,249.000,0.000,0.000,1
2026-01-31 13:38:42,7628894,2728.000,9664.000,1181.000,2182.000,-209.000,503.000,0.000,0.000,1
2026-01-31 13:38:42,7628934,2553.000,9498.000,1881.000,2575.000,1657.000,325.000,0.000,0.000,1
2026-01-31 13:38:42,7628974,2582.000,10470.000,2425.000,2781.000,3339.000,976.000,0.000,0.000,1
2026-01-31 13:38:42,7629014,2627.000,10753.000,352.000,4626.000,3820.000,1672.000,0.000,0.000,1
2026-01-31 13:38:43,7629054,3383.000,11261.000,-454.000,4413.000,2286.000,1252.000,0.000,0.000,1
2026-01-31 13:38:43,7629094,4357.000,7855.000,-2053.000,-812.000,825.000,1097.000,0.000,0.000,1
2026-01-31 13:38:43,7629134,3125.000,6463.000,-1117.000,726.000,-243.000,329.000,0.000,0.000,1
2026-01-31 13:38:43,7629174,1647.000,4481.000,-296.000,911.000,976.000,-236.000,0.000,0.000,1
2026-01-31 13:38:43,7629214,571.000,4452.000,123.000,2310.000,1529.000,-895.000,0.000,0.000,1
2026-01-31 13:38:43,7629254,1214.000,3688.000,729.000,1676.000,1625.000,-638.000,0.000,0.000,1
2026-01-31 13:38:43,7629294,823.000,4948.000,1142.000,2608.000,1815.000,-1094.000,0.000,0.000,1
2026-01-31 13:38:43,7629334,568.000,6444.000,1339.000,1615.000,1772.000,-1050.000,0.000,0.000,1
2026-01-31 13:38:43,7629374,739.000,8152.000,1852.000,495.000,1619.000,-910.000,0.000,0.000,1
2026-01-31 13:38:43,7629414,187.000,10426.000,1825.000,-182.000,1343.000,-1006.000,0.000,0.000,1
2026-01-31 13:38:43,7629454,319.000,10649.000,1382.000,-3491.000,910.000,-1097.000,0.000,0.000,1
2026-01-31 13:38:43,7629494,975.000,12344.000,602.000,-3630.000,-2.000,-979.000,0.000,0.000,1
2026-01-31 13:38:43,7629534,1540.000,13751.000,1058.000,-4372.000,48.000,-465.000,0.000,0.000,1
2026-01-31 13:38:43,7629574,1439.000,10857.000,604.000,-8516.000,274.000,-212.000,0.000,0.000,1
2026-01-31 13:38:43,7629614,1436.000,10432.000,-317.000,-6076.000,-523.000,468.000,0.000,0.000,1
2026-01-31 13:38:43,7629654,1759.000,9093.000,-25.000,-4630.000,-1281.000,1168.000,0.000,0.000,1
2026-01-31 13:38:43,7629694,1485.000,6057.000,274.000,-3449.000,-1715.000,1532.000,0.000,0.000,1
2026-01-31 13:38:43,7629734,1409.000,4589.000,1027.000,-3536.000,-2104.000,1635.000,0.000,0.000,1
2026-01-31 13:38:43,7629774,1229.000,2570.000,955.000,-5156.000,-2212.000,2276.000,0.000,0.000,1
2026-01-31 13:38:43,7629814,1404.000,1920.000,886.000,-4488.000,-2493.000,2887.000,0.000,0.000,1
2026-01-31 13:38:43,7629854,2417.000,3557.000,1805.000,-3237.000,-2277.000,3903.000,0.000,0.000,1
2026-01-31 13:38:43,7629894,3814.000,5574.000,3356.000,-1638.000,-1586.000,5274.000,0.000,0.000,1
2026-01-31 13:38:43,7629934,5089.000,8439.000,4000.000,-1450.000,-1965.000,5929.000,0.000,0.000,1
2026-01-31 13:38:43,7629974,6234.000,7935.000,5170.000,-3146.000,-1747.000,5748.000,0.000,0.000,1
2026-01-31 13:38:43,7630014,6005.000,6524.000,5670.000,-2449.000,-1048.000,5647.000,0.000,0.000,1
2026-01-31 13:38:44,7630054,6788.000,6744.000,5165.000,1037.000,-499.000,7495.000,0.000,0.000,1
2026-01-31 13:38:44,7630094,7230.000,7212.000,5143.000,1559.000,-14.000,7767.000,0.000,0.000,1
2026-01-31 13:38:44,7630134,6822.000,5380.000,4479.000,802.000,34.000,6480.000,0.000,0.000,1
2026-01-31 13:38:44,7630174,7648.000,3292.000,3249.000,-525.000,-719.000,5285.000,0.000,0.000,1
2026-01-31 13:38:44,7630214,7321.000,1521.000,2488.000,1041.000,-1327.000,4136.000,0.000,0.000,1
2026-01-31 13:38:44,7630254,4880.000,2088.000,2417.000,5049.000,-698.000,1978.000,0.000,0.000,1
2026-01-31 13:38:44,7630294,3557.000,2653.000,2325.000,4679.000,-182.000,1521.000,0.000,0.000,1
2026-01-31 13:38:44,7630334,3213.000,1845.000,2636.000,1986.000,373.000,1716.000,0.000,0.000,1
2026-01-31 13:38:44,7630374,3531.000,2387.000,3465.000,420.000,422.000,2080.000,0.000,0.000,1
2026-01-31 13:38:44,7630414,4100.000,2542.000,3990.000,-460.000,80.000,1301.000,0.000,0.000,1
2026-01-31 13:38:44,7630454,5580.000,4227.000,4582.000,1686.000,-769.000,137.000,0.000,0.000,1
2026-01-31 13:38:44,7630494,7600.000,5832.000,4979.000,-596.000,-1606.000,-423.000,0.000,0.000,1
2026-01-31 13:38:44,7630534,9139.000,3841.000,5793.000,-2152.000,-1913.000,-1375.000,0.000,0.000,1
2026-01-31 13:38:44,7630574,9752.000,5419.000,7399.000,1725.000,415.000,-2451.000,0.000,0.000,1
2026-01-31 13:38:44,7630614,9420.000,8208.000,6141.000,211.000,890.000,-3395.000,0.000,0.000,1
2026-01-31 13:38:44,7630654,8043.000,5275.000,2952.000,-6876.000,-848.000,-3235.000,0.000,0.000,1
2026-01-31 13:38:44,7630697,9376.000,5053.000,954.000,-5891.000,-2365.000,-1212.000,0.000,0.000,1
2026-01-31 13:38:44,7630734,8706.000,5007.000,1095.000,-4462.000,-2111.000,-857.000,0.000,0.000,1
2026-01-31 13:38:44,7630774,6893.000,3218.000,1035.000,-3125.000,-1019.000,-1587.000,0.000,0.000,1
2026-01-31 13:38:44,7630814,4988.000,1460.000,849.000,-1259.000,-295.000,-2767.000,0.000,0.000,1
2026-01-31 13:38:44,7630854,3582.000,1341.000,1014.000,734.000,-361.000,-3258.000,0.000,0.000,1
2026-01-31 13:38:44,7630894,2927.000,1386.000,1178.000,1446.000,-715.000,-2548.000,0.000,0.000,1
2026-01-31 13:38:44,7630934,3798.000,2473.000,2181.000,2057.000,-663.000,-1564.000,0.000,0.000,1
2026-01-31 13:38:44,7630974,4496.000,3824.000,2937.000,3642.000,-384.000,-505.000,0.000,0.000,1
2026-01-31 13:38:44,7631014,7316.000,6339.000,3732.000,3538.000,-259.000,852.000,0.000,0.000,1
2026-01-31 13:38:45,7631054,7966.000,6381.000,3637.000,2670.000,76.000,208.000,0.000,0.000,1
2026-01-31 13:38:45,7631094,7716.000,7667.000,3990.000,4245.000,1472.000,-854.000,0.000,0.000,1
2026-01-31 13:38:45,7631134,7812.000,7246.000,3273.000,4546.000,3044.000,-910.000,0.000,0.000,1
2026-01-31 13:38:45,7631174,6985.000,8127.000,2150.000,6453.000,2490.000,-1961.000,0.000,0.000,1
2026-01-31 13:38:45,7631214,6450.000,8399.000,866.000,2250.000,933.000,-4242.000,0.000,0.000,1
2026-01-31 13:38:45,7631254,6860.000,5788.000,-180.000,-1287.000,194.000,-5054.000,0.000,0.000,1
2026-01-31 13:38:45,7631294,5518.000,4756.000,221.000,970.000,185.000,-6153.000,0.000,0.000,1
2026-01-31 13:38:45,7631334,3734.000,3247.000,697.000,1392.000,168.000,-5838.000,0.000,0.000,1
2026-01-31 13:38:45,7631374,2691.000,3041.000,1271.000,2303.000,333.000,-5089.000,0.000,0.000,1
2026-01-31 13:38:45,7631414,1617.000,3433.000,1865.000,2335.000,700.000,-4344.000,0.000,0.000,1
2026-01-31 13:38:45,7631454,1488.000,4381.000,2291.000,3387.000,808.000,-4183.000,0.000,0.000,1
2026-01-31 13:38:45,7631494,1297.000,6122.000,2299.000,5270.000,315.000,-4118.000,0.000,0.000,1
2026-01-31 13:38:45,7631534,1314.000,8483.000,2138.000,5375.000,-283.000,-3873.000,0.000,0.000,1
2026-01-31 13:38:45,7631574,1367.000,9465.000,1460.000,4351.000,-942.000,-3334.000,0.000,0.000,1
2026-01-31 13:38:45,7631614,1860.000,10793.000,561.000,3719.000,-1342.000,-3122.000,0.000,0.000,1
2026-01-31 13:38:45,7631654,2098.000,10857.000,-270.000,2304.000,-1141.000,-2661.000,0.000,0.000,1
2026-01-31 13:38:45,7631694,1687.000,11802.000,-1078.000,2554.000,-1634.000,-1736.000,0.000,0.000,1
2026-01-31 13:38:45,7631734,1364.000,11562.000,-1581.000,506.000,-2069.000,-777.000,0.000,0.000,1
2026-01-31 13:38:45,7631774,1463.000,9783.000,-3121.000,-1764.000,-1915.000,-474.000,0.000,0.000,1
2026-01-31 13:38:45,7631814,1378.000,8721.000,-2704.000,-1764.000,-1327.000,349.000,0.000,0.000,1
2026-01-31 13:38:45,7631854,1021.000,6817.000,-1964.000,-2012.000,-1473.000,391.000,0.000,0.000,1
2026-01-31 13:38:45,7631894,717.000,5111.000,-244.000,-1804.000,-2621.000,22.000,0.000,0.000,1
2026-01-31 13:38:45,7631934,40.000,4230.000,551.000,-3172.000,-2869.000,-130.000,0.000,0.000,1
2026-01-31 13:38:45,7631974,-467.000,4073.000,-36.000,-3116.000,-2800.000,-224.000,0.000,0.000,1
2026-01-31 13:38:45,7632014,-429.000,5390.000,-108.000,-1758.000,-2629.000,-435.000,0.000,0.000,1
2026-01-31 13:38:46,7632054,-44.000,6842.000,-315.000,-1081.000,-1903.000,-258.000,0.000,0.000,1
2026-01-31 13:38:46,7632094,701.000,9080.000,-845.000,-236.000,-1369.000,-42.000,0.000,0.000,1
2026-01-31 13:38:46,7632134,1841.000,9609.000,-541.000,-217.000,-430.000,-99.000,0.000,0.000,1
2026-01-31 13:38:46,7632174,2869.000,7590.000,608.000,1107.000,1421.000,628.000,0.000,0.000,1
2026-01-31 13:38:46,7632214,939.000,13202.000,458.000,2499.000,2555.000,447.000,0.000,0.000,1
2026-01-31 13:38:46,7632254,1675.000,10504.000,652.000,839.000,3013.000,7.000,0.000,0.000,1
2026-01-31 13:38:46,7632294,2209.000,9899.000,-221.000,-210.000,2350.000,-1212.000,0.000,0.000,1
2026-01-31 13:38:46,7632334,3035.000,8526.000,-1045.000,-502.000,2458.000,-1735.000,0.000,0.000,1
2026-01-31 13:38:46,7632374,2106.000,6417.000,-301.000,997.000,3096.000,-1857.000,0.000,0.000,1
2026-01-31 13:38:46,7632417,505.000,4750.000,28.000,1654.000,3709.000,-1294.000,0.000,0.000,1
2026-01-31 13:38:46,7632456,-114.000,4781.000,598.000,1366.000,3611.000,-1364.000,0.000,0.000,1
2026-01-31 13:38:46,7632494,-539.000,4029.000,714.000,614.000,3692.000,-1266.000,0.000,0.000,1
2026-01-31 13:38:46,7632534,-1381.000,5263.000,435.000,398.000,3556.000,-906.000,0.000,0.000,1
2026-01-31 13:38:46,7632574,-1856.000,6611.000,221.000,189.000,1779.000,-358.000,0.000,0.000,1
2026-01-31 13:38:46,7632614,-1706.000,8302.000,250.000,1421.000,-391.000,-126.000,0.000,0.000,1
2026-01-31 13:38:46,7632654,-1110.000,9800.000,230.000,1130.000,-1762.000,446.000,0.000,0.000,1
2026-01-31 13:38:46,7632694,-562.000,10874.000,-462.000,877.000,-2383.000,812.000,0.000,0.000,1
2026-01-31 13:38:46,7632734,-12.000,12191.000,-860.000,1633.000,-2913.000,1150.000,0.000,0.000,1
2026-01-31 13:38:46,7632774,21.000,12377.000,-357.000,1274.000,-3644.000,1856.000,0.000,0.000,1
2026-01-31 13:38:46,7632814,333.000,10917.000,33.000,-1670.000,-3929.000,2957.000,0.000,0.000,1
2026-01-31 13:38:46,7632854,564.000,9890.000,-1193.000,-3651.000,-3408.000,4306.000,0.000,0.000,1
2026-01-31 13:38:46,7632894,1716.000,9945.000,-2080.000,-4474.000,-2622.000,5628.000,0.000,0.000,1
2026-01-31 13:38:46,7632934,1893.000,6665.000,-839.000,-5135.000,-2904.000,4386.000,0.000,0.000,1
2026-01-31 13:38:46,7632974,2002.000,4384.000,-331.000,-6576.000,-2633.000,3568.000,0.000,0.000,1
2026-01-31 13:38:46,7633014,1644.000,4179.000,134.000,-5591.000,-2515.000,2535.000,0.000,0.000,1
2026-01-31 13:38:47,7633054,1609.000,4260.000,1011.000,-4963.000,-1884.000,2231.000,0.000,0.000,1
2026-01-31 13:38:47,7633094,2193.000,6703.000,1048.000,-4674.000,-2008.000,2199.000,0.000,0.000,1
2026-01-31 13:38:47,7633134,3033.000,7326.000,1576.000,-6716.000,-1894.000,1989.000,0.000,0.000,1
2026-01-31 13:38:47,7633174,4271.000,7468.000,2184.000,-6656.000,-1736.000,2415.000,0.000,0.000,1
2026-01-31 13:38:47,7633214,5488.000,7678.000,3238.000,-6368.000,-549.000,2471.000,0.000,0.000,1
2026-01-31 13:38:47,7633254,5118.000,6169.000,4485.000,-4649.000,414.000,2182.000,0.000,0.000,1
2026-01-31 13:38:47,7633294,5456.000,6304.000,5069.000,420.000,1553.000,3382.000,0.000,0.000,1
2026-01-31 13:38:47,7633334,5344.000,10361.000,4307.000,5146.000,2402.000,2290.000,0.000,0.000,1
2026-01-31 13:38:47,7633374,5150.000,8603.000,2337.000,559.000,2512.000,-126.000,0.000,0.000,1
2026-01-31 13:38:47,7633414,5074.000,5592.000,1351.000,-971.000,3239.000,-925.000,0.000,0.000,1
2026-01-31 13:38:47,7633454,3898.000,4746.000,1493.000,1102.000,3646.000,-1533.000,0.000,0.000,1
2026-01-31 13:38:47,7633494,2395.000,3773.000,1976.000,841.000,3712.000,-1304.000,0.000,0.000,1
2026-01-31 13:38:47,7633534,1346.000,2579.000,2418.000,662.000,3242.000,-177.000,0.000,0.000,1
2026-01-31 13:38:47,7633574,508.000,2743.000,3132.000,410.000,2524.000,662.000,0.000,0.000,1
2026-01-31 13:38:47,7633614,117.000,2512.000,4084.000,191.000,1375.000,2488.000,0.000,0.000,1
2026-01-31 13:38:47,7633654,882.000,4061.000,5718.000,1735.000,-107.000,3380.000,0.000,0.000,1
2026-01-31 13:38:47,7633694,2981.000,6862.000,7475.000,902.000,-2472.000,2484.000,0.000,0.000,1
2026-01-31 13:38:47,7633734,4958.000,6140.000,6509.000,-739.000,-2692.000,1331.000,0.000,0.000,1
2026-01-31 13:38:47,7633774,6401.000,7994.000,5299.000,2099.000,-2131.000,421.000,0.000,0.000,1
2026-01-31 13:38:47,7633814,6236.000,8938.000,5396.000,2068.000,-951.000,293.000,0.000,0.000,1
2026-01-31 13:38:47,7633854,5055.000,8973.000,5471.000,1793.000,93.000,608.000,0.000,0.000,1
2026-01-31 13:38:47,7633894,4700.000,9324.000,4178.000,663.000,-106.000,1152.000,0.000,0.000,1
2026-01-31 13:38:47,7633934,5451.000,8516.000,2531.000,-4090.000,-1990.000,2440.000,0.000,0.000,1
2026-01-31 13:38:47,7633974,5704.000,6706.000,1581.000,-6679.000,-4308.000,3883.000,0.000,0.000,1
2026-01-31 13:38:47,7634014,5658.000,4175.000,799.000,-6773.000,-5482.000,4470.000,0.000,0.000,1
2026-01-31 13:38:48,7634054,5173.000,2917.000,210.000,-5405.000,-5505.000,3880.000,0.000,0.000,1
2026-01-31 13:38:48,7634094,4549.000,1563.000,-15.000,-4919.000,-4942.000,2276.000,0.000,0.000,1
2026-01-31 13:38:48,7634134,4278.000,1204.000,606.000,-3108.000,-4507.000,2078.000,0.000,0.000,1
2026-01-31 13:38:48,7634174,4656.000,2153.000,1645.000,-212.000,-3715.000,2515.000,0.000,0.000,1
2026-01-31 13:38:48,7634214,6252.000,2928.000,2308.000,1857.000,-2875.000,2758.000,0.000,0.000,1
2026-01-31 13:38:48,7634254,8503.000,4805.000,3220.000,4160.000,-2163.000,3097.000,0.000,0.000,1
2026-01-31 13:38:48,7634294,9260.000,4017.000,3160.000,6454.000,-310.000,3182.000,0.000,0.000,1
2026-01-31 13:38:48,7634334,9210.000,4770.000,2803.000,8752.000,1192.000,1983.000,0.000,0.000,1
2026-01-31 13:38:48,7634374,9701.000,4365.000,3224.000,8257.000,1300.000,1995.000,0.000,0.000,1
2026-01-31 13:38:48,7634417,8822.000,5131.000,4069.000,5012.000,600.000,1182.000,0.000,0.000,1
2026-01-31 13:38:48,7634456,9369.000,3433.000,2408.000,2102.000,458.000,-404.000,0.000,0.000,1
2026-01-31 13:38:48,7634494,8994.000,1435.000,1311.000,-2662.000,1453.000,-1301.000,0.000,0.000,1
2026-01-31 13:38:48,7634534,7225.000,1376.000,1301.000,-1080.000,2869.000,-2125.000,0.000,0.000,1
2026-01-31 13:38:48,7634574,5416.000,912.000,1141.000,465.000,3595.000,-2326.000,0.000,0.000,1
2026-01-31 13:38:48,7634614,4020.000,1904.000,1279.000,1739.000,3508.000,-2344.000,0.000,0.000,1
2026-01-31 13:38:48,7634654,3185.000,2183.000,1646.000,936.000,2838.000,-2024.000,0.000,0.000,1
2026-01-31 13:38:48,7634697,2976.000,2201.000,2046.000,1307.000,1275.000,-1525.000,0.000,0.000,1
2026-01-31 13:38:48,7634734,3596.000,2925.000,2416.000,2076.000,426.000,-1620.000,0.000,0.000,1
2026-01-31 13:38:48,7634774,6063.000,4472.000,3389.000,781.000,-1115.000,-1257.000,0.000,0.000,1
2026-01-31 13:38:48,7634814,7570.000,4574.000,4420.000,-149.000,-1764.000,-1138.000,0.000,0.000,1
2026-01-31 13:38:48,7634854,11849.000,5314.000,8616.000,-1025.000,-154.000,-2484.000,0.000,0.000,1
2026-01-31 13:38:48,7634894,8225.000,4613.000,7110.000,82.000,4203.000,-2482.000,0.000,0.000,1
2026-01-31 13:38:48,7634934,7967.000,6587.000,3587.000,1396.000,2837.000,-2431.000,0.000,0.000,1
2026-01-31 13:38:48,7634974,6781.000,5474.000,1019.000,-2097.000,647.000,-878.000,0.000,0.000,1
2026-01-31 13:38:48,7635014,7405.000,6301.000,-84.000,-2674.000,-1343.000,270.000,0.000,0.000,1
2026-01-31 13:38:49,7635054,7073.000,5354.000,259.000,-3519.000,-2795.000,2219.000,0.000,0.000,1
2026-01-31 13:38:49,7635094,5990.000,2687.000,795.000,-2470.000,-3530.000,3085.000,0.000,0.000,1
2026-01-31 13:38:49,7635134,5051.000,1699.000,1053.000,-382.000,-3878.000,2807.000,0.000,0.000,1
2026-01-31 13:38:49,7635174,4687.000,1647.000,1163.000,-298.000,-3972.000,2421.000,0.000,0.000,1
2026-01-31 13:38:49,7635214,4912.000,2406.000,1601.000,-257.000,-3712.000,1578.000,0.000,0.000,1
2026-01-31 13:38:49,7635254,5413.000,2992.000,1864.000,1704.000,-2174.000,1881.000,0.000,0.000,1
2026-01-31 13:38:49,7635294,6428.000,4812.000,2642.000,3090.000,-624.000,2065.000,0.000,0.000,1
2026-01-31 13:38:49,7635334,7673.000,5778.000,3279.000,2764.000,400.000,1955.000,0.000,0.000,1
2026-01-31 13:38:49,7635374,8139.000,5379.000,3182.000,1750.000,857.000,1714.000,0.000,0.000,1
2026-01-31 13:38:49,7635414,8699.000,4761.000,3645.000,463.000,849.000,604.000,0.000,0.000,1
2026-01-31 13:38:49,7635454,9658.000,4101.000,3547.000,1219.000,1478.000,733.000,0.000,0.000,1
2026-01-31 13:38:49,7635494,9488.000,5175.000,3099.000,1380.000,1600.000,714.000,0.000,0.000,1
2026-01-31 13:38:49,7635534,8747.000,4750.000,1931.000,-1262.000,1396.000,-799.000,0.000,0.000,1
2026-01-31 13:38:49,7635574,9139.000,2835.000,61.000,-4935.000,1622.000,-2143.000,0.000,0.000,1
2026-01-31 13:38:49,7635614,7354.000,404.000,502.000,-2687.000,2824.000,-2730.000,0.000,0.000,1
2026-01-31 13:38:49,7635654,5629.000,216.000,1095.000,812.000,3257.000,-2729.000,0.000,0.000,1
2026-01-31 13:38:49,7635694,4384.000,1599.000,1766.000,2970.000,2962.000,-2377.000,0.000,0.000,1
2026-01-31 13:38:49,7635734,3564.000,1902.000,2173.000,1804.000,2490.000,-1965.000,0.000,0.000,1
2026-01-31 13:38:49,7635774,3358.000,2832.000,2563.000,1388.000,1883.000,-1477.000,0.000,0.000,1
2026-01-31 13:38:49,7635814,3331.000,3724.000,3202.000,1064.000,673.000,-1482.000,0.000,0.000,1
2026-01-31 13:38:49,7635854,4709.000,4120.000,4005.000,-705.000,-872.000,-1317.000,0.000,0.000,1
2026-01-31 13:38:49,7635894,6604.000,4026.000,5516.000,-1222.000,-1236.000,-1309.000,0.000,0.000,1
2026-01-31 13:38:49,7635934,9259.000,6020.000,7747.000,57.000,718.000,-1689.000,0.000,0.000,1
2026-01-31 13:38:49,7635974,9140.000,5161.000,6465.000,53.000,3920.000,-2411.000,0.000,0.000,1
2026-01-31 13:38:49,7636014,6497.000,7386.000,4456.000,2148.000,2862.000,-1878.000,0.000,0.000,1
2026-01-31 13:38:50,7636054,5724.000,5833.000,2662.000,-1484.000,-285.000,-759.000,0.000,0.000,1
2026-01-31 13:38:50,7636094,6798.000,6270.000,1724.000,-3594.000,-2396.000,-125.000,0.000,0.000,1
2026-01-31 13:38:50,7636134,6780.000,4892.000,1789.000,-4075.000,-2985.000,1052.000,0.000,0.000,1
2026-01-31 13:38:50,7636174,5677.000,3735.000,2481.000,-1978.000,-2491.000,1518.000,0.000,0.000,1
2026-01-31 13:38:50,7636214,4323.000,2841.000,2941.000,-640.000,-1793.000,1031.000,0.000,0.000,1
2026-01-31 13:38:50,7636254,3472.000,2575.000,2902.000,-119.000,-1504.000,201.000,0.000,0.000,1
2026-01-31 13:38:50,7636294,3447.000,2113.000,2697.000,547.000,-937.000,299.000,0.000,0.000,1
2026-01-31 13:38:50,7636334,3574.000,4327.000,3094.000,2741.000,-117.000,501.000,0.000,0.000,1
2026-01-31 13:38:50,7636374,4507.000,6390.000,3656.000,121.000,-456.000,555.000,0.000,0.000,1
2026-01-31 13:38:50,7636417,6544.000,6286.000,4233.000,-1658.000,-546.000,623.000,0.000,0.000,1
2026-01-31 13:38:50,7636457,7611.000,5989.000,4519.000,-912.000,290.000,190.000,0.000,0.000,1
2026-01-31 13:38:50,7636494,8522.000,5698.000,4575.000,-599.000,661.000,85.000,0.000,0.000,1
2026-01-31 13:38:50,7636534,8561.000,5392.000,5319.000,983.000,1256.000,227.000,0.000,0.000,1
2026-01-31 13:38:50,7636574,8245.000,5700.000,5099.000,913.000,1329.000,-601.000,0.000,0.000,1
2026-01-31 13:38:50,7636614,9104.000,5352.000,3547.000,-1063.000,1527.000,-1782.000,0.000,0.000,1
2026-01-31 13:38:50,7636654,8360.000,3792.000,3110.000,-1493.000,2242.000,-2068.000,0.000,0.000,1
2026-01-31 13:38:50,7636697,5025.000,2477.000,3236.000,599.000,2819.000,-3134.000,0.000,0.000,1
2026-01-31 13:38:50,7636736,3938.000,2140.000,3065.000,1060.000,2588.000,-3157.000,0.000,0.000,1
2026-01-31 13:38:50,7636774,2362.000,2616.000,3102.000,1851.000,1356.000,-3690.000,0.000,0.000,1
2026-01-31 13:38:50,7636814,2498.000,2538.000,2978.000,1835.000,110.000,-3663.000,0.000,0.000,1
2026-01-31 13:38:50,7636854,2244.000,3312.000,2769.000,3586.000,-745.000,-3383.000,0.000,0.000,1
2026-01-31 13:38:50,7636894,3250.000,4982.000,2974.000,4426.000,-1287.000,-3154.000,0.000,0.000,1
2026-01-31 13:38:50,7636934,3841.000,6877.000,3032.000,4210.000,-1304.000,-3249.000,0.000,0.000,1
2026-01-31 13:38:50,7636974,4011.000,6888.000,2098.000,4167.000,-765.000,-3211.000,0.000,0.000,1
2026-01-31 13:38:50,7637014,4299.000,9144.000,2111.000,5011.000,-556.000,-4399.000,0.000,0.000,1
2026-01-31 13:38:51,7637054,3517.000,9603.000,1914.000,3906.000,-86.000,-5256.000,0.000,0.000,1
2026-01-31 13:38:51,7637094,2535.000,9329.000,897.000,4247.000,-367.000,-4514.000,0.000,0.000,1
2026-01-31 13:38:51,7637134,2347.000,11235.000,-24.000,5047.000,-1030.000,-2987.000,0.000,0.000,1
2026-01-31 13:38:51,7637174,1627.000,10279.000,-650.000,2891.000,-415.000,-1809.000,0.000,0.000,1
2026-01-31 13:38:51,7637214,1240.000,9198.000,-538.000,2841.000,-428.000,-1141.000,0.000,0.000,1
2026-01-31 13:38:51,7637254,792.000,7467.000,-239.000,2420.000,-1224.000,-1532.000,0.000,0.000,1
2026-01-31 13:38:51,7637294,721.000,5841.000,60.000,1437.000,-2375.000,-2219.000,0.000,0.000,1
2026-01-31 13:38:51,7637334,761.000,4628.000,265.000,404.000,-2855.000,-3040.000,0.000,0.000,1
2026-01-31 13:38:51,7637374,782.000,4696.000,129.000,-178.000,-2446.000,-3511.000,0.000,0.000,1
2026-01-31 13:38:51,7637414,334.000,5336.000,420.000,-149.000,-1417.000,-3075.000,0.000,0.000,1
2026-01-31 13:38:51,7637454,-32.000,7268.000,-359.000,-15.000,-473.000,-2278.000,0.000,0.000,1
2026-01-31 13:38:51,7637494,34.000,8827.000,-491.000,153.000,-84.000,-1081.000,0.000,0.000,1
2026-01-31 13:38:51,7637534,382.000,9614.000,-2.000,529.000,318.000,564.000,0.000,-9.430,1
2026-01-31 13:38:51,7637574,750.000,11789.000,-275.000,553.000,1143.000,809.000,0.000,-9.430,1
2026-01-31 13:38:51,7637614,195.000,11337.000,-665.000,750.000,1446.000,1210.000,0.000,-9.430,1
2026-01-31 13:38:51,7637654,1478.000,11265.000,-825.000,761.000,130.000,7.000,0.000,-9.430,1
2026-01-31 13:38:51,7637694,3075.000,9119.000,-1031.000,-330.000,388.000,-835.000,0.000,-9.430,1
2026-01-31 13:38:51,7637734,2433.000,7048.000,-643.000,1173.000,1251.000,-772.000,0.000,-9.430,1
2026-01-31 13:38:51,7637774,1003.000,5758.000,-146.000,1223.000,1487.000,-778.000,0.000,-9.430,1
2026-01-31 13:38:51,7637814,344.000,4373.000,172.000,380.000,1781.000,-916.000,0.000,-9.430,1
2026-01-31 13:38:51,7637854,-660.000,4238.000,-181.000,351.000,1706.000,-950.000,0.000,-9.430,1
2026-01-31 13:38:51,7637894,-1086.000,5676.000,387.000,1297.000,852.000,-998.000,0.000,-9.430,1
2026-01-31 13:38:51,7637934,-1286.000,6847.000,697.000,854.000,-95.000,-1308.000,0.000,-9.430,1
2026-01-31 13:38:51,7637974,-1475.000,7807.000,121.000,622.000,-884.000,-1192.000,0.000,-9.430,1
2026-01-31 13:38:51,7638014,-964.000,9613.000,-429.000,923.000,-1782.000,-997.000,0.000,-9.430,1
2026-01-31 13:38:52,7638054,-787.000,9850.000,-1227.000,710.000,-1916.000,-1143.000,0.000,-9.430,1
2026-01-31 13:38:52,7638094,-1015.000,11237.000,-1432.000,1597.000,-2088.000,-988.000,0.000,-9.430,1
2026-01-31 13:38:52,7638134,-770.000,12459.000,-2029.000,949.000,-2440.000,-626.000,0.000,-9.430,1
2026-01-31 13:38:52,7638174,-613.000,10890.000,-2412.000,-302.000,-2377.000,-341.000,0.000,-9.430,1
2026-01-31 13:38:52,7638214,-470.000,10665.000,-3247.000,-1588.000,-1837.000,360.000,0.000,-9.430,1
2026-01-31 13:38:52,7638254,-260.000,9091.000,-3162.000,-1702.000,-1006.000,714.000,0.000,-9.430,1
2026-01-31 13:38:52,7638294,-111.000,6835.000,-1038.000,-853.000,-370.000,619.000,0.000,-9.430,1
2026-01-31 13:38:52,7638334,-315.000,5554.000,-53.000,-1835.000,-622.000,72.000,0.000,-9.430,1
2026-01-31 13:38:52,7638377,-758.000,4533.000,142.000,-2669.000,-720.000,-763.000,0.000,-9.430,1
2026-01-31 13:38:52,7638416,-1487.000,5224.000,-52.000,-2097.000,-402.000,-888.000,0.000,-9.430,1
2026-01-31 13:38:52,7638454,-1651.000,6004.000,114.000,-2042.000,-263.000,-1006.000,0.000,-9.430,1
2026-01-31 13:38:52,7638494,-2460.000,6882.000,-201.000,-2655.000,372.000,-770.000,0.000,-9.430,1
2026-01-31 13:38:52,7638534,-2156.000,8644.000,-579.000,-1332.000,462.000,-219.000,0.000,-6.400,1
2026-01-31 13:38:52,7638574,-910.000,9010.000,-675.000,-421.000,773.000,322.000,0.000,-6.400,1
2026-01-31 13:38:52,7638614,-557.000,10073.000,-141.000,840.000,723.000,566.000,0.000,-6.400,1
2026-01-31 13:38:52,7638654,-844.000,11539.000,84.000,1597.000,633.000,1638.000,0.000,-6.400,1
2026-01-31 13:38:52,7638698,1557.000,9659.000,-229.000,15.000,-803.000,1170.000,0.000,-6.400,1
2026-01-31 13:38:52,7638734,2243.000,9244.000,-546.000,-378.000,-615.000,1137.000,0.000,-6.400,1
2026-01-31 13:38:52,7638774,2129.000,8145.000,-1188.000,10.000,281.000,1365.000,0.000,-6.400,1
2026-01-31 13:38:52,7638814,717.000,6274.000,-688.000,430.000,431.000,967.000,0.000,-6.400,1
2026-01-31 13:38:52,7638854,-319.000,5044.000,95.000,729.000,485.000,984.000,0.000,-6.400,1
2026-01-31 13:38:52,7638894,-788.000,4649.000,150.000,631.000,491.000,712.000,0.000,-6.400,1
2026-01-31 13:38:52,7638934,-1291.000,4572.000,512.000,632.000,487.000,357.000,0.000,-6.400,1
2026-01-31 13:38:52,7638974,-1419.000,5814.000,663.000,1397.000,192.000,235.000,0.000,-6.400,1
2026-01-31 13:38:52,7639014,-1457.000,7106.000,1112.000,1348.000,-166.000,-79.000,0.000,-6.400,1
2026-01-31 13:38:53,7639054,-1290.000,9469.000,1081.000,1644.000,-884.000,-694.000,0.000,-6.400,1
2026-01-31 13:38:53,7639094,-585.000,10131.000,532.000,987.000,-1306.000,-1102.000,0.000,-6.400,1
2026-01-31 13:38:53,7639134,-322.000,11482.000,-2.000,1050.000,-1306.000,-1329.000,0.000,-6.400,1
2026-01-31 13:38:53,7639174,-348.000,12701.000,-374.000,840.000,-1310.000,-985.000,0.000,-6.400,1
2026-01-31 13:38:53,7639214,-525.000,11175.000,-1274.000,-976.000,-1498.000,-247.000,0.000,-6.400,1
2026-01-31 13:38:53,7639254,-493.000,10533.000,-2326.000,-1318.000,-1621.000,631.000,0.000,-6.400,1
2026-01-31 13:38:53,7639294,26.000,9754.000,-3188.000,-1367.000,-1307.000,1531.000,0.000,-6.400,1
2026-01-31 13:38:53,7639334,199.000,7766.000,-2413.000,-375.000,-772.000,2108.000,0.000,-6.400,1
2026-01-31 13:38:53,7639374,538.000,5815.000,-1291.000,-77.000,-459.000,2214.000,0.000,-6.400,1
2026-01-31 13:38:53,7639414,1000.000,3893.000,-154.000,-518.000,-849.000,1833.000,0.000,-6.400,1
2026-01-31 13:38:53,7639454,199.000,4059.000,-187.000,-531.000,-836.000,1479.000,0.000,-6.400,1
2026-01-31 13:38:53,7639494,-899.000,5592.000,-340.000,2.000,-288.000,1414.000,0.000,-6.400,1
2026-01-31 13:38:53,7639534,-1249.000,6979.000,-467.000,29.000,165.000,1392.000,0.000,4.710,1
2026-01-31 13:38:53,7639574,-1153.000,9418.000,-662.000,550.000,367.000,1338.000,0.000,4.710,1
2026-01-31 13:38:53,7639614,-270.000,10566.000,-682.000,192.000,411.000,1049.000,0.000,4.710,1
2026-01-31 13:38:53,7639654,-143.000,10355.000,61.000,98.000,348.000,503.000,0.000,4.710,1
2026-01-31 13:38:53,7639694,949.000,11596.000,145.000,555.000,647.000,43.000,0.000,4.710,1
2026-01-31 13:38:53,7639734,1784.000,11789.000,446.000,253.000,1032.000,-690.000,0.000,4.710,1
2026-01-31 13:38:53,7639774,2432.000,10279.000,-727.000,-2271.000,445.000,-1494.000,0.000,4.710,1
2026-01-31 13:38:53,7639814,3564.000,7970.000,-1801.000,-1865.000,-112.000,-1036.000,0.000,4.710,1
2026-01-31 13:38:53,7639854,1863.000,6078.000,-953.000,-707.000,-8.000,-540.000,0.000,4.710,1
2026-01-31 13:38:53,7639894,260.000,4935.000,-110.000,-61.000,117.000,-293.000,0.000,4.710,1
2026-01-31 13:38:53,7639934,-114.000,4498.000,473.000,-91.000,326.000,-548.000,0.000,4.710,1
2026-01-31 13:38:53,7639974,-831.000,4335.000,1175.000,-332.000,611.000,-1042.000,0.000,4.710,1
2026-01-31 13:38:53,7640014,-1278.000,5795.000,1727.000,325.000,484.000,-1267.000,0.000,4.710,1
2026-01-31 13:38:54,7640054,-800.000,7536.000,2258.000,-470.000,-95.000,-1553.000,0.000,4.710,1
2026-01-31 13:38:54,7640094,-889.000,7905.000,1913.000,-1412.000,-335.000,-2402.000,0.000,4.710,1
2026-01-31 13:38:54,7640134,-379.000,10057.000,1167.000,-1048.000,-829.000,-2419.000,0.000,4.710,1
2026-01-31 13:38:54,7640174,-23.000,11015.000,704.000,-1430.000,-824.000,-2718.000,0.000,4.710,1
2026-01-31 13:38:54,7640214,-866.000,12543.000,1179.000,-36.000,-560.000,-1975.000,0.000,4.710,1
2026-01-31 13:38:54,7640254,-1585.000,11022.000,452.000,-1551.000,-552.000,-1499.000,0.000,4.710,1
2026-01-31 13:38:54,7640294,-1915.000,10312.000,-418.000,-1828.000,-1221.000,-442.000,0.000,4.710,1
2026-01-31 13:38:54,7640334,-1792.000,9773.000,-1321.000,-1667.000,-2045.000,837.000,0.000,4.710,1
2026-01-31 13:38:54,7640374,-1379.000,7969.000,-458.000,-1279.000,-2882.000,1160.000,0.000,4.710,1
2026-01-31 13:38:54,7640414,-1048.000,5608.000,644.000,-1533.000,-3447.000,886.000,0.000,4.710,1
2026-01-31 13:38:54,7640454,-873.000,3972.000,1500.000,-1608.000,-3709.000,655.000,0.000,4.710,1
2026-01-31 13:38:54,7640494,-803.000,4131.000,1512.000,-1728.000,-3737.000,591.000,0.000,4.710,1
2026-01-31 13:38:54,7640534,-715.000,5263.000,1503.000,-1698.000,-3345.000,501.000,0.000,7.960,1
2026-01-31 13:38:54,7640574,-442.000,7311.000,2054.000,-1998.000,-1864.000,617.000,0.000,7.960,1
2026-01-31 13:38:54,7640614,290.000,8755.000,1882.000,-2450.000,-222.000,1118.000,0.000,7.960,1
2026-01-31 13:38:54,7640654,1053.000,9533.000,2023.000,-903.000,240.000,1240.000,0.000,7.960,1
2026-01-31 13:38:54,7640697,451.000,9543.000,2548.000,-690.000,793.000,1250.000,0.000,7.960,1
2026-01-31 13:38:54,7640734,339.000,10118.000,3309.000,468.000,950.000,1423.000,0.000,7.960,1
2026-01-31 13:38:54,7640774,810.000,11141.000,3424.000,1044.000,1908.000,1517.000,0.000,7.960,1
2026-01-31 13:38:54,7640814,2613.000,10467.000,1458.000,211.000,2185.000,508.000,0.000,7.960,1
2026-01-31 13:38:54,7640854,2490.000,7837.000,615.000,-374.000,2345.000,-25.000,0.000,7.960,1
2026-01-31 13:38:54,7640894,1611.000,6917.000,1431.000,973.000,2226.000,-220.000,0.000,7.960,1
2026-01-31 13:38:54,7640934,237.000,5439.000,1865.000,962.000,2358.000,-239.000,0.000,7.960,1
2026-01-31 13:38:54,7640974,-1359.000,3987.000,2066.000,924.000,2233.000,-585.000,0.000,7.960,1
2026-01-31 13:38:54,7641014,-1626.000,4056.000,2065.000,754.000,1570.000,-850.000,0.000,7.960,1
2026-01-31 13:38:55,7641054,-1886.000,4697.000,2483.000,1010.000,618.000,-791.000,0.000,7.960,1
2026-01-31 13:38:55,7641094,-324.000,6381.000,2874.000,1067.000,-338.000,-1052.000,0.000,7.960,1
2026-01-31 13:38:55,7641134,144.000,8117.000,3009.000,1407.000,-664.000,-1227.000,0.000,7.960,1
2026-01-31 13:38:55,7641174,-487.000,9025.000,2754.000,1408.000,-583.000,-848.000,0.000,7.960,1
2026-01-31 13:38:55,7641214,-1158.000,10512.000,3143.000,1884.000,-500.000,-1171.000,0.000,7.960,1
2026-01-31 13:38:55,7641254,-2550.000,11115.000,3262.000,1606.000,-495.000,-1605.000,0.000,7.960,1
2026-01-31 13:38:55,7641294,-2505.000,11893.000,2481.000,1853.000,-611.000,-1367.000,0.000,7.960,1
2026-01-31 13:38:55,7641334,-2332.000,10744.000,-169.000,-268.000,-1939.000,-733.000,0.000,7.960,1
2026-01-31 13:38:55,7641374,-1308.000,9720.000,-784.000,-1416.000,-3457.000,146.000,0.000,7.960,1
2026-01-31 13:38:55,7641414,-410.000,8070.000,244.000,15.000,-3225.000,880.000,0.000,7.960,1
2026-01-31 13:38:55,7641454,-20.000,5956.000,758.000,1146.000,-2741.000,1362.000,0.000,7.960,1
2026-01-31 13:38:55,7641494,143.000,4237.000,1326.000,1324.000,-2991.000,1937.000,0.000,7.960,1
2026-01-31 13:38:55,7641534,320.000,5177.000,1698.000,500.000,-2975.000,1469.000,0.000,-10.720,1
2026-01-31 13:38:55,7641574,278.000,5021.000,1592.000,-968.000,-1900.000,911.000,0.000,-10.720,1
2026-01-31 13:38:55,7641614,-1080.000,6347.000,2176.000,-1963.000,-30.000,141.000,0.000,-10.720,1
2026-01-31 13:38:55,7641654,2188.000,6975.000,997.000,-1236.000,838.000,1974.000,0.000,-10.720,1
2026-01-31 13:38:55,7641694,958.000,10245.000,1329.000,138.000,1612.000,2334.000,0.000,-10.720,1
2026-01-31 13:38:55,7641734,1307.000,9769.000,1551.000,520.000,3710.000,1926.000,0.000,-10.720,1
2026-01-31 13:38:55,7641774,2167.000,9746.000,1373.000,1218.000,5247.000,2142.000,0.000,-10.720,1
2026-01-31 13:38:55,7641814,1957.000,10466.000,856.000,3156.000,6858.000,2661.000,0.000,-10.720,1
2026-01-31 13:38:55,7641854,2770.000,10728.000,-143.000,2371.000,7902.000,2068.000,0.000,-10.720,1
2026-01-31 13:38:55,7641894,3224.000,9425.000,-994.000,936.000,8634.000,1186.000,0.000,-10.720,1
2026-01-31 13:38:55,7641934,2282.000,7519.000,-490.000,1329.000,8325.000,789.000,0.000,-10.720,1
2026-01-31 13:38:55,7641974,592.000,5276.000,159.000,1259.000,7497.000,1479.000,0.000,-10.720,1
2026-01-31 13:38:55,7642014,-223.000,4355.000,851.000,1576.000,6702.000,2668.000,0.000,-10.720,1
2026-01-31 13:38:56,7642054,-730.000,3749.000,865.000,1895.000,5945.000,3346.000,0.000,-10.720,1
2026-01-31 13:38:56,7642094,-999.000,5633.000,865.000,3178.000,4804.000,3993.000,0.000,-10.720,1
2026-01-31 13:38:56,7642134,-871.000,7864.000,851.000,3511.000,3046.000,4429.000,0.000,-10.720,1
2026-01-31 13:38:56,7642174,-513.000,9340.000,1339.000,2835.000,1677.000,3491.000,0.000,-10.720,1
2026-01-31 13:38:56,7642214,176.000,10456.000,1224.000,1888.000,905.000,1883.000,0.000,-10.720,1
2026-01-31 13:38:56,7642254,1162.000,11077.000,945.000,826.000,241.000,478.000,0.000,-10.720,1
2026-01-31 13:38:56,7642294,1241.000,11713.000,594.000,407.000,49.000,-407.000,0.000,-10.720,1
2026-01-31 13:38:56,7642334,1347.000,12733.000,473.000,595.000,-854.000,-748.000,0.000,-10.720,1
2026-01-31 13:38:56,7642374,1489.000,12019.000,50.000,-1691.000,-1993.000,-1344.000,0.000,-10.720,1
2026-01-31 13:38:56,7642414,2206.000,11649.000,-971.000,-3815.000,-2772.000,-1431.000,0.000,-10.720,1
2026-01-31 13:38:56,7642454,2224.000,9838.000,-1362.000,-4553.000,-3038.000,-958.000,0.000,-10.720,1
2026-01-31 13:38:56,7642494,1827.000,6809.000,-663.000,-4484.000,-4026.000,-1548.000,0.000,-10.720,1
2026-01-31 13:38:56,7642534,1663.000,4719.000,-150.000,-5398.000,-4359.000,-2386.000,0.000,6.510,1
2026-01-31 13:38:56,7642574,1661.000,3481.000,51.000,-5373.000,-4052.000,-2854.000,0.000,6.510,1
2026-01-31 13:38:56,7642614,1966.000,4019.000,-230.000,-4143.000,-3400.000,-2788.000,0.000,6.510,1
2026-01-31 13:38:56,7642654,2404.000,5226.000,449.000,-2760.000,-2764.000,-2211.000,0.000,6.510,1
2026-01-31 13:38:56,7642697,3152.000,7294.000,626.000,-1370.000,-1257.000,-129.000,0.000,6.510,1
2026-01-31 13:38:56,7642734,3756.000,7816.000,741.000,-981.000,-865.000,644.000,0.000,6.510,1
2026-01-31 13:38:56,7642774,4345.000,7690.000,1672.000,292.000,-323.000,2021.000,0.000,6.510,1
2026-01-31 13:38:56,7642814,4869.000,9112.000,2755.000,1772.000,677.000,3431.000,0.000,6.510,1
2026-01-31 13:38:56,7642854,5280.000,10619.000,1633.000,3082.000,2144.000,5069.000,0.000,6.510,1
2026-01-31 13:38:56,7642894,4811.000,10329.000,2011.000,3736.000,2630.000,3694.000,0.000,6.510,1
2026-01-31 13:38:56,7642934,4785.000,8954.000,1552.000,1676.000,3587.000,2480.000,0.000,6.510,1
2026-01-31 13:38:56,7642974,3895.000,7819.000,1493.000,2880.000,4058.000,2224.000,0.000,6.510,1
2026-01-31 13:38:56,7643014,2100.000,5867.000,1830.000,3710.000,3630.000,1756.000,0.000,6.510,1
2026-01-31 13:38:57,7643054,642.000,5003.000,1748.000,3450.000,3096.000,1772.000,0.000,6.510,1
2026-01-31 13:38:57,7643094,-16.000,4709.000,1439.000,3083.000,2775.000,1290.000,0.000,6.510,1
2026-01-31 13:38:57,7643134,-417.000,4979.000,1388.000,2290.000,2194.000,803.000,0.000,6.510,1
2026-01-31 13:38:57,7643174,-438.000,5078.000,1579.000,1391.000,1345.000,460.000,0.000,6.510,1
2026-01-31 13:38:57,7643214,-390.000,5766.000,1763.000,1232.000,555.000,-114.000,0.000,6.510,1
2026-01-31 13:38:57,7643254,652.000,7862.000,1616.000,790.000,-630.000,-635.000,0.000,6.510,1
2026-01-31 13:38:57,7643294,2122.000,9889.000,1337.000,620.000,-1044.000,-772.000,0.000,6.510,1
2026-01-31 13:38:57,7643334,2835.000,11475.000,1208.000,245.000,-1682.000,-1210.000,0.000,6.510,1
2026-01-31 13:38:57,7643374,3128.000,13045.000,1250.000,-244.000,-2561.000,-963.000,0.000,6.510,1
2026-01-31 13:38:57,7643414,4116.000,12888.000,376.000,-2363.000,-2987.000,-825.000,0.000,6.510,1
2026-01-31 13:38:57,7643454,3933.000,11835.000,-422.000,-4748.000,-3109.000,-172.000,0.000,6.510,1
2026-01-31 13:38:57,7643494,3466.000,9290.000,-495.000,-5852.000,-3181.000,1397.000,0.000,6.510,1
2026-01-31 13:38:57,7643534,3042.000,6430.000,-23.000,-6151.000,-3142.000,2238.000,0.000,-10.800,1
2026-01-31 13:38:57,7643574,2990.000,4563.000,336.000,-6858.000,-3241.000,2083.000,0.000,-10.800,1
2026-01-31 13:38:57,7643614,2775.000,2965.000,455.000,-8873.000,-2865.000,1689.000,0.000,-10.800,1
2026-01-31 13:38:57,7643654,2969.000,2099.000,513.000,-7423.000,-2145.000,1550.000,0.000,-10.800,1
2026-01-31 13:38:57,7643694,3317.000,2835.000,1827.000,-5376.000,-2292.000,2574.000,0.000,-10.800,1
2026-01-31 13:38:57,7643734,5035.000,4850.000,3334.000,-4579.000,-4262.000,3560.000,0.000,-10.800,1
2026-01-31 13:38:57,7643774,7753.000,3841.000,2782.000,-3313.000,-4499.000,6145.000,0.000,-10.800,1
2026-01-31 13:38:57,7643814,9397.000,5894.000,2171.000,-1.000,-3601.000,6657.000,0.000,-10.800,1
2026-01-31 13:38:57,7643854,10513.000,5985.000,1915.000,-2736.000,-2829.000,6338.000,0.000,-10.800,1
2026-01-31 13:38:57,7643894,10462.000,2704.000,2389.000,-625.000,-2359.000,7097.000,0.000,-10.800,1
2026-01-31 13:38:57,7643934,10459.000,3161.000,2344.000,6677.000,-856.000,6627.000,0.000,-10.800,1
2026-01-31 13:38:57,7643974,10402.000,3203.000,1973.000,8681.000,663.000,6224.000,0.000,-10.800,1
2026-01-31 13:38:57,7644014,6909.000,2165.000,3453.000,7902.000,1220.000,3451.000,0.000,-10.800,1
2026-01-31 13:38:58,7644054,3805.000,2977.000,3877.000,7799.000,1846.000,1890.000,0.000,-10.800,1
2026-01-31 13:38:58,7644094,2374.000,4322.000,3851.000,5467.000,1423.000,1373.000,0.000,-10.800,1
2026-01-31 13:38:58,7644134,1947.000,5124.000,4120.000,2473.000,1022.000,752.000,0.000,-10.800,1
2026-01-31 13:38:58,7644174,2259.000,5438.000,4600.000,-825.000,707.000,1104.000,0.000,-10.800,1
2026-01-31 13:38:58,7644214,4025.000,5378.000,4371.000,-1295.000,1647.000,413.000,0.000,-10.800,1
2026-01-31 13:38:58,7644254,6988.000,6415.000,4485.000,-928.000,1967.000,-809.000,0.000,-10.800,1
2026-01-31 13:38:58,7644294,9068.000,4813.000,4027.000,-1066.000,2966.000,-2400.000,0.000,-10.800,1
2026-01-31 13:38:58,7644334,9345.000,4229.000,4285.000,465.000,3271.000,-3971.000,0.000,-10.800,1
2026-01-31 13:38:58,7644377,10959.000,5296.000,2568.000,2216.000,2644.000,-4883.000,0.000,-10.800,1
2026-01-31 13:38:58,7644414,10014.000,5191.000,2208.000,2375.000,2075.000,-4624.000,0.000,-10.800,1
2026-01-31 13:38:58,7644454,10620.000,4914.000,1177.000,954.000,1456.000,-3784.000,0.000,-10.800,1
2026-01-31 13:38:58,7644494,9224.000,3340.000,769.000,-587.000,361.000,-2808.000,0.000,-10.800,1
2026-01-31 13:38:58,7644534,7079.000,1361.000,1294.000,-1509.000,-1203.000,-2609.000,0.000,-14.400,1
2026-01-31 13:38:58,7644574,5040.000,331.000,1901.000,-2146.000,-2358.000,-2927.000,0.000,-14.400,1
2026-01-31 13:38:58,7644614,3677.000,-161.000,1790.000,-3036.000,-2979.000,-2122.000,0.000,-14.400,1
2026-01-31 13:38:58,7644654,2458.000,671.000,1541.000,-4470.000,-3594.000,-1409.000,0.000,-14.400,1
2026-01-31 13:38:58,7644697,3436.000,1222.000,1701.000,-10238.000,-3158.000,1501.000,0.000,-14.400,1
2026-01-31 13:38:58,7644734,4020.000,455.000,1911.000,-10394.000,-3144.000,2194.000,0.000,-14.400,1
2026-01-31 13:38:58,7644774,7187.000,688.000,2865.000,-7175.000,-3805.000,5608.000,0.000,-14.400,1
2026-01-31 13:38:58,7644814,9224.000,-334.000,2168.000,2107.000,-4795.000,8545.000,0.000,-14.400,1
2026-01-31 13:38:58,7644854,12837.000,1022.000,704.000,14084.000,-4481.000,10658.000,0.000,-14.400,1
2026-01-31 13:38:58,7644894,16785.000,2853.000,-646.000,23927.000,-2658.000,13130.000,0.000,-14.400,1
2026-01-31 13:38:58,7644934,16162.000,4654.000,992.000,28704.000,-997.000,12828.000,0.000,-14.400,1
2026-01-31 13:38:58,7644974,13089.000,2344.000,4042.000,21423.000,858.000,10566.000,0.000,-14.400,1
2026-01-31 13:38:58,7645014,9391.000,324.000,2221.000,12100.000,1384.000,8116.000,0.000,-14.400,1
2026-01-31 13:38:59,7645054,6489.000,2313.000,819.000,5849.000,118.000,4357.000,0.000,-14.400,1
2026-01-31 13:38:59,7645094,4777.000,3753.000,792.000,201.000,-503.000,2370.000,0.000,-14.400,1
2026-01-31 13:38:59,7645134,3968.000,2673.000,390.000,-3930.000,-682.000,1984.000,0.000,-14.400,1
2026-01-31 13:38:59,7645174,3534.000,2637.000,833.000,-2713.000,-1442.000,2816.000,0.000,-14.400,1
2026-01-31 13:38:59,7645214,3793.000,2505.000,1283.000,-1078.000,-1766.000,3565.000,0.000,-14.400,1
2026-01-31 13:38:59,7645254,5162.000,2707.000,1661.000,-1214.000,-2078.000,4038.000,0.000,-14.400,1
2026-01-31 13:38:59,7645294,7944.000,1580.000,2120.000,-2606.000,-2691.000,3470.000,0.000,-14.400,1
2026-01-31 13:38:59,7645334,9441.000,-319.000,2529.000,-3940.000,-2456.000,757.000,0.000,-14.400,1
2026-01-31 13:38:59,7645374,10777.000,-482.000,2251.000,-5255.000,-1767.000,-2326.000,0.000,-14.400,1
2026-01-31 13:38:59,7645414,13361.000,599.000,1757.000,-5580.000,-990.000,-4697.000,0.000,-14.400,1
2026-01-31 13:38:59,7645454,13439.000,1134.000,1567.000,-5084.000,719.000,-6201.000,0.000,-14.400,1
2026-01-31 13:38:59,7645494,13021.000,143.000,784.000,-6039.000,2652.000,-7703.000,0.000,-14.400,1
2026-01-31 13:38:59,7645534,12948.000,504.000,335.000,-7003.000,4368.000,-8920.000,0.000,4.930,1
2026-01-31 13:38:59,7645574,9535.000,946.000,793.000,-8080.000,5729.000,-9695.000,0.000,4.930,1
2026-01-31 13:38:59,7645614,6454.000,427.000,894.000,-8296.000,5546.000,-9129.000,0.000,4.930,1
2026-01-31 13:38:59,7645654,5202.000,938.000,965.000,-6319.000,5474.000,-8466.000,0.000,4.930,1
2026-01-31 13:38:59,7645694,5107.000,1678.000,523.000,-5714.000,5421.000,-7261.000,0.000,4.930,1
2026-01-31 13:38:59,7645734,5807.000,1386.000,-138.000,-5185.000,5533.000,-5448.000,0.000,4.930,1
2026-01-31 13:38:59,7645774,6964.000,1609.000,-448.000,-3244.000,5732.000,-4084.000,0.000,4.930,1
2026-01-31 13:38:59,7645814,8290.000,1589.000,-629.000,-1155.000,5409.000,-2352.000,0.000,4.930,1
2026-01-31 13:38:59,7645854,7987.000,1115.000,92.000,1567.000,4451.000,-532.000,0.000,4.930,1
2026-01-31 13:38:59,7645894,7618.000,2402.000,1592.000,3706.000,2431.000,1096.000,0.000,4.930,1
2026-01-31 13:38:59,7645934,8420.000,2567.000,3356.000,4328.000,-712.000,5368.000,0.000,4.930,1
2026-01-31 13:38:59,7645974,7625.000,2357.000,3709.000,7861.000,-2662.000,8149.000,0.000,4.930,1
2026-01-31 13:38:59,7646014,8787.000,2641.000,3699.000,8483.000,-4781.000,9967.000,0.000,4.930,1
2026-01-31 13:39:00,7646054,10274.000,1916.000,3323.000,5760.000,-6486.000,11809.000,0.000,4.930,1
2026-01-31 13:39:00,7646094,8831.000,1059.000,2596.000,4180.000,-6391.000,11761.000,0.000,4.930,1
2026-01-31 13:39:00,7646134,6275.000,367.000,1730.000,1802.000,-5150.000,10774.000,0.000,4.930,1
2026-01-31 13:39:00,7646174,5356.000,387.000,1092.000,1826.000,-4357.000,9488.000,0.000,4.930,1
2026-01-31 13:39:00,7646214,5834.000,1199.000,1016.000,1621.000,-4033.000,7775.000,0.000,4.930,1
2026-01-31 13:39:00,7646254,6460.000,1287.000,1303.000,1464.000,-3816.000,6651.000,0.000,4.930,1
2026-01-31 13:39:00,7646294,7403.000,1507.000,2301.000,1936.000,-3653.000,6014.000,0.000,4.930,1
2026-01-31 13:39:00,7646334,9337.000,2558.000,3417.000,3633.000,-2931.000,4315.000,0.000,4.930,1
2026-01-31 13:39:00,7646377,9850.000,1983.000,2967.000,421.000,-1144.000,458.000,0.000,4.930,1
2026-01-31 13:39:00,7646417,12707.000,1935.000,1918.000,-1810.000,-462.000,-2356.000,0.000,4.930,1
2026-01-31 13:39:00,7646454,12774.000,1890.000,1571.000,-2438.000,308.000,-3406.000,0.000,4.930,1
2026-01-31 13:39:00,7646494,12033.000,1345.000,945.000,-3936.000,2143.000,-5476.000,0.000,4.930,1
2026-01-31 13:39:00,7646534,13839.000,398.000,-131.000,-6335.000,3767.000,-8230.000,0.000,0.000,1
2026-01-31 13:39:00,7646574,13154.000,1055.000,-20.000,-9073.000,5093.000,-10054.000,0.000,0.000,1
2026-01-31 13:39:00,7646614,10064.000,427.000,368.000,-11679.000,6047.000,-10132.000,0.000,0.000,1
2026-01-31 13:39:00,7646654,7220.000,-190.000,672.000,-10304.000,6549.000,-9762.000,0.000,0.000,1
2026-01-31 13:39:00,7646697,5426.000,1556.000,520.000,-6318.000,6664.000,-8242.000,0.000,0.000,1
2026-01-31 13:39:00,7646734,5645.000,1619.000,174.000,-6202.000,6497.000,-7434.000,0.000,0.000,1
2026-01-31 13:39:00,7646774,6510.000,1665.000,-495.000,-5010.000,6285.000,-5791.000,0.000,0.000,1
2026-01-31 13:39:00,7646814,7542.000,1945.000,-631.000,-2169.000,6142.000,-3992.000,0.000,0.000,1
2026-01-31 13:39:00,7646854,8078.000,1869.000,-162.000,660.000,5507.000,-2337.000,0.000,0.000,1
2026-01-31 13:39:00,7646894,7740.000,1344.000,1091.000,1893.000,4081.000,-1909.000,0.000,0.000,1
2026-01-31 13:39:00,7646934,8447.000,1892.000,2516.000,1513.000,2245.000,-1162.000,0.000,0.000,1
2026-01-31 13:39:00,7646974,8530.000,2100.000,3633.000,2418.000,236.000,1844.000,0.000,0.000,1
2026-01-31 13:39:00,7647014,7504.000,1562.000,4405.000,5308.000,-2507.000,4299.000,0.000,0.000,1
2026-01-31 13:39:01,7647054,9364.000,1727.000,3891.000,8245.000,-4808.000,5991.000,0.000,0.000,1
2026-01-31 13:39:01,7647094,9174.000,1689.000,3276.000,7116.000,-5798.000,9013.000,0.000,0.000,1
2026-01-31 13:39:01,7647134,6345.000,1324.000,2521.000,3948.000,-5282.000,8863.000,0.000,0.000,1
2026-01-31 13:39:01,7647174,5221.000,780.000,1591.000,1756.000,-4621.000,8792.000,0.000,0.000,1
2026-01-31 13:39:01,7647214,4850.000,1367.000,1631.000,2643.000,-4237.000,9065.000,0.000,0.000,1
2026-01-31 13:39:01,7647254,5684.000,1434.000,1766.000,3974.000,-4351.000,9407.000,0.000,0.000,1
2026-01-31 13:39:01,7647294,7044.000,2189.000,2267.000,5877.000,-4130.000,10209.000,0.000,0.000,1
2026-01-31 13:39:01,7647334,8671.000,2901.000,2419.000,6353.000,-2876.000,10369.000,0.000,0.000,1
2026-01-31 13:39:01,7647374,10406.000,3824.000,2842.000,5155.000,-2061.000,8672.000,0.000,0.000,1
2026-01-31 13:39:01,7647414,10044.000,2749.000,3346.000,2276.000,-1258.000,4372.000,0.000,0.000,1
2026-01-31 13:39:01,7647454,12921.000,4015.000,2781.000,673.000,-409.000,-604.000,0.000,0.000,1
2026-01-31 13:39:01,7647494,11288.000,2419.000,1717.000,-2243.000,1082.000,-4032.000,0.000,0.000,1
2026-01-31 13:39:01,7647534,12378.000,2449.000,661.000,-4905.000,2147.000,-8124.000,0.000,0.000,1
2026-01-31 13:39:01,7647574,14533.000,1766.000,-360.000,-8293.000,3428.000,-11335.000,0.000,0.000,1
2026-01-31 13:39:01,7647614,13409.000,776.000,-433.000,-8343.000,4416.000,-13974.000,0.000,0.000,1
2026-01-31 13:39:01,7647654,10134.000,-1079.000,-383.000,-7263.000,4221.000,-15577.000,0.000,0.000,1
2026-01-31 13:39:01,7647694,7677.000,1187.000,-535.000,-872.000,3989.000,-17457.000,0.000,0.000,1
2026-01-31 13:39:01,7647734,6362.000,4005.000,-1240.000,128.000,2466.000,-18528.000,0.000,0.000,1
2026-01-31 13:39:01,7647774,5912.000,3132.000,-1221.000,-1416.000,1246.000,-18367.000,0.000,0.000,1
2026-01-31 13:39:01,7647814,4875.000,2850.000,-1360.000,991.000,1062.000,-17369.000,0.000,0.000,1
2026-01-31 13:39:01,7647854,4772.000,6956.000,-896.000,2669.000,-632.000,-14909.000,0.000,0.000,1
2026-01-31 13:39:01,7647894,3844.000,6273.000,759.000,1151.000,-900.000,-12721.000,0.000,0.000,1
2026-01-31 13:39:01,7647934,2755.000,7628.000,1931.000,1630.000,-1427.000,-10895.000,0.000,0.000,1
2026-01-31 13:39:01,7647974,1349.000,8944.000,2468.000,-148.000,-1371.000,-8486.000,0.000,0.000,1
2026-01-31 13:39:01,7648014,-804.000,8916.000,1979.000,-434.000,-747.000,-4999.000,0.000,0.000,1
2026-01-31 13:39:02,7648054,-914.000,8811.000,2497.000,1147.000,-457.000,-3119.000,0.000,0.000,1
2026-01-31 13:39:02,7648094,-981.000,8069.000,2847.000,1635.000,81.000,-2024.000,0.000,0.000,1
2026-01-31 13:39:02,7648134,-1074.000,7624.000,2717.000,2019.000,-178.000,-176.000,0.000,0.000,1
2026-01-31 13:39:02,7648174,-1730.000,6235.000,2524.000,941.000,209.000,189.000,0.000,0.000,1
2026-01-31 13:39:02,7648214,-2869.000,4257.000,1709.000,-59.000,872.000,-265.000,0.000,0.000,1
2026-01-31 13:39:02,7648254,-2910.000,4330.000,1665.000,60.000,932.000,-992.000,0.000,0.000,1
2026-01-31 13:39:02,7648294,-3268.000,4501.000,2187.000,131.000,607.000,-1567.000,0.000,0.000,1
2026-01-31 13:39:02,7648334,-3010.000,5376.000,2100.000,-249.000,171.000,-1798.000,0.000,0.000,1
2026-01-31 13:39:02,7648374,-3129.000,5984.000,2128.000,-220.000,-174.000,-1881.000,0.000,0.000,1
2026-01-31 13:39:02,7648414,-3199.000,7173.000,1880.000,200.000,-318.000,-1738.000,0.000,0.000,1
2026-01-31 13:39:02,7648454,-3398.000,8049.000,1228.000,583.000,-310.000,-1333.000,0.000,0.000,1
2026-01-31 13:39:02,7648494,-4033.000,9048.000,1081.000,1389.000,-285.000,-960.000,0.000,0.000,1
2026-01-31 13:39:02,7648534,-4573.000,11228.000,377.000,2470.000,-182.000,189.000,0.000,0.000,1
2026-01-31 13:39:02,7648574,-3985.000,11304.000,-733.000,1864.000,-411.000,1401.000,0.000,0.000,1
2026-01-31 13:39:02,7648614,-2641.000,9981.000,-1526.000,1242.000,-619.000,2797.000,0.000,0.000,1
2026-01-31 13:39:02,7648654,-2426.000,8724.000,-882.000,1899.000,-1003.000,3321.000,0.000,0.000,1
2026-01-31 13:39:02,7648697,-1673.000,5861.000,1014.000,1191.000,-2179.000,2654.000,0.000,0.000,1
2026-01-31 13:39:02,7648734,-1637.000,5175.000,1431.000,807.000,-2543.000,2197.000,0.000,0.000,1
2026-01-31 13:39:02,7648774,-1737.000,4425.000,1722.000,-23.000,-2619.000,1502.000,0.000,0.000,1
2026-01-31 13:39:02,7648814,-1891.000,5269.000,945.000,-997.000,-1812.000,971.000,0.000,0.000,1
2026-01-31 13:39:02,7648854,-1857.000,6152.000,918.000,-1540.000,-1027.000,506.000,0.000,0.000,1
2026-01-31 13:39:02,7648894,-1903.000,7090.000,710.000,-1582.000,-126.000,333.000,0.000,0.000,1
2026-01-31 13:39:02,7648934,-1736.000,8946.000,276.000,-1159.000,620.000,807.000,0.000,0.000,1
2026-01-31 13:39:02,7648974,-1911.000,9721.000,932.000,-730.000,1071.000,870.000,0.000,0.000,1
2026-01-31 13:39:02,7649014,-1870.000,11064.000,443.000,-648.000,2042.000,1742.000,0.000,0.000,1
2026-01-31 13:39:03,7649054,-1221.000,11229.000,599.000,865.000,1762.000,2023.000,0.000,0.000,1
2026-01-31 13:39:03,7649094,39.000,9997.000,733.000,1384.000,813.000,976.000,0.000,0.000,1
2026-01-31 13:39:03,7649134,794.000,9372.000,154.000,1650.000,790.000,1065.000,0.000,0.000,1
2026-01-31 13:39:03,7649174,-231.000,8432.000,-27.000,1404.000,814.000,1511.000,0.000,0.000,1
2026-01-31 13:39:03,7649214,-1799.000,5980.000,24.000,1216.000,693.000,1296.000,0.000,0.000,1
2026-01-31 13:39:03,7649254,-2248.000,4558.000,379.000,1749.000,375.000,581.000,0.000,0.000,1
2026-01-31 13:39:03,7649294,-2377.000,4643.000,1001.000,1684.000,-20.000,-242.000,0.000,0.000,1
2026-01-31 13:39:03,7649334,-2399.000,4960.000,1906.000,1174.000,140.000,-1343.000,0.000,0.000,1
2026-01-31 13:39:03,7649374,-2529.000,6057.000,1665.000,157.000,-918.000,-2021.000,0.000,0.000,1
2026-01-31 13:39:03,7649414,-2443.000,7658.000,1317.000,-379.000,-1368.000,-2127.000,0.000,0.000,1
2026-01-31 13:39:03,7649454,-1809.000,8940.000,78.000,-528.000,-1450.000,-1532.000,0.000,0.000,1
2026-01-31 13:39:03,7649494,-2358.000,9540.000,-970.000,593.000,-2062.000,-1144.000,0.000,0.000,1
2026-01-31 13:39:03,7649534,-3050.000,11983.000,-761.000,3142.000,-2962.000,-132.000,0.000,0.000,1
2026-01-31 13:39:03,7649574,-2795.000,12197.000,-1582.000,1774.000,-2711.000,1101.000,0.000,0.000,1
2026-01-31 13:39:03,7649614,-2763.000,10558.000,-2831.000,1374.000,-2633.000,1939.000,0.000,0.000,1
2026-01-31 13:39:03,7649654,-2027.000,10187.000,-3176.000,1181.000,-3186.000,2537.000,0.000,0.000,1
2026-01-31 13:39:03,7649694,-1693.000,7946.000,-2371.000,1916.000,-3561.000,2666.000,0.000,0.000,1
2026-01-31 13:39:03,7649734,-461.000,5312.000,418.000,1265.000,-3533.000,2292.000,0.000,0.000,1
2026-01-31 13:39:03,7649774,-401.000,4807.000,435.000,-578.000,-2960.000,1336.000,0.000,0.000,1
2026-01-31 13:39:03,7649814,-936.000,4763.000,-136.000,-1531.000,-2599.000,1004.000,0.000,0.000,1
2026-01-31 13:39:03,7649854,-1170.000,5435.000,-638.000,-1927.000,-1893.000,709.000,0.000,0.000,1
2026-01-31 13:39:03,7649894,-1244.000,7184.000,-293.000,-1844.000,-1525.000,583.000,0.000,0.000,1
2026-01-31 13:39:03,7649934,-481.000,8694.000,-345.000,-2652.000,-499.000,744.000,0.000,0.000,1
2026-01-31 13:39:03,7649974,114.000,9204.000,-189.000,-1939.000,287.000,657.000,0.000,0.000,1
2026-01-31 13:39:03,7650014,-71.000,10851.000,43.000,-1142.000,1211.000,621.000,0.000,0.000,1
2026-01-31 13:39:04,7650054,-415.000,11673.000,-6.000,-371.000,2227.000,1206.000,0.000,0.000,1
2026-01-31 13:39:04,7650094,1548.000,11212.000,320.000,1090.000,2331.000,739.000,0.000,0.000,1
2026-01-31 13:39:04,7650134,2570.000,10353.000,-498.000,2553.000,1642.000,856.000,0.000,0.000,1
2026-01-31 13:39:04,7650174,898.000,8044.000,97.000,997.000,1445.000,1577.000,0.000,0.000,1
2026-01-31 13:39:04,7650214,-392.000,5256.000,249.000,54.000,1566.000,1636.000,0.000,0.000,1
2026-01-31 13:39:04,7650254,-1745.000,4359.000,233.000,-277.000,1355.000,804.000,0.000,0.000,1
2026-01-31 13:39:04,7650294,-2654.000,3574.000,391.000,-484.000,1105.000,26.000,0.000,0.000,1
2026-01-31 13:39:04,7650334,-2053.000,4076.000,885.000,1111.000,751.000,-1310.000,0.000,0.000,1
2026-01-31 13:39:04,7650374,-1820.000,4707.000,1183.000,1430.000,336.000,-2587.000,0.000,0.000,1
2026-01-31 13:39:04,7650417,-1622.000,8224.000,634.000,1107.000,-226.000,-3061.000,0.000,0.000,1
2026-01-31 13:39:04,7650456,-1430.000,9336.000,193.000,1638.000,-612.000,-3216.000,0.000,0.000,1
2026-01-31 13:39:04,7650497,-973.000,13366.000,-1316.000,1712.000,-1653.000,-21.000,0.000,0.000,1
2026-01-31 13:39:04,7650534,-744.000,13762.000,-2727.000,1787.000,-1643.000,789.000,0.000,0.000,1
2026-01-31 13:39:04,7650574,-434.000,11674.000,-3707.000,1393.000,-1729.000,1747.000,0.000,0.000,1
2026-01-31 13:39:04,7650614,-255.000,10910.000,-2552.000,1369.000,-1521.000,2607.000,0.000,0.000,1
2026-01-31 13:39:04,7650654,-1099.000,9173.000,-1532.000,979.000,-1892.000,3090.000,0.000,0.000,1
2026-01-31 13:39:04,7650694,-508.000,6584.000,126.000,133.000,-2354.000,2688.000,0.000,0.000,1
2026-01-31 13:39:04,7650734,-349.000,5082.000,877.000,-970.000,-2625.000,1831.000,0.000,0.000,1
2026-01-31 13:39:04,7650774,-1276.000,4715.000,416.000,-2078.000,-2585.000,945.000,0.000,0.000,1
2026-01-31 13:39:04,7650814,-539.000,5002.000,-153.000,-3167.000,-2776.000,-93.000,0.000,0.000,1
2026-01-31 13:39:04,7650854,-118.000,6224.000,-524.000,-2822.000,-1920.000,-761.000,0.000,0.000,1
2026-01-31 13:39:04,7650894,1750.000,8850.000,-1803.000,-3626.000,214.000,-22.000,0.000,0.000,1
2026-01-31 13:39:04,7650934,1851.000,9975.000,-1843.000,-1361.000,1341.000,205.000,0.000,0.000,1
2026-01-31 13:39:04,7650974,2069.000,11105.000,-1020.000,-1199.000,2695.000,1461.000,0.000,0.000,1
2026-01-31 13:39:04,7651014,1944.000,10822.000,-439.000,506.000,2950.000,2038.000,0.000,0.000,1
2026-01-31 13:39:05,7651054,3014.000,12314.000,-658.000,835.000,2658.000,1962.000,0.000,0.000,1
2026-01-31 13:39:05,7651094,2685.000,9985.000,-101.000,2149.000,2637.000,1856.000,0.000,0.000,1
2026-01-31 13:39:05,7651134,1436.000,8089.000,511.000,2346.000,2861.000,968.000,0.000,0.000,1
2026-01-31 13:39:05,7651174,-1431.000,5508.000,505.000,1076.000,2996.000,267.000,0.000,0.000,1
2026-01-31 13:39:05,7651214,-2818.000,5005.000,1071.000,1453.000,2395.000,-1232.000,0.000,0.000,1
2026-01-31 13:39:05,7651254,-2909.000,4612.000,1252.000,323.000,1382.000,-2708.000,0.000,0.000,1
2026-01-31 13:39:05,7651294,-1096.000,7039.000,2029.000,-1877.000,894.000,-3882.000,0.000,0.000,1
2026-01-31 13:39:05,7651334,-641.000,6815.000,1036.000,-3367.000,621.000,-4751.000,0.000,0.000,1
2026-01-31 13:39:05,7651374,-896.000,8608.000,585.000,-2226.000,347.000,-5584.000,0.000,0.000,1
2026-01-31 13:39:05,7651414,-1664.000,9664.000,-603.000,-1683.000,271.000,-5693.000,0.000,0.000,1
2026-01-31 13:39:05,7651454,-1802.000,11108.000,-652.000,147.000,-196.000,-5120.000,0.000,0.000,1
2026-01-31 13:39:05,7651494,-1656.000,12453.000,-820.000,-89.000,-331.000,-3344.000,0.000,0.000,1
2026-01-31 13:39:05,7651534,-2492.000,11165.000,-1882.000,-447.000,-588.000,-1470.000,0.000,45.170,1
2026-01-31 13:39:05,7651574,-2485.000,10621.000,-2189.000,807.000,-1349.000,291.000,0.000,45.170,1
2026-01-31 13:39:05,7651614,-2440.000,8587.000,-1314.000,1365.000,-2060.000,1509.000,0.000,45.170,1
2026-01-31 13:39:05,7651654,-1142.000,5080.000,1769.000,1919.000,-2657.000,1283.000,0.000,45.170,1
2026-01-31 13:39:05,7651694,-1509.000,4130.000,1679.000,-233.000,-3016.000,787.000,0.000,45.170,1
2026-01-31 13:39:05,7651734,-2084.000,4605.000,714.000,-1103.000,-3005.000,86.000,0.000,45.170,1
2026-01-31 13:39:05,7651774,-1946.000,5603.000,834.000,-1680.000,-2389.000,-413.000,0.000,45.170,1
2026-01-31 13:39:05,7651814,-1648.000,7374.000,516.000,-1985.000,-1338.000,-375.000,0.000,45.170,1
2026-01-31 13:39:05,7651854,-1436.000,9624.000,290.000,-2082.000,-329.000,-58.000,0.000,45.170,1
2026-01-31 13:39:05,7651894,-1234.000,9102.000,690.000,-2011.000,712.000,112.000,0.000,45.170,1
2026-01-31 13:39:05,7651934,-2070.000,10250.000,1009.000,-1381.000,1148.000,522.000,0.000,45.170,1
2026-01-31 13:39:05,7651974,-2096.000,11013.000,1541.000,-561.000,1754.000,1207.000,0.000,45.170,1
2026-01-31 13:39:05,7652014,-1365.000,10127.000,1984.000,-447.000,1688.000,1123.000,0.000,45.170,1
2026-01-31 13:39:06,7652054,-325.000,8815.000,1896.000,128.000,685.000,1315.000,0.000,45.170,1
2026-01-31 13:39:06,7652094,-495.000,7409.000,1525.000,437.000,672.000,1056.000,0.000,45.170,1
2026-01-31 13:39:06,7652134,-1330.000,5256.000,1078.000,-291.000,1045.000,616.000,0.000,45.170,1
2026-01-31 13:39:06,7652174,-1620.000,4195.000,1234.000,-59.000,1242.000,-68.000,0.000,45.170,1
2026-01-31 13:39:06,7652214,-1574.000,3858.000,1522.000,457.000,1315.000,-842.000,0.000,45.170,1
2026-01-31 13:39:06,7652254,-1742.000,4913.000,1765.000,322.000,980.000,-1179.000,0.000,45.170,1
2026-01-31 13:39:06,7652294,-1776.000,5346.000,2479.000,-18.000,708.000,-1211.000,0.000,45.170,1
2026-01-31 13:39:06,7652334,-2209.000,6216.000,2787.000,473.000,735.000,-956.000,0.000,45.170,1
2026-01-31 13:39:06,7652377,-2903.000,8497.000,2075.000,854.000,611.000,-681.000,0.000,45.170,1
2026-01-31 13:39:06,7652416,-3129.000,9926.000,1056.000,1588.000,963.000,-682.000,0.000,45.170,1
2026-01-31 13:39:06,7652455,-3178.000,11570.000,846.000,2320.000,960.000,-524.000,0.000,45.170,1
2026-01-31 13:39:06,7652494,-2228.000,12830.000,454.000,2192.000,569.000,358.000,0.000,45.170,1
2026-01-31 13:39:06,7652534,-1960.000,10708.000,-238.000,930.000,18.000,1038.000,0.000,2.920,1
2026-01-31 13:39:06,7652574,-1509.000,10281.000,-1288.000,694.000,-244.000,2161.000,0.000,2.920,1
2026-01-31 13:39:06,7652614,-1062.000,8896.000,-1297.000,611.000,-388.000,3084.000,0.000,2.920,1
2026-01-31 13:39:06,7652654,-563.000,7021.000,-571.000,1232.000,-526.000,3629.000,0.000,2.920,1
2026-01-31 13:39:06,7652698,-247.000,4468.000,875.000,599.000,-840.000,3250.000,0.000,2.920,1
2026-01-31 13:39:06,7652734,-330.000,4003.000,852.000,-5.000,-788.000,3175.000,0.000,2.920,1
2026-01-31 13:39:06,7652774,-204.000,4183.000,247.000,-117.000,-879.000,3133.000,0.000,2.920,1
2026-01-31 13:39:06,7652814,254.000,5598.000,138.000,-258.000,-142.000,3265.000,0.000,2.920,1
2026-01-31 13:39:06,7652854,170.000,8470.000,-986.000,-235.000,907.000,3956.000,0.000,2.920,1
2026-01-31 13:39:06,7652894,966.000,9943.000,-1213.000,829.000,1739.000,4167.000,0.000,2.920,1
2026-01-31 13:39:06,7652934,1030.000,10776.000,-582.000,2852.000,2592.000,3944.000,0.000,2.920,1
2026-01-31 13:39:06,7652974,1041.000,11741.000,-859.000,3332.000,3154.000,3455.000,0.000,2.920,1
2026-01-31 13:39:06,7653014,1484.000,11351.000,-608.000,3856.000,3473.000,3191.000,0.000,2.920,1
2026-01-31 13:39:07,7653054,2022.000,9771.000,193.000,3975.000,2397.000,1523.000,0.000,2.920,1
2026-01-31 13:39:07,7653094,4236.000,9060.000,-106.000,2767.000,1438.000,883.000,0.000,2.920,1
2026-01-31 13:39:07,7653134,4345.000,8410.000,-806.000,1774.000,917.000,1062.000,0.000,2.920,1
2026-01-31 13:39:07,7653174,1478.000,4935.000,-169.000,410.000,511.000,427.000,0.000,2.920,1
2026-01-31 13:39:07,7653214,406.000,3986.000,-180.000,-728.000,579.000,-191.000,0.000,2.920,1
2026-01-31 13:39:07,7653254,31.000,3762.000,-202.000,-808.000,625.000,-740.000,0.000,2.920,1
2026-01-31 13:39:07,7653294,-114.000,4531.000,-602.000,-427.000,527.000,-713.000,0.000,2.920,1
2026-01-31 13:39:07,7653334,344.000,6726.000,-349.000,87.000,214.000,-688.000,0.000,2.920,1
2026-01-31 13:39:07,7653374,698.000,7472.000,-86.000,1152.000,-292.000,-400.000,0.000,2.920,1
2026-01-31 13:39:07,7653414,1720.000,8925.000,295.000,2734.000,-1550.000,102.000,0.000,2.920,1
2026-01-31 13:39:07,7653454,2814.000,11038.000,-216.000,3664.000,-2532.000,-250.000,0.000,2.920,1
2026-01-31 13:39:07,7653494,3342.000,13063.000,-1554.000,2231.000,-1692.000,-312.000,0.000,2.920,1
2026-01-31 13:39:07,7653534,3987.000,12150.000,-3912.000,2648.000,-1068.000,-395.000,0.000,-13.760,1
2026-01-31 13:39:07,7653574,4103.000,8713.000,-4772.000,469.000,542.000,1.000,0.000,-13.760,1
2026-01-31 13:39:07,7653614,3566.000,8255.000,-4365.000,1004.000,1343.000,487.000,0.000,-13.760,1
2026-01-31 13:39:07,7653654,2646.000,6767.000,-2421.000,1312.000,1270.000,1352.000,0.000,-13.760,1
2026-01-31 13:39:07,7653694,1983.000,5046.000,-708.000,44.000,569.000,1914.000,0.000,-13.760,1
2026-01-31 13:39:07,7653734,1337.000,3681.000,-389.000,-1848.000,-180.000,2247.000,0.000,-13.760,1
2026-01-31 13:39:07,7653774,980.000,4022.000,-894.000,-2763.000,-792.000,2033.000,0.000,-13.760,1
2026-01-31 13:39:07,7653814,1118.000,5365.000,-1513.000,-3152.000,-569.000,1746.000,0.000,-13.760,1
2026-01-31 13:39:07,7653854,1375.000,7151.000,-2451.000,-3177.000,191.000,1727.000,0.000,-13.760,1
2026-01-31 13:39:07,7653894,2143.000,8781.000,-2790.000,-2183.000,754.000,1482.000,0.000,-13.760,1
2026-01-31 13:39:07,7653934,3124.000,8628.000,-3158.000,-1177.000,1671.000,966.000,0.000,-13.760,1
2026-01-31 13:39:07,7653974,3718.000,10284.000,-3308.000,937.000,2946.000,-70.000,0.000,-13.760,1
2026-01-31 13:39:07,7654014,3478.000,10135.000,-2730.000,2361.000,3502.000,-632.000,0.000,-13.760,1
2026-01-31 13:39:08,7654054,4312.000,8656.000,-848.000,2191.000,2576.000,-1810.000,0.000,-13.760,1
2026-01-31 13:39:08,7654094,5687.000,8321.000,-627.000,756.000,1163.000,-2087.000,0.000,-13.760,1
2026-01-31 13:39:08,7654134,5256.000,7669.000,-639.000,528.000,-90.000,-1251.000,0.000,-13.760,1
2026-01-31 13:39:08,7654174,3089.000,5313.000,-473.000,-139.000,-886.000,-934.000,0.000,-13.760,1
2026-01-31 13:39:08,7654214,1507.000,3756.000,-238.000,-956.000,-996.000,-188.000,0.000,-13.760,1
2026-01-31 13:39:08,7654254,715.000,3264.000,-396.000,-1004.000,-824.000,-50.000,0.000,-13.760,1
2026-01-31 13:39:08,7654294,406.000,3609.000,-448.000,-527.000,-616.000,-266.000,0.000,-13.760,1
2026-01-31 13:39:08,7654334,809.000,5545.000,-887.000,-245.000,-281.000,-383.000,0.000,-13.760,1
2026-01-31 13:39:08,7654377,2107.000,7612.000,-13.000,1972.000,-986.000,-464.000,0.000,-13.760,1
2026-01-31 13:39:08,7654414,3015.000,8397.000,38.000,2356.000,-1107.000,-368.000,0.000,-13.760,1
2026-01-31 13:39:08,7654454,4231.000,11000.000,-412.000,3224.000,-1436.000,-400.000,0.000,-13.760,1
2026-01-31 13:39:08,7654494,3723.000,12322.000,-1141.000,2257.000,-643.000,-1088.000,0.000,-13.760,1
2026-01-31 13:39:08,7654534,3253.000,12831.000,-3509.000,1973.000,-413.000,-1056.000,0.000,6.970,1
2026-01-31 13:39:08,7654574,3479.000,10113.000,-4210.000,-1851.000,370.000,-908.000,0.000,6.970,1
2026-01-31 13:39:08,7654614,3279.000,9510.000,-4751.000,-2317.000,1030.000,-937.000,0.000,6.970,1
2026-01-31 13:39:08,7654654,3074.000,8367.000,-4061.000,-1658.000,1782.000,-661.000,0.000,6.970,1
2026-01-31 13:39:08,7654697,2200.000,4697.000,-685.000,-946.000,584.000,-66.000,0.000,6.970,1
2026-01-31 13:39:08,7654734,1953.000,4011.000,-266.000,-1936.000,-1.000,112.000,0.000,6.970,1
2026-01-31 13:39:08,7654774,1437.000,3284.000,-318.000,-3018.000,-836.000,678.000,0.000,6.970,1
2026-01-31 13:39:08,7654814,1154.000,4006.000,-749.000,-3130.000,-1104.000,1095.000,0.000,6.970,1
2026-01-31 13:39:08,7654854,1155.000,5548.000,-1396.000,-2914.000,-905.000,1732.000,0.000,6.970,1
2026-01-31 13:39:08,7654894,1571.000,7981.000,-1882.000,-2227.000,-391.000,2351.000,0.000,6.970,1
2026-01-31 13:39:08,7654934,2291.000,8930.000,-2699.000,-735.000,465.000,2857.000,0.000,6.970,1
2026-01-31 13:39:08,7654974,3295.000,10024.000,-3206.000,1254.000,1183.000,2354.000,0.000,6.970,1
2026-01-31 13:39:08,7655014,3251.000,9889.000,-2210.000,2839.000,1513.000,1299.000,0.000,6.970,1
2026-01-31 13:39:09,7655054,2598.000,10294.000,-1535.000,2345.000,1956.000,747.000,0.000,6.970,1
2026-01-31 13:39:09,7655094,3216.000,8636.000,1024.000,1625.000,1594.000,-1379.000,0.000,6.970,1
2026-01-31 13:39:09,7655134,5425.000,9087.000,96.000,-553.000,449.000,-1467.000,0.000,6.970,1
2026-01-31 13:39:09,7655174,5867.000,7474.000,-472.000,-522.000,-587.000,-960.000,0.000,6.970,1
2026-01-31 13:39:09,7655214,3605.000,5036.000,-670.000,-415.000,-912.000,-850.000,0.000,6.970,1
2026-01-31 13:39:09,7655254,1846.000,4004.000,-426.000,-206.000,-647.000,-87.000,0.000,6.970,1
2026-01-31 13:39:09,7655294,990.000,3537.000,-112.000,9.000,-320.000,-6.000,0.000,6.970,1
2026-01-31 13:39:09,7655334,493.000,3680.000,-84.000,259.000,-138.000,-136.000,0.000,6.970,1
2026-01-31 13:39:09,7655374,738.000,4588.000,-156.000,691.000,-98.000,-261.000,0.000,6.970,1
2026-01-31 13:39:09,7655414,1711.000,6252.000,-30.000,1452.000,-104.000,-335.000,0.000,6.970,1
2026-01-31 13:39:09,7655454,2099.000,8113.000,82.000,1676.000,-479.000,-537.000,0.000,6.970,1
2026-01-31 13:39:09,7655494,2512.000,10568.000,59.000,1400.000,-1087.000,-1109.000,0.000,6.970,1
2026-01-31 13:39:09,7655534,2513.000,11131.000,-96.000,513.000,-933.000,-1707.000,0.000,0.160,1
2026-01-31 13:39:09,7655574,2506.000,11706.000,-1216.000,460.000,-420.000,-1947.000,0.000,0.160,1
2026-01-31 13:39:09,7655614,3204.000,10460.000,-2731.000,894.000,-234.000,-1812.000,0.000,0.160,1
2026-01-31 13:39:09,7655654,3832.000,9228.000,-4174.000,-1034.000,603.000,-1486.000,0.000,0.160,1
2026-01-31 13:39:09,7655694,3985.000,9187.000,-4525.000,-821.000,1247.000,-420.000,0.000,0.160,1
2026-01-31 13:39:09,7655734,3142.000,7559.000,-3098.000,-32.000,1284.000,804.000,0.000,0.160,1
2026-01-31 13:39:09,7655774,2331.000,5967.000,-1134.000,351.000,355.000,1554.000,0.000,0.160,1
2026-01-31 13:39:09,7655814,1631.000,4747.000,-265.000,-661.000,-661.000,1971.000,0.000,0.160,1
2026-01-31 13:39:09,7655854,873.000,3850.000,-609.000,-1696.000,-1010.000,1892.000,0.000,0.160,1
2026-01-31 13:39:09,7655894,697.000,4730.000,-1084.000,-1748.000,-489.000,1768.000,0.000,0.160,1
2026-01-31 13:39:09,7655934,1032.000,6847.000,-1734.000,-1136.000,146.000,1647.000,0.000,0.160,1
2026-01-31 13:39:09,7655974,1427.000,8278.000,-2252.000,-725.000,806.000,1572.000,0.000,0.160,1
2026-01-31 13:39:09,7656014,2312.000,9324.000,-2781.000,-16.000,1431.000,1314.000,0.000,0.160,1
2026-01-31 13:39:10,7656054,2707.000,9692.000,-2340.000,846.000,1520.000,498.000,0.000,0.160,1
2026-01-31 13:39:10,7656094,3503.000,10478.000,-1711.000,956.000,1658.000,-152.000,0.000,0.160,1
2026-01-31 13:39:10,7656134,3815.000,10945.000,-1267.000,1251.000,1672.000,-291.000,0.000,0.160,1
2026-01-31 13:39:10,7656174,4321.000,9119.000,180.000,923.000,470.000,-913.000,0.000,0.160,1
2026-01-31 13:39:10,7656214,5242.000,7560.000,115.000,-617.000,-776.000,-1407.000,0.000,0.160,1
2026-01-31 13:39:10,7656254,3895.000,5406.000,-1186.000,-567.000,-936.000,-355.000,0.000,0.160,1
2026-01-31 13:39:10,7656294,2305.000,4407.000,-1258.000,52.000,-709.000,-81.000,0.000,0.160,1
2026-01-31 13:39:10,7656334,1549.000,3945.000,-1068.000,431.000,-467.000,285.000,0.000,0.160,1
2026-01-31 13:39:10,7656374,1200.000,3870.000,-867.000,723.000,-334.000,238.000,0.000,0.160,1
2026-01-31 13:39:10,7656417,1368.000,4925.000,-342.000,1386.000,-424.000,264.000,0.000,0.160,1
2026-01-31 13:39:10,7656456,1796.000,6513.000,-210.000,1454.000,-494.000,293.000,0.000,0.160,1
2026-01-31 13:39:10,7656494,1926.000,7407.000,-177.000,1503.000,-623.000,311.000,0.000,0.160,1
2026-01-31 13:39:10,7656534,2178.000,9186.000,134.000,1489.000,-1350.000,172.000,0.000,-1.770,1
2026-01-31 13:39:10,7656574,2962.000,11049.000,-366.000,1439.000,-1989.000,-385.000,0.000,-1.770,1
2026-01-31 13:39:10,7656614,2620.000,11158.000,-1435.000,-136.000,-1398.000,-1364.000,0.000,-1.770,1
2026-01-31 13:39:10,7656654,3354.000,11181.000,-2943.000,842.000,-915.000,-1826.000,0.000,-1.770,1
2026-01-31 13:39:10,7656697,3900.000,8422.000,-3967.000,-1464.000,66.000,-1216.000,0.000,-1.770,1
2026-01-31 13:39:10,7656734,3875.000,8382.000,-4200.000,-1282.000,352.000,-933.000,0.000,-1.770,1
2026-01-31 13:39:10,7656774,3673.000,7878.000,-3903.000,-785.000,882.000,49.000,0.000,-1.770,1
2026-01-31 13:39:10,7656814,3257.000,6730.000,-2505.000,-27.000,624.000,808.000,0.000,-1.770,1
2026-01-31 13:39:10,7656854,2803.000,4936.000,-789.000,-334.000,-105.000,1096.000,0.000,-1.770,1
2026-01-31 13:39:10,7656894,2112.000,4167.000,-509.000,-1185.000,-345.000,1377.000,0.000,-1.770,1
2026-01-31 13:39:10,7656934,1458.000,4199.000,-887.000,-1723.000,-109.000,1628.000,0.000,-1.770,1
2026-01-31 13:39:10,7656974,1341.000,5324.000,-1290.000,-1647.000,455.000,1895.000,0.000,-1.770,1
2026-01-31 13:39:10,7657014,1587.000,7288.000,-2067.000,-202.000,1312.000,1935.000,0.000,-1.770,1
2026-01-31 13:39:11,7657054,2089.000,9156.000,-2393.000,624.000,1622.000,1855.000,0.000,-1.770,1
2026-01-31 13:39:11,7657094,2685.000,9268.000,-2474.000,782.000,1845.000,1151.000,0.000,-1.770,1
2026-01-31 13:39:11,7657134,2973.000,9777.000,-1749.000,758.000,1636.000,234.000,0.000,-1.770,1
2026-01-31 13:39:11,7657174,3526.000,10700.000,-1859.000,531.000,1812.000,-134.000,0.000,-1.770,1
2026-01-31 13:39:11,7657214,4502.000,9839.000,-812.000,660.000,1022.000,-798.000,0.000,-1.770,1
2026-01-31 13:39:11,7657254,5856.000,8195.000,-200.000,-276.000,-459.000,-1919.000,0.000,-1.770,1
2026-01-31 13:39:11,7657294,5944.000,7307.000,-990.000,-1151.000,-852.000,-1554.000,0.000,-1.770,1
2026-01-31 13:39:11,7657334,4241.000,5021.000,-1271.000,-1472.000,-881.000,-1472.000,0.000,-1.770,1
2026-01-31 13:39:11,7657374,2552.000,4056.000,-787.000,-718.000,-572.000,-1024.000,0.000,-1.770,1
2026-01-31 13:39:11,7657414,1332.000,3779.000,-547.000,274.000,139.000,-520.000,0.000,-1.770,1
2026-01-31 13:39:11,7657454,1009.000,3927.000,-267.000,891.000,366.000,-373.000,0.000,-1.770,1
2026-01-31 13:39:11,7657494,1252.000,4966.000,179.000,1548.000,277.000,10.000,0.000,-1.770,1
2026-01-31 13:39:11,7657534,1670.000,6859.000,166.000,2254.000,9.000,708.000,0.000,-7.860,1
2026-01-31 13:39:11,7657574,1795.000,9045.000,318.000,2964.000,-1427.000,850.000,0.000,-7.860,1
2026-01-31 13:39:11,7657614,2862.000,10046.000,-215.000,2025.000,-2728.000,578.000,0.000,-7.860,1
2026-01-31 13:39:11,7657654,3784.000,10967.000,-1591.000,1367.000,-2036.000,-408.000,0.000,-7.860,1
2026-01-31 13:39:11,7657694,3600.000,11768.000,-2246.000,466.000,-679.000,-1548.000,0.000,-7.860,1
2026-01-31 13:39:11,7657734,3833.000,10201.000,-2366.000,868.000,-129.000,-1840.000,0.000,-7.860,1
2026-01-31 13:39:11,7657774,3847.000,7894.000,-3597.000,-1636.000,1479.000,-1827.000,0.000,-7.860,1
2026-01-31 13:39:11,7657814,4010.000,7865.000,-4181.000,-1163.000,2476.000,-985.000,0.000,-7.860,1
2026-01-31 13:39:11,7657854,3707.000,6884.000,-2924.000,133.000,2539.000,178.000,0.000,-7.860,1
2026-01-31 13:39:11,7657894,3178.000,5560.000,-1123.000,414.000,1814.000,1230.000,0.000,-7.860,1
2026-01-31 13:39:11,7657934,2411.000,4710.000,-590.000,-280.000,1060.000,1822.000,0.000,-7.860,1
2026-01-31 13:39:11,7657974,1527.000,4563.000,-953.000,-1203.000,743.000,2135.000,0.000,-7.860,1
2026-01-31 13:39:11,7658014,1039.000,4912.000,-1371.000,-1367.000,810.000,2386.000,0.000,-7.860,1
2026-01-31 13:39:12,7658054,1205.000,5937.000,-1833.000,-638.000,874.000,2460.000,0.000,-7.860,1
2026-01-31 13:39:12,7658094,1407.000,7518.000,-2247.000,247.000,882.000,2408.000,0.000,-7.860,1
2026-01-31 13:39:12,7658134,2597.000,9083.000,-2680.000,844.000,846.000,2368.000,0.000,-7.860,1
2026-01-31 13:39:12,7658174,3714.000,9526.000,-2376.000,813.000,994.000,956.000,0.000,-7.860,1
2026-01-31 13:39:12,7658214,3928.000,10641.000,-1989.000,798.000,1196.000,232.000,0.000,-7.860,1
2026-01-31 13:39:12,7658254,4539.000,9892.000,-1219.000,342.000,1031.000,-805.000,0.000,-7.860,1
2026-01-31 13:39:12,7658294,5464.000,8003.000,-457.000,-500.000,86.000,-2053.000,0.000,-7.860,1
2026-01-31 13:39:12,7658334,6660.000,7173.000,-880.000,-1529.000,-541.000,-2031.000,0.000,-7.860,1
2026-01-31 13:39:12,7658374,5496.000,5409.000,-1149.000,-1353.000,-782.000,-1719.000,0.000,-7.860,1
2026-01-31 13:39:12,7658414,3552.000,4707.000,-928.000,-709.000,-675.000,-1325.000,0.000,-7.860,1
2026-01-31 13:39:12,7658454,2073.000,3950.000,-792.000,-462.000,-212.000,-698.000,0.000,-7.860,1
2026-01-31 13:39:12,7658494,1281.000,3877.000,-555.000,73.000,84.000,-710.000,0.000,-7.860,1
2026-01-31 13:39:12,7658534,978.000,4770.000,-262.000,484.000,297.000,-433.000,0.000,0.000,1
2026-01-31 13:39:12,7658574,1576.000,6388.000,27.000,1193.000,-14.000,-374.000,0.000,0.000,1
2026-01-31 13:39:12,7658614,1793.000,7850.000,232.000,1330.000,-633.000,-237.000,0.000,0.000,1
2026-01-31 13:39:12,7658654,2359.000,9232.000,10.000,1160.000,-1364.000,-333.000,0.000,0.000,1
2026-01-31 13:39:12,7658697,3957.000,11011.000,-1011.000,643.000,-1648.000,-928.000,0.000,0.000,1
2026-01-31 13:39:12,7658734,3654.000,11155.000,-1178.000,109.000,-1112.000,-1379.000,0.000,0.000,1
2026-01-31 13:39:12,7658774,3722.000,11148.000,-2023.000,1065.000,-518.000,-1846.000,0.000,0.000,1
2026-01-31 13:39:12,7658814,3396.000,9034.000,-2160.000,-178.000,-131.000,-1469.000,0.000,0.000,1
2026-01-31 13:39:12,7658854,3681.000,8449.000,-3435.000,-1621.000,685.000,-1275.000,0.000,0.000,1
2026-01-31 13:39:12,7658894,3580.000,7777.000,-3953.000,-1427.000,1547.000,-468.000,0.000,0.000,1
2026-01-31 13:39:12,7658934,3093.000,5988.000,-1928.000,766.000,1075.000,773.000,0.000,0.000,1
2026-01-31 13:39:12,7658974,2781.000,5155.000,-720.000,285.000,258.000,1328.000,0.000,0.000,1
2026-01-31 13:39:12,7659014,2043.000,4598.000,-770.000,-746.000,-247.000,1586.000,0.000,0.000,1
2026-01-31 13:39:13,7659054,1288.000,4842.000,-1270.000,-1703.000,-65.000,1771.000,0.000,0.000,1
2026-01-31 13:39:13,7659094,944.000,5611.000,-1609.000,-1580.000,495.000,1669.000,0.000,0.000,1
2026-01-31 13:39:13,7659134,911.000,7005.000,-1919.000,-638.000,961.000,1473.000,0.000,0.000,1
2026-01-31 13:39:13,7659174,1385.000,8895.000,-2197.000,267.000,1299.000,1447.000,0.000,0.000,1
2026-01-31 13:39:13,7659214,2277.000,9658.000,-2308.000,745.000,1307.000,1134.000,0.000,0.000,1
2026-01-31 13:39:13,7659254,3129.000,10050.000,-1558.000,570.000,909.000,316.000,0.000,0.000,1
2026-01-31 13:39:13,7659294,4676.000,10803.000,-1334.000,587.000,764.000,106.000,0.000,0.000,1
2026-01-31 13:39:13,7659334,5557.000,8615.000,-528.000,-208.000,-742.000,-782.000,0.000,0.000,1
2026-01-31 13:39:13,7659374,6360.000,7874.000,-1461.000,-1537.000,-1241.000,-1276.000,0.000,0.000,1
2026-01-31 13:39:13,7659414,5801.000,6253.000,-1736.000,-1757.000,-994.000,-1271.000,0.000,0.000,1
2026-01-31 13:39:13,7659454,3868.000,4722.000,-1122.000,-894.000,-709.000,-1198.000,0.000,0.000,1
2026-01-31 13:39:13,7659494,2373.000,4267.000,-698.000,-203.000,-278.000,-593.000,0.000,0.000,1
2026-01-31 13:39:13,7659534,1408.000,4215.000,-443.000,301.000,-23.000,-490.000,0.000,0.000,1
2026-01-31 13:39:13,7659574,1054.000,4164.000,-176.000,373.000,230.000,-192.000,0.000,0.000,1
2026-01-31 13:39:13,7659614,1130.000,5363.000,-27.000,618.000,244.000,30.000,0.000,0.000,1
2026-01-31 13:39:13,7659654,1290.000,6477.000,378.000,770.000,-225.000,-44.000,0.000,0.000,1
2026-01-31 13:39:13,7659694,1689.000,8669.000,238.000,1124.000,-1145.000,-446.000,0.000,0.000,1
2026-01-31 13:39:13,7659734,2630.000,9870.000,-431.000,1006.000,-1516.000,-840.000,0.000,0.000,1
2026-01-31 13:39:13,7659774,3076.000,10280.000,-778.000,737.000,-1242.000,-1665.000,0.000,0.000,1
2026-01-31 13:39:13,7659814,2928.000,11659.000,-1022.000,927.000,-715.000,-1874.000,0.000,0.000,1
2026-01-31 13:39:13,7659854,3461.000,10544.000,-1601.000,917.000,-589.000,-1559.000,0.000,0.000,1
2026-01-31 13:39:13,7659894,3737.000,8963.000,-2774.000,-1242.000,146.000,-1277.000,0.000,0.000,1
2026-01-31 13:39:13,7659934,3662.000,8771.000,-3762.000,-1543.000,913.000,-375.000,0.000,0.000,1
2026-01-31 13:39:13,7659974,3107.000,7341.000,-3280.000,-529.000,1183.000,531.000,0.000,0.000,1
2026-01-31 13:39:13,7660014,2749.000,6044.000,-1755.000,179.000,713.000,1098.000,0.000,0.000,1
2026-01-31 13:39:14,7660054,1957.000,4515.000,-501.000,-257.000,166.000,1139.000,0.000,0.000,1
2026-01-31 13:39:14,7660094,1327.000,4516.000,-826.000,-1578.000,316.000,1259.000,0.000,0.000,1
2026-01-31 13:39:14,7660134,995.000,5205.000,-1346.000,-1668.000,694.000,1385.000,0.000,0.000,1
2026-01-31 13:39:14,7660174,1000.000,6699.000,-1691.000,-719.000,1033.000,1345.000,0.000,0.000,1
2026-01-31 13:39:14,7660214,1208.000,8140.000,-1892.000,-199.000,1422.000,1359.000,0.000,0.000,1
2026-01-31 13:39:14,7660254,2002.000,9380.000,-2288.000,144.000,1655.000,1441.000,0.000,0.000,1
2026-01-31 13:39:14,7660294,2230.000,9531.000,-1623.000,789.000,1372.000,675.000,0.000,0.000,1
2026-01-31 13:39:14,7660334,2859.000,10267.000,-1272.000,816.000,1098.000,274.000,0.000,0.000,1
2026-01-31 13:39:14,7660374,3214.000,10980.000,-969.000,1221.000,655.000,267.000,0.000,0.000,1
2026-01-31 13:39:14,7660417,5425.000,8300.000,-194.000,120.000,-1203.000,-943.000,0.000,0.000,1
2026-01-31 13:39:14,7660457,6206.000,6763.000,-1113.000,-1397.000,-1357.000,-656.000,0.000,0.000,1
2026-01-31 13:39:14,7660494,5343.000,5632.000,-1185.000,-1315.000,-1150.000,-774.000,0.000,0.000,1
2026-01-31 13:39:14,7660534,3160.000,4507.000,-942.000,-639.000,-599.000,-544.000,0.000,0.000,1
2026-01-31 13:39:14,7660574,1797.000,4198.000,-468.000,132.000,-72.000,-320.000,0.000,0.000,1
2026-01-31 13:39:14,7660614,1040.000,4041.000,-102.000,231.000,358.000,-407.000,0.000,0.000,1
2026-01-31 13:39:14,7660654,861.000,4603.000,176.000,715.000,458.000,-117.000,0.000,0.000,1
2026-01-31 13:39:14,7660699,1665.000,6478.000,522.000,879.000,38.000,171.000,0.000,0.000,1
2026-01-31 13:39:14,7660734,1897.000,7167.000,564.000,921.000,-171.000,202.000,0.000,0.000,1
2026-01-31 13:39:14,7660774,2353.000,8414.000,538.000,1166.000,-622.000,-6.000,0.000,0.000,1
2026-01-31 13:39:14,7660814,3003.000,9443.000,-395.000,1328.000,-674.000,-618.000,0.000,0.000,1
2026-01-31 13:39:14,7660854,2815.000,10381.000,-714.000,642.000,132.000,-1794.000,0.000,0.000,1
2026-01-31 13:39:14,7660894,3559.000,11615.000,-1977.000,1437.000,337.000,-1784.000,0.000,0.000,1
2026-01-31 13:39:14,7660934,4288.000,9638.000,-2571.000,-262.000,725.000,-1342.000,0.000,0.000,1
2026-01-31 13:39:14,7660974,4324.000,9753.000,-3507.000,-812.000,1044.000,-755.000,0.000,0.000,1
2026-01-31 13:39:14,7661014,4166.000,8510.000,-3690.000,-1018.000,1257.000,78.000,0.000,0.000,1
2026-01-31 13:39:15,7661054,3750.000,7064.000,-2231.000,47.000,985.000,535.000,0.000,0.000,1
2026-01-31 13:39:15,7661094,2974.000,5208.000,-648.000,-472.000,511.000,559.000,0.000,0.000,1
2026-01-31 13:39:15,7661134,1996.000,4454.000,-320.000,-1452.000,399.000,636.000,0.000,0.000,1
2026-01-31 13:39:15,7661174,1096.000,4300.000,-781.000,-2031.000,679.000,969.000,0.000,0.000,1
2026-01-31 13:39:15,7661214,756.000,5426.000,-1235.000,-1219.000,1172.000,1256.000,0.000,0.000,1
2026-01-31 13:39:15,7661254,947.000,7232.000,-1231.000,-243.000,1314.000,1381.000,0.000,0.000,1
2026-01-31 13:39:15,7661294,1630.000,8498.000,-1432.000,350.000,1408.000,1343.000,0.000,0.000,1
2026-01-31 13:39:15,7661334,2264.000,9917.000,-1331.000,984.000,1299.000,854.000,0.000,0.000,1
2026-01-31 13:39:15,7661374,2746.000,10290.000,-601.000,739.000,786.000,450.000,0.000,0.000,1
2026-01-31 13:39:15,7661414,3235.000,10818.000,-632.000,541.000,610.000,583.000,0.000,0.000,1
2026-01-31 13:39:15,7661454,3816.000,10346.000,24.000,884.000,-176.000,349.000,0.000,0.000,1
2026-01-31 13:39:15,7661494,5332.000,8249.000,129.000,12.000,-1157.000,-435.000,0.000,0.000,1
2026-01-31 13:39:15,7661534,6687.000,6641.000,-983.000,-797.000,-989.000,-762.000,0.000,0.000,1
2026-01-31 13:39:15,7661574,5960.000,5492.000,-1133.000,-264.000,-290.000,-796.000,0.000,0.000,1
2026-01-31 13:39:15,7661614,2499.000,4407.000,-99.000,833.000,537.000,-180.000,0.000,0.000,1
2026-01-31 13:39:15,7661654,1322.000,4300.000,419.000,964.000,721.000,-135.000,0.000,0.000,1
2026-01-31 13:39:15,7661694,737.000,4235.000,588.000,686.000,820.000,-134.000,0.000,0.000,1
2026-01-31 13:39:15,7661734,933.000,4784.000,863.000,751.000,605.000,20.000,0.000,0.000,1
2026-01-31 13:39:15,7661774,1584.000,6126.000,842.000,849.000,197.000,94.000,0.000,0.000,1
2026-01-31 13:39:15,7661814,2100.000,7848.000,651.000,922.000,-315.000,104.000,0.000,0.000,1
2026-01-31 13:39:15,7661854,2360.000,8820.000,240.000,961.000,-629.000,-398.000,0.000,0.000,1
2026-01-31 13:39:15,7661894,2927.000,9758.000,-369.000,1428.000,-703.000,-1025.000,0.000,0.000,1
2026-01-31 13:39:15,7661934,2985.000,10819.000,-891.000,1416.000,-324.000,-1660.000,0.000,0.000,1
2026-01-31 13:39:15,7661974,3861.000,11180.000,-2176.000,1847.000,-268.000,-1342.000,0.000,0.000,1
2026-01-31 13:39:15,7662014,3903.000,9135.000,-2764.000,-24.000,203.000,-1295.000,0.000,0.000,1
2026-01-31 13:39:16,7662054,3635.000,9519.000,-3467.000,-741.000,430.000,-640.000,0.000,0.000,1
2026-01-31 13:39:16,7662094,3247.000,8015.000,-3300.000,-927.000,694.000,32.000,0.000,0.000,1
2026-01-31 13:39:16,7662134,2900.000,6051.000,-1977.000,-317.000,221.000,541.000,0.000,0.000,1
2026-01-31 13:39:16,7662174,2216.000,4505.000,-657.000,-694.000,-411.000,565.000,0.000,0.000,1
2026-01-31 13:39:16,7662214,1477.000,4034.000,-505.000,-1635.000,-545.000,710.000,0.000,0.000,1
2026-01-31 13:39:16,7662254,1046.000,4476.000,-1030.000,-2248.000,-384.000,947.000,0.000,0.000,1
2026-01-31 13:39:16,7662294,1209.000,5725.000,-1596.000,-1626.000,-29.000,1205.000,0.000,0.000,1
2026-01-31 13:39:16,7662334,1518.000,6950.000,-1957.000,-878.000,548.000,1482.000,0.000,0.000,1
2026-01-31 13:39:16,7662374,2306.000,9195.000,-2412.000,530.000,1461.000,1396.000,0.000,0.000,1
2026-01-31 13:39:16,7662414,2560.000,9820.000,-2144.000,1347.000,1896.000,737.000,0.000,0.000,1
2026-01-31 13:39:16,7662455,2947.000,10020.000,-1779.000,1374.000,2209.000,144.000,0.000,0.000,1
2026-01-31 13:39:16,7662494,2796.000,10840.000,-1163.000,2030.000,2541.000,-131.000,0.000,0.000,1
2026-01-31 13:39:16,7662534,3811.000,9962.000,913.000,1653.000,1610.000,-980.000,0.000,0.000,1
2026-01-31 13:39:16,7662574,5166.000,8854.000,640.000,-341.000,-205.000,-1517.000,0.000,0.000,1
2026-01-31 13:39:16,7662614,5141.000,7838.000,-925.000,-1327.000,-1070.000,-700.000,0.000,0.000,1
2026-01-31 13:39:16,7662654,3384.000,5125.000,-1259.000,-1398.000,-1222.000,-519.000,0.000,0.000,1
2026-01-31 13:39:16,7662697,1228.000,3978.000,-775.000,-595.000,-996.000,-56.000,0.000,0.000,1
2026-01-31 13:39:16,7662734,723.000,3643.000,-589.000,-462.000,-869.000,-131.000,0.000,0.000,1
2026-01-31 13:39:16,7662774,621.000,4141.000,-453.000,438.000,-734.000,-32.000,0.000,0.000,1
2026-01-31 13:39:16,7662814,900.000,5349.000,-289.000,1097.000,-956.000,86.000,0.000,0.000,1
2026-01-31 13:39:16,7662854,1597.000,6923.000,-131.000,1385.000,-1315.000,118.000,0.000,0.000,1
2026-01-31 13:39:16,7662894,1874.000,9081.000,200.000,1731.000,-2070.000,132.000,0.000,0.000,1
2026-01-31 13:39:16,7662934,2498.000,10085.000,127.000,1348.000,-2931.000,-189.000,0.000,0.000,1
2026-01-31 13:39:16,7662974,3253.000,11302.000,-1005.000,567.000,-2610.000,-670.000,0.000,0.000,1
2026-01-31 13:39:16,7663014,3700.000,12785.000,-2327.000,590.000,-1698.000,-1120.000,0.000,0.000,1
2026-01-31 13:39:17,7663054,4193.000,10362.000,-3061.000,-451.000,-747.000,-1345.000,0.000,0.000,1
2026-01-31 13:39:17,7663094,3700.000,9396.000,-3474.000,-1366.000,384.000,-1328.000,0.000,0.000,1
2026-01-31 13:39:17,7663134,2764.000,8173.000,-3320.000,-1424.000,938.000,-308.000,0.000,0.000,1
2026-01-31 13:39:17,7663174,1850.000,6918.000,-1834.000,-1121.000,490.000,282.000,0.000,0.000,1
2026-01-31 13:39:17,7663214,540.000,5827.000,-413.000,-1696.000,-168.000,-325.000,0.000,0.000,1
2026-01-31 13:39:17,7663254,-424.000,5409.000,-132.000,-2982.000,-744.000,-1429.000,0.000,0.000,1
2026-01-31 13:39:17,7663294,-768.000,6002.000,-529.000,-4022.000,-833.000,-2424.000,0.000,0.000,1
2026-01-31 13:39:17,7663334,-392.000,6658.000,-1054.000,-4727.000,-446.000,-3336.000,0.000,0.000,1
2026-01-31 13:39:17,7663374,-214.000,6797.000,-1517.000,-4159.000,-40.000,-3771.000,0.000,0.000,1
2026-01-31 13:39:17,7663414,325.000,8259.000,-1788.000,-2596.000,173.000,-3623.000,0.000,0.000,1
2026-01-31 13:39:17,7663454,983.000,8749.000,-1496.000,-1334.000,283.000,-3074.000,0.000,0.000,1
2026-01-31 13:39:17,7663494,1410.000,9528.000,-483.000,-153.000,360.000,-2607.000,0.000,0.000,1
2026-01-31 13:39:17,7663534,1246.000,10205.000,-351.000,191.000,466.000,-866.000,0.000,-8.830,1
2026-01-31 13:39:17,7663574,1657.000,9728.000,420.000,1246.000,-116.000,-152.000,0.000,-8.830,1
2026-01-31 13:39:17,7663614,2410.000,9944.000,607.000,1142.000,-1026.000,-241.000,0.000,-8.830,1
2026-01-31 13:39:17,7663654,2335.000,9581.000,223.000,887.000,-1092.000,199.000,0.000,-8.830,1
2026-01-31 13:39:17,7663694,837.000,7445.000,229.000,362.000,-804.000,-104.000,0.000,-8.830,1
2026-01-31 13:39:17,7663734,-459.000,5702.000,491.000,155.000,-435.000,-494.000,0.000,-8.830,1
2026-01-31 13:39:17,7663774,-1017.000,5142.000,910.000,72.000,-240.000,-1010.000,0.000,-8.830,1
2026-01-31 13:39:17,7663814,-1442.000,4997.000,1158.000,-324.000,-46.000,-1426.000,0.000,-8.830,1
2026-01-31 13:39:17,7663854,-1285.000,5622.000,1562.000,-139.000,-149.000,-1724.000,0.000,-8.830,1
2026-01-31 13:39:17,7663894,-1336.000,6368.000,1634.000,-317.000,-297.000,-2020.000,0.000,-8.830,1
2026-01-31 13:39:17,7663934,-1446.000,7805.000,971.000,134.000,-590.000,-1679.000,0.000,-8.830,1
2026-01-31 13:39:17,7663974,-1063.000,8921.000,558.000,916.000,-664.000,-1420.000,0.000,-8.830,1
2026-01-31 13:39:17,7664014,-1198.000,9896.000,306.000,1417.000,-456.000,-1114.000,0.000,-8.830,1
2026-01-31 13:39:18,7664054,-1256.000,12273.000,-238.000,1946.000,-395.000,-78.000,0.000,-8.830,1
2026-01-31 13:39:18,7664094,-1284.000,11648.000,-945.000,1097.000,-608.000,873.000,0.000,-8.830,1
2026-01-31 13:39:18,7664134,-1322.000,9960.000,-943.000,824.000,-924.000,1039.000,0.000,-8.830,1
2026-01-31 13:39:18,7664174,-1074.000,9134.000,-1604.000,-166.000,-661.000,1327.000,0.000,-8.830,1
2026-01-31 13:39:18,7664214,-1297.000,8414.000,-1851.000,-398.000,-445.000,1519.000,0.000,-8.830,1
2026-01-31 13:39:18,7664254,-1016.000,5806.000,-538.000,-314.000,-479.000,1406.000,0.000,-8.830,1
2026-01-31 13:39:18,7664294,-816.000,5644.000,-163.000,-375.000,-738.000,960.000,0.000,-8.830,1
2026-01-31 13:39:18,7664334,-1038.000,5872.000,-203.000,-935.000,-754.000,586.000,0.000,-8.830,1
2026-01-31 13:39:18,7664376,-1232.000,6193.000,-436.000,-1466.000,-407.000,374.000,0.000,-8.830,1
2026-01-31 13:39:18,7664416,-1404.000,6785.000,-507.000,-1293.000,-72.000,239.000,0.000,-8.830,1
2026-01-31 13:39:18,7664457,-1183.000,8584.000,-396.000,-893.000,187.000,348.000,0.000,-8.830,1
2026-01-31 13:39:18,7664494,-857.000,8800.000,-343.000,-744.000,230.000,385.000,0.000,-8.830,1
2026-01-31 13:39:18,7664534,-708.000,9425.000,102.000,-451.000,138.000,511.000,0.000,-7.260,1
2026-01-31 13:39:18,7664574,-721.000,10357.000,-157.000,-668.000,306.000,795.000,0.000,-7.260,1
2026-01-31 13:39:18,7664614,223.000,10622.000,69.000,239.000,-33.000,811.000,0.000,-7.260,1
2026-01-31 13:39:18,7664654,1897.000,9813.000,280.000,318.000,-1170.000,-238.000,0.000,-7.260,1
2026-01-31 13:39:18,7664697,1964.000,8321.000,-470.000,1290.000,-1153.000,1085.000,0.000,-7.260,1
2026-01-31 13:39:18,7664736,1555.000,7364.000,-419.000,1594.000,-1259.000,1413.000,0.000,-7.260,1
2026-01-31 13:39:18,7664774,703.000,5017.000,1.000,2097.000,-1470.000,1921.000,0.000,-7.260,1
2026-01-31 13:39:18,7664814,392.000,4816.000,25.000,2570.000,-1531.000,2562.000,0.000,-7.260,1
2026-01-31 13:39:18,7664854,-108.000,4974.000,-29.000,2112.000,-1301.000,2616.000,0.000,-7.260,1
2026-01-31 13:39:18,7664894,-418.000,5553.000,-48.000,2169.000,-1098.000,2570.000,0.000,-7.260,1
2026-01-31 13:39:18,7664934,-545.000,6505.000,323.000,2607.000,-1004.000,1860.000,0.000,-7.260,1
2026-01-31 13:39:18,7664974,-514.000,7832.000,648.000,2389.000,-890.000,1001.000,0.000,-7.260,1
2026-01-31 13:39:18,7665014,-174.000,10388.000,138.000,2561.000,-1177.000,358.000,0.000,-7.260,1
2026-01-31 13:39:19,7665054,1327.000,11834.000,-357.000,1223.000,-1629.000,-834.000,0.000,-7.260,1
2026-01-31 13:39:19,7665094,1565.000,12486.000,-1302.000,874.000,-1187.000,-1122.000,0.000,-7.260,1
2026-01-31 13:39:19,7665134,1772.000,11018.000,-2079.000,138.000,-804.000,-963.000,0.000,-7.260,1
2026-01-31 13:39:19,7665174,1467.000,9101.000,-2286.000,-1483.000,-302.000,-621.000,0.000,-7.260,1
2026-01-31 13:39:19,7665214,1314.000,9007.000,-3489.000,-2580.000,538.000,-58.000,0.000,-7.260,1
2026-01-31 13:39:19,7665254,1254.000,7895.000,-3712.000,-1968.000,1274.000,797.000,0.000,-7.260,1
2026-01-31 13:39:19,7665294,1147.000,6164.000,-2527.000,-539.000,1314.000,1283.000,0.000,-7.260,1
2026-01-31 13:39:19,7665334,1237.000,5397.000,-1406.000,188.000,854.000,1455.000,0.000,-7.260,1
2026-01-31 13:39:19,7665374,1122.000,5205.000,-819.000,-339.000,470.000,1052.000,0.000,-7.260,1
2026-01-31 13:39:19,7665414,216.000,5335.000,-1034.000,-1185.000,818.000,715.000,0.000,-7.260,1
2026-01-31 13:39:19,7665454,-4.000,6482.000,-1246.000,-701.000,1078.000,704.000,0.000,-7.260,1
2026-01-31 13:39:19,7665494,-160.000,7546.000,-1276.000,-289.000,1111.000,675.000,0.000,-7.260,1
2026-01-31 13:39:19,7665534,276.000,9498.000,-1647.000,152.000,1319.000,1041.000,0.000,-10.160,1
2026-01-31 13:39:19,7665574,841.000,10228.000,-1904.000,305.000,1243.000,906.000,0.000,-10.160,1
2026-01-31 13:39:19,7665614,1583.000,10595.000,-1504.000,397.000,774.000,678.000,0.000,-10.160,1
2026-01-31 13:39:19,7665654,2599.000,10771.000,-1138.000,1032.000,126.000,868.000,0.000,-10.160,1
2026-01-31 13:39:19,7665694,2864.000,9692.000,-672.000,449.000,-1400.000,384.000,0.000,-10.160,1
2026-01-31 13:39:19,7665734,3998.000,9487.000,-1135.000,-950.000,-2051.000,-381.000,0.000,-10.160,1
2026-01-31 13:39:19,7665774,4033.000,7972.000,-1492.000,-1081.000,-1461.000,-317.000,0.000,-10.160,1
2026-01-31 13:39:19,7665814,1856.000,5235.000,-390.000,442.000,-788.000,-56.000,0.000,-10.160,1
2026-01-31 13:39:19,7665854,951.000,4456.000,-83.000,99.000,12.000,52.000,0.000,-10.160,1
2026-01-31 13:39:19,7665894,455.000,3999.000,-181.000,32.000,630.000,-220.000,0.000,-10.160,1
2026-01-31 13:39:19,7665934,420.000,4479.000,-415.000,473.000,1058.000,-258.000,0.000,-10.160,1
2026-01-31 13:39:19,7665974,788.000,5840.000,-329.000,1146.000,1295.000,-377.000,0.000,-10.160,1
2026-01-31 13:39:19,7666014,903.000,7034.000,84.000,1453.000,1255.000,-660.000,0.000,-10.160,1
2026-01-31 13:39:20,7666054,737.000,8899.000,493.000,1804.000,737.000,-761.000,0.000,-10.160,1
2026-01-31 13:39:20,7666094,968.000,10172.000,100.000,1758.000,-178.000,-788.000,0.000,-10.160,1
2026-01-31 13:39:20,7666134,1082.000,11811.000,-416.000,1140.000,-611.000,-825.000,0.000,-10.160,1
2026-01-31 13:39:20,7666174,1694.000,12237.000,-2067.000,534.000,-615.000,-1030.000,0.000,-10.160,1
2026-01-31 13:39:20,7666214,2380.000,10159.000,-2887.000,-881.000,-124.000,-914.000,0.000,-10.160,1
2026-01-31 13:39:20,7666254,2284.000,9699.000,-3731.000,-1746.000,653.000,-676.000,0.000,-10.160,1
2026-01-31 13:39:20,7666294,2003.000,8137.000,-3685.000,-1550.000,1104.000,-33.000,0.000,-10.160,1
2026-01-31 13:39:20,7666334,1585.000,6398.000,-2234.000,-522.000,828.000,502.000,0.000,-10.160,1
2026-01-31 13:39:20,7666374,1303.000,5136.000,-928.000,-298.000,117.000,747.000,0.000,-10.160,1
2026-01-31 13:39:20,7666415,965.000,4365.000,-477.000,-954.000,-424.000,702.000,0.000,-10.160,1
2026-01-31 13:39:20,7666454,575.000,4341.000,-726.000,-1632.000,-423.000,731.000,0.000,-10.160,1
2026-01-31 13:39:20,7666494,-128.000,5092.000,-1191.000,-1736.000,93.000,975.000,0.000,-10.160,1
2026-01-31 13:39:20,7666534,-193.000,6432.000,-1446.000,-925.000,474.000,1087.000,0.000,18.400,1
2026-01-31 13:39:20,7666574,529.000,9112.000,-1737.000,212.000,795.000,1549.000,0.000,18.400,1
2026-01-31 13:39:20,7666614,1271.000,10179.000,-1656.000,856.000,661.000,1280.000,0.000,18.400,1
2026-01-31 13:39:20,7666654,2202.000,10660.000,-1325.000,817.000,286.000,932.000,0.000,18.400,1
2026-01-31 13:39:20,7666696,2431.000,11463.000,-1121.000,1179.000,68.000,1000.000,0.000,18.400,1
2026-01-31 13:39:20,7666734,3491.000,9977.000,-450.000,580.000,-941.000,101.000,0.000,18.400,1
2026-01-31 13:39:20,7666774,5071.000,9247.000,-1582.000,-428.000,-1353.000,-931.000,0.000,18.400,1
2026-01-31 13:39:20,7666814,5234.000,8222.000,-2133.000,-277.000,-703.000,-960.000,0.000,18.400,1
2026-01-31 13:39:20,7666854,3323.000,6055.000,-1053.000,526.000,-175.000,-1028.000,0.000,18.400,1
2026-01-31 13:39:20,7666894,1845.000,5092.000,-221.000,711.000,256.000,-545.000,0.000,18.400,1
2026-01-31 13:39:20,7666934,622.000,4148.000,145.000,320.000,500.000,-386.000,0.000,18.400,1
2026-01-31 13:39:20,7666974,247.000,4455.000,35.000,-145.000,955.000,-304.000,0.000,18.400,1
2026-01-31 13:39:20,7667014,219.000,5309.000,248.000,64.000,863.000,-256.000,0.000,18.400,1
2026-01-31 13:39:21,7667054,170.000,6374.000,499.000,395.000,650.000,-547.000,0.000,18.400,1
2026-01-31 13:39:21,7667094,231.000,8421.000,60.000,632.000,286.000,-743.000,0.000,18.400,1
2026-01-31 13:39:21,7667134,887.000,9465.000,-840.000,1167.000,-191.000,-913.000,0.000,18.400,1
2026-01-31 13:39:21,7667174,1093.000,10544.000,-1213.000,1731.000,-436.000,-1083.000,0.000,18.400,1
2026-01-31 13:39:21,7667214,1084.000,11759.000,-1524.000,1606.000,-587.000,-1044.000,0.000,18.400,1
2026-01-31 13:39:21,7667254,2347.000,11752.000,-2423.000,1516.000,-677.000,-734.000,0.000,18.400,1
2026-01-31 13:39:21,7667294,3067.000,10112.000,-2701.000,-247.000,-273.000,-535.000,0.000,18.400,1
2026-01-31 13:39:21,7667334,3053.000,8705.000,-3735.000,-1212.000,672.000,212.000,0.000,18.400,1
2026-01-31 13:39:21,7667374,2451.000,7260.000,-2870.000,-142.000,1021.000,850.000,0.000,18.400,1
2026-01-31 13:39:21,7667414,1919.000,5938.000,-1286.000,278.000,918.000,1013.000,0.000,18.400,1
2026-01-31 13:39:21,7667454,1248.000,4797.000,-369.000,-283.000,783.000,1032.000,0.000,18.400,1
2026-01-31 13:39:21,7667494,511.000,4659.000,-461.000,-972.000,920.000,926.000,0.000,18.400,1
2026-01-31 13:39:21,7667534,-46.000,5052.000,-944.000,-1448.000,1174.000,750.000,0.000,1.090,1
2026-01-31 13:39:21,7667574,-94.000,5941.000,-1299.000,-1097.000,1432.000,739.000,0.000,1.090,1
2026-01-31 13:39:21,7667614,-102.000,7144.000,-1411.000,-588.000,1495.000,695.000,0.000,1.090,1
2026-01-31 13:39:21,7667654,529.000,8747.000,-1790.000,-522.000,1503.000,768.000,0.000,1.090,1
2026-01-31 13:39:21,7667694,1370.000,9381.000,-1612.000,-381.000,1487.000,428.000,0.000,1.090,1
2026-01-31 13:39:21,7667734,1870.000,10626.000,-1484.000,-50.000,1500.000,10.000,0.000,1.090,1
2026-01-31 13:39:21,7667774,2345.000,11468.000,-1053.000,503.000,1259.000,135.000,0.000,1.090,1
2026-01-31 13:39:21,7667814,3452.000,10024.000,-122.000,685.000,-188.000,-501.000,0.000,1.090,1
2026-01-31 13:39:21,7667854,5179.000,9717.000,-1206.000,-560.000,-817.000,-685.000,0.000,1.090,1
2026-01-31 13:39:21,7667894,4948.000,7949.000,-1398.000,-174.000,-654.000,-783.000,0.000,1.090,1
2026-01-31 13:39:21,7667934,2768.000,5618.000,-687.000,244.000,-396.000,-603.000,0.000,1.090,1
2026-01-31 13:39:21,7667974,1358.000,4870.000,-258.000,426.000,35.000,-285.000,0.000,1.090,1
2026-01-31 13:39:21,7668014,449.000,4289.000,-64.000,175.000,389.000,-208.000,0.000,1.090,1
2026-01-31 13:39:22,7668054,-26.000,4288.000,66.000,282.000,473.000,-109.000,0.000,1.090,1
2026-01-31 13:39:22,7668094,-18.000,5676.000,288.000,814.000,87.000,-43.000,0.000,1.090,1
2026-01-31 13:39:22,7668134,168.000,6774.000,341.000,675.000,-280.000,-38.000,0.000,1.090,1
2026-01-31 13:39:22,7668174,446.000,8568.000,121.000,1018.000,-945.000,-117.000,0.000,1.090,1
2026-01-31 13:39:22,7668214,1665.000,9815.000,-775.000,1410.000,-1438.000,-339.000,0.000,1.090,1
2026-01-31 13:39:22,7668254,2053.000,10548.000,-685.000,901.000,-1207.000,-1153.000,0.000,1.090,1
2026-01-31 13:39:22,7668294,1503.000,11808.000,-832.000,673.000,-528.000,-1630.000,0.000,1.090,1
2026-01-31 13:39:22,7668334,2316.000,11150.000,-1929.000,774.000,-292.000,-1653.000,0.000,1.090,1
2026-01-31 13:39:22,7668374,2895.000,10099.000,-3256.000,-1236.000,551.000,-1130.000,0.000,1.090,1
2026-01-31 13:39:22,7668414,3141.000,10037.000,-4007.000,-1123.000,948.000,-486.000,0.000,1.090,1
2026-01-31 13:39:22,7668455,2826.000,8232.000,-2427.000,-634.000,1019.000,438.000,0.000,1.090,1
2026-01-31 13:39:22,7668494,2344.000,6055.000,-1088.000,-375.000,279.000,868.000,0.000,1.090,1
2026-01-31 13:39:22,7668534,1390.000,4809.000,-311.000,-1070.000,78.000,941.000,0.000,0.000,1
2026-01-31 13:39:22,7668574,324.000,4251.000,-420.000,-1745.000,424.000,947.000,0.000,0.000,1
2026-01-31 13:39:22,7668614,-100.000,4846.000,-663.000,-1476.000,784.000,886.000,0.000,0.000,1
2026-01-31 13:39:22,7668654,-339.000,5572.000,-844.000,-832.000,1133.000,855.000,0.000,0.000,1
2026-01-31 13:39:22,7668697,191.000,8546.000,-1241.000,-200.000,1252.000,1023.000,0.000,0.000,1
2026-01-31 13:39:22,7668734,657.000,9059.000,-1368.000,-74.000,1208.000,1087.000,0.000,0.000,1
2026-01-31 13:39:22,7668774,1091.000,10055.000,-1159.000,214.000,865.000,670.000,0.000,0.000,1
2026-01-31 13:39:22,7668814,1537.000,10791.000,-1221.000,-213.000,575.000,221.000,0.000,0.000,1
2026-01-31 13:39:22,7668854,2659.000,10738.000,-346.000,-690.000,484.000,-444.000,0.000,0.000,1
2026-01-31 13:39:22,7668894,3956.000,9088.000,131.000,-922.000,-485.000,-1300.000,0.000,0.000,1
2026-01-31 13:39:22,7668934,5100.000,8803.000,-1157.000,-1674.000,-547.000,-1407.000,0.000,0.000,1
2026-01-31 13:39:22,7668974,3940.000,7083.000,-1429.000,-320.000,-208.000,-845.000,0.000,0.000,1
2026-01-31 13:39:22,7669014,1829.000,5579.000,-650.000,1219.000,-52.000,-136.000,0.000,0.000,1
2026-01-31 13:39:23,7669054,673.000,5245.000,-185.000,1780.000,79.000,521.000,0.000,0.000,1
2026-01-31 13:39:23,7669094,-128.000,4553.000,235.000,1144.000,198.000,635.000,0.000,0.000,1
2026-01-31 13:39:23,7669134,-346.000,4921.000,340.000,1051.000,168.000,588.000,0.000,0.000,1
2026-01-31 13:39:23,7669174,-146.000,5908.000,313.000,945.000,-82.000,344.000,0.000,0.000,1
2026-01-31 13:39:23,7669214,255.000,6767.000,505.000,628.000,-387.000,-89.000,0.000,0.000,1
2026-01-31 13:39:23,7669254,843.000,9091.000,113.000,746.000,-891.000,-519.000,0.000,0.000,1
2026-01-31 13:39:23,7669294,1808.000,9872.000,-587.000,1092.000,-1191.000,-616.000,0.000,0.000,1
2026-01-31 13:39:23,7669334,2399.000,10362.000,-943.000,947.000,-937.000,-796.000,0.000,0.000,1
2026-01-31 13:39:23,7669374,1764.000,11346.000,-935.000,1247.000,-820.000,-711.000,0.000,0.000,1
2026-01-31 13:39:23,7669414,1555.000,10798.000,-1308.000,1318.000,-826.000,-493.000,0.000,0.000,1
2026-01-31 13:39:23,7669454,1559.000,9723.000,-1799.000,588.000,-548.000,-117.000,0.000,0.000,1
2026-01-31 13:39:23,7669494,2036.000,9891.000,-2991.000,-1032.000,126.000,286.000,0.000,0.000,1
2026-01-31 13:39:23,7669534,2300.000,8370.000,-3430.000,-1211.000,721.000,631.000,0.000,0.000,1
2026-01-31 13:39:23,7669574,2313.000,6745.000,-1962.000,61.000,618.000,762.000,0.000,0.000,1
2026-01-31 13:39:23,7669614,1346.000,5473.000,-335.000,-141.000,420.000,39.000,0.000,0.000,1
2026-01-31 13:39:23,7669654,95.000,5048.000,-126.000,-1701.000,373.000,-542.000,0.000,0.000,1
2026-01-31 13:39:23,7669694,-730.000,5347.000,-265.000,-2320.000,446.000,-971.000,0.000,0.000,1
2026-01-31 13:39:23,7669734,-656.000,6661.000,-876.000,-2140.000,593.000,-1056.000,0.000,0.000,1
2026-01-31 13:39:23,7669774,-674.000,7796.000,-1420.000,-2258.000,537.000,-1551.000,0.000,0.000,1
2026-01-31 13:39:23,7669814,445.000,9212.000,-1414.000,-1482.000,607.000,-1187.000,0.000,0.000,1
2026-01-31 13:39:23,7669854,1420.000,9365.000,-1098.000,-686.000,801.000,-1048.000,0.000,0.000,1
2026-01-31 13:39:23,7669894,2131.000,9869.000,-780.000,-470.000,994.000,-603.000,0.000,0.000,1
2026-01-31 13:39:23,7669934,2428.000,11369.000,-856.000,785.000,1252.000,377.000,0.000,0.000,1
2026-01-31 13:39:23,7669974,3457.000,10642.000,-155.000,1013.000,583.000,484.000,0.000,0.000,1
2026-01-31 13:39:23,7670014,5122.000,8890.000,-853.000,-38.000,486.000,205.000,0.000,0.000,1
2026-01-31 13:39:24,7670054,3343.000,7188.000,-556.000,731.000,1318.000,464.000,0.000,0.000,1
2026-01-31 13:39:24,7670094,1560.000,5259.000,-59.000,247.000,1948.000,961.000,0.000,0.000,1
2026-01-31 13:39:24,7670134,539.000,4257.000,105.000,535.000,2295.000,1169.000,0.000,0.000,1
2026-01-31 13:39:24,7670174,-112.000,3941.000,140.000,629.000,2530.000,1211.000,0.000,0.000,1
2026-01-31 13:39:24,7670214,-358.000,4435.000,46.000,901.000,2608.000,1246.000,0.000,0.000,1
2026-01-31 13:39:24,7670254,-311.000,5771.000,-147.000,1415.000,2475.000,1095.000,0.000,0.000,1
2026-01-31 13:39:24,7670294,-449.000,6555.000,-78.000,2377.000,1949.000,962.000,0.000,0.000,1
2026-01-31 13:39:24,7670334,-424.000,8582.000,-40.000,3162.000,1021.000,835.000,0.000,0.000,1
2026-01-31 13:39:24,7670374,373.000,10238.000,-341.000,2825.000,-356.000,530.000,0.000,0.000,1
2026-01-31 13:39:24,7670417,2009.000,12725.000,-1770.000,1549.000,-2264.000,-127.000,0.000,0.000,1
2026-01-31 13:39:24,7670457,3022.000,12006.000,-2201.000,1040.000,-2050.000,-445.000,0.000,0.000,1
2026-01-31 13:39:24,7670494,3208.000,11360.000,-2352.000,650.000,-1687.000,-704.000,0.000,0.000,1
2026-01-31 13:39:24,7670534,3342.000,10518.000,-2916.000,-916.000,-520.000,-821.000,0.000,0.000,1
2026-01-31 13:39:24,7670574,3010.000,9141.000,-3254.000,-1821.000,621.000,-527.000,0.000,0.000,1
2026-01-31 13:39:24,7670614,2341.000,7285.000,-2246.000,-1138.000,738.000,11.000,0.000,0.000,1
2026-01-31 13:39:24,7670654,1852.000,5617.000,-905.000,-1183.000,276.000,400.000,0.000,0.000,1
2026-01-31 13:39:24,7670694,1382.000,4401.000,-284.000,-2261.000,-252.000,689.000,0.000,0.000,1
2026-01-31 13:39:24,7670734,963.000,4076.000,-672.000,-3189.000,-641.000,1069.000,0.000,0.000,1
2026-01-31 13:39:24,7670774,607.000,5265.000,-1541.000,-2853.000,-870.000,1640.000,0.000,0.000,1
2026-01-31 13:39:24,7670814,493.000,6334.000,-1789.000,-1603.000,-577.000,1789.000,0.000,0.000,1
2026-01-31 13:39:24,7670854,878.000,8622.000,-2028.000,-147.000,63.000,1766.000,0.000,0.000,1
2026-01-31 13:39:24,7670894,1295.000,9260.000,-2174.000,649.000,1164.000,1290.000,0.000,0.000,1
2026-01-31 13:39:24,7670934,1809.000,10240.000,-1509.000,2042.000,1614.000,430.000,0.000,0.000,1
2026-01-31 13:39:24,7670974,2601.000,11268.000,-1479.000,2493.000,2562.000,-132.000,0.000,0.000,1
2026-01-31 13:39:24,7671014,3482.000,11284.000,125.000,2732.000,2154.000,-980.000,0.000,0.000,1
2026-01-31 13:39:25,7671054,5564.000,9985.000,1134.000,790.000,-8.000,-1767.000,0.000,0.000,1
2026-01-31 13:39:25,7671094,5892.000,9059.000,-282.000,-1049.000,-1192.000,-855.000,0.000,0.000,1
2026-01-31 13:39:25,7671134,2465.000,4993.000,-864.000,-1900.000,-844.000,-643.000,0.000,0.000,1
2026-01-31 13:39:25,7671174,756.000,4035.000,-703.000,-1086.000,10.000,-424.000,0.000,0.000,1
2026-01-31 13:39:25,7671214,95.000,3791.000,-251.000,-120.000,232.000,-498.000,0.000,0.000,1
2026-01-31 13:39:25,7671254,-17.000,4661.000,-356.000,-4.000,546.000,-519.000,0.000,0.000,1
2026-01-31 13:39:25,7671294,-116.000,5200.000,-456.000,47.000,477.000,-608.000,0.000,0.000,1
2026-01-31 13:39:25,7671334,1.000,6845.000,-141.000,1237.000,302.000,-495.000,0.000,0.000,1
2026-01-31 13:39:25,7671374,214.000,8626.000,525.000,1631.000,469.000,-1020.000,0.000,0.000,1
2026-01-31 13:39:25,7671414,307.000,9783.000,856.000,2392.000,-352.000,-1882.000,0.000,0.000,1
2026-01-31 13:39:25,7671454,765.000,10969.000,414.000,1807.000,-1248.000,-2092.000,0.000,0.000,1
2026-01-31 13:39:25,7671494,808.000,11639.000,-965.000,695.000,-1216.000,-1937.000,0.000,0.000,1
2026-01-31 13:39:25,7671534,2034.000,11392.000,-3764.000,-862.000,-787.000,-849.000,0.000,-5.780,1
2026-01-31 13:39:25,7671574,2593.000,10222.000,-3455.000,-632.000,-683.000,-94.000,0.000,-5.780,1
2026-01-31 13:39:25,7671614,2286.000,8838.000,-2927.000,-658.000,-798.000,1163.000,0.000,-5.780,1
2026-01-31 13:39:25,7671654,1680.000,7278.000,-1358.000,16.000,-1378.000,1966.000,0.000,-5.780,1
2026-01-31 13:39:25,7671694,1169.000,5435.000,252.000,-1305.000,-1660.000,2004.000,0.000,-5.780,1
2026-01-31 13:39:25,7671734,524.000,4269.000,449.000,-2681.000,-1740.000,1941.000,0.000,-5.780,1
2026-01-31 13:39:25,7671774,807.000,5259.000,-128.000,-3312.000,-1826.000,1800.000,0.000,-5.780,1
2026-01-31 13:39:25,7671814,889.000,6099.000,-674.000,-3547.000,-1549.000,1439.000,0.000,-5.780,1
2026-01-31 13:39:25,7671854,878.000,7993.000,-1456.000,-2775.000,-1059.000,1395.000,0.000,-5.780,1
2026-01-31 13:39:25,7671894,1500.000,9376.000,-2595.000,-2428.000,-485.000,1744.000,0.000,-5.780,1
2026-01-31 13:39:25,7671934,1908.000,10281.000,-2694.000,-718.000,467.000,1527.000,0.000,-5.780,1
2026-01-31 13:39:25,7671974,2363.000,10352.000,-2619.000,560.000,960.000,1227.000,0.000,-5.780,1
2026-01-31 13:39:25,7672014,2792.000,9354.000,-1284.000,2440.000,1308.000,824.000,0.000,-5.780,1
2026-01-31 13:39:26,7672054,2903.000,8545.000,193.000,2866.000,856.000,-225.000,0.000,-5.780,1
2026-01-31 13:39:26,7672094,4153.000,9425.000,334.000,2196.000,-29.000,-1195.000,0.000,-5.780,1
2026-01-31 13:39:26,7672134,4863.000,8669.000,287.000,1721.000,-887.000,-1050.000,0.000,-5.780,1
2026-01-31 13:39:26,7672174,3733.000,6965.000,954.000,1619.000,-1560.000,-309.000,0.000,-5.780,1
2026-01-31 13:39:26,7672214,2164.000,5559.000,565.000,551.000,-1285.000,420.000,0.000,-5.780,1
2026-01-31 13:39:26,7672254,1128.000,4560.000,383.000,-509.000,-763.000,351.000,0.000,-5.780,1
2026-01-31 13:39:26,7672294,350.000,4573.000,286.000,-650.000,-169.000,-109.000,0.000,-5.780,1
2026-01-31 13:39:26,7672334,347.000,5598.000,64.000,-790.000,65.000,-471.000,0.000,-5.780,1
