datetime_local,uptime_ms,acc_x,acc_y,acc_z,gyro_x,gyro_y,gyro_z,speed_mps,turn_rate_deg_s,gps_valid
2026-01-31 13:05:32,5638094,1159.000,1493.000,7761.000,621.000,641.000,557.000,0.000,0.000,0
2026-01-31 13:05:32,5638134,2102.000,3420.000,9501.000,-2154.000,310.000,777.000,0.000,0.000,0
2026-01-31 13:05:32,5638174,1422.000,338.000,10009.000,-1490.000,-298.000,1039.000,0.000,0.000,0
2026-01-31 13:05:32,5638214,1865.000,2223.000,11816.000,2095.000,-1183.000,1157.000,0.000,0.000,0
2026-01-31 13:05:32,5638254,1542.000,2614.000,11832.000,1314.000,-1548.000,350.000,0.000,0.000,0
2026-01-31 13:05:32,5638294,1956.000,739.000,10526.000,729.000,-941.000,128.000,0.000,0.000,0
2026-01-31 13:05:32,5638334,1655.000,-132.000,8274.000,503.000,-66.000,258.000,0.000,0.000,0
2026-01-31 13:05:32,5638374,855.000,-42.000,6218.000,-822.000,59.000,567.000,0.000,0.000,0
2026-01-31 13:05:32,5638414,612.000,611.000,5928.000,-687.000,-25.000,1043.000,0.000,0.000,0
2026-01-31 13:05:32,5638454,505.000,716.000,5824.000,-1091.000,-281.000,998.000,0.000,0.000,0
2026-01-31 13:05:32,5638494,946.000,463.000,5457.000,-983.000,-38.000,426.000,0.000,0.000,0
2026-01-31 13:05:32,5638534,1537.000,308.000,5441.000,818.000,388.000,609.000,0.000,0.000,0
2026-01-31 13:05:32,5638574,2425.000,-200.000,5300.000,3415.000,184.000,2507.000,0.000,0.000,0
2026-01-31 13:05:32,5638614,2098.000,-1638.000,4495.000,5392.000,-185.000,4049.000,0.000,0.000,0
2026-01-31 13:05:32,5638654,2833.000,1994.000,5522.000,7941.000,-77.000,4128.000,0.000,0.000,0
2026-01-31 13:05:32,5638694,4140.000,4361.000,6874.000,9049.000,1055.000,5581.000,0.000,0.000,0
2026-01-31 13:05:32,5638734,4948.000,7184.000,7984.000,10920.000,1654.000,6545.000,0.000,0.000,0
2026-01-31 13:05:32,5638774,6789.000,9378.000,8666.000,14516.000,1705.000,7072.000,0.000,0.000,0
2026-01-31 13:05:32,5638814,4951.000,12188.000,9429.000,14539.000,1768.000,3640.000,0.000,0.000,0
2026-01-31 13:05:32,5638854,1981.000,8103.000,8680.000,6353.000,949.000,1684.000,0.000,0.000,0
2026-01-31 13:05:32,5638894,1071.000,5463.000,6805.000,4224.000,-57.000,283.000,0.000,0.000,0
2026-01-31 13:05:32,5638934,1169.000,4993.000,5816.000,2673.000,-536.000,-458.000,0.000,0.000,0
2026-01-31 13:05:32,5638974,1516.000,3846.000,5176.000,-89.000,-870.000,-803.000,0.000,0.000,0
2026-01-31 13:05:32,5639014,2096.000,3849.000,4499.000,-1465.000,-1168.000,-1069.000,0.000,0.000,0
2026-01-31 13:05:33,5639054,3386.000,4450.000,4052.000,-890.000,-386.000,-1018.000,0.000,0.000,0
2026-01-31 13:05:33,5639094,3115.000,4812.000,4268.000,-154.000,262.000,-996.000,0.000,0.000,0
2026-01-31 13:05:33,5639134,1945.000,5394.000,4627.000,-684.000,329.000,-1384.000,0.000,0.000,0
2026-01-31 13:05:33,5639174,1530.000,4524.000,4547.000,-2362.000,67.000,-2180.000,0.000,0.000,0
2026-01-31 13:05:33,5639214,1722.000,3534.000,4079.000,-2902.000,132.000,-2623.000,0.000,0.000,0
2026-01-31 13:05:33,5639254,2776.000,4862.000,4652.000,-1941.000,429.000,-2682.000,0.000,0.000,0
2026-01-31 13:05:33,5639294,3349.000,6649.000,5456.000,-2805.000,1137.000,-2409.000,0.000,0.000,0
2026-01-31 13:05:33,5639334,3239.000,6303.000,5588.000,-3635.000,1337.000,-1495.000,0.000,0.000,0
2026-01-31 13:05:33,5639374,2823.000,8940.000,7683.000,672.000,42.000,537.000,0.000,0.000,0
2026-01-31 13:05:33,5639414,3384.000,11003.000,8295.000,2438.000,-1119.000,2844.000,0.000,0.000,0
2026-01-31 13:05:33,5639454,2496.000,6560.000,7638.000,20.000,-1406.000,1098.000,0.000,0.000,0
2026-01-31 13:05:33,5639494,1450.000,4403.000,6876.000,-227.000,-702.000,598.000,0.000,0.000,0
2026-01-31 13:05:33,5639534,180.000,2027.000,5330.000,-2313.000,78.000,1452.000,0.000,0.000,0
2026-01-31 13:05:33,5639574,404.000,4135.000,4745.000,-1205.000,42.000,1202.000,0.000,0.000,0
2026-01-31 13:05:33,5639614,824.000,3182.000,3735.000,-3466.000,258.000,1043.000,0.000,0.000,0
2026-01-31 13:05:33,5639654,1346.000,3855.000,3670.000,-2481.000,531.000,641.000,0.000,0.000,0
2026-01-31 13:05:33,5639694,1535.000,4485.000,4380.000,-2284.000,756.000,907.000,0.000,0.000,0
2026-01-31 13:05:33,5639734,2701.000,5752.000,6263.000,-2930.000,677.000,371.000,0.000,0.000,0
2026-01-31 13:05:33,5639774,2016.000,4407.000,7466.000,-3547.000,695.000,-482.000,0.000,0.000,0
2026-01-31 13:05:33,5639817,6650.000,9719.000,10364.000,2457.000,-1133.000,179.000,0.000,0.000,0
2026-01-31 13:05:33,5639856,5710.000,3594.000,8945.000,641.000,-557.000,-1660.000,0.000,0.000,0
2026-01-31 13:05:33,5639894,4003.000,3205.000,8515.000,2184.000,-59.000,-1518.000,0.000,0.000,0
2026-01-31 13:05:33,5639934,2267.000,3581.000,7185.000,641.000,863.000,-282.000,0.000,0.000,0
2026-01-31 13:05:33,5639974,1379.000,2308.000,4851.000,-3348.000,1346.000,-525.000,0.000,0.000,0
2026-01-31 13:05:33,5640014,937.000,1003.000,3371.000,-2516.000,881.000,-936.000,0.000,0.000,0
2026-01-31 13:05:34,5640054,1535.000,2033.000,3641.000,-383.000,-5.000,-1491.000,0.000,0.000,0
2026-01-31 13:05:34,5640094,2058.000,2494.000,3953.000,-820.000,-314.000,-1638.000,0.000,0.000,0
2026-01-31 13:05:34,5640134,2025.000,2028.000,4434.000,-391.000,-423.000,-1207.000,0.000,0.000,0
2026-01-31 13:05:34,5640174,1925.000,3891.000,6051.000,937.000,-317.000,-923.000,0.000,0.000,0
2026-01-31 13:05:34,5640214,1484.000,4325.000,6085.000,-959.000,330.000,-1986.000,0.000,0.000,0
2026-01-31 13:05:34,5640254,2361.000,5066.000,7067.000,-1580.000,-278.000,-1847.000,0.000,0.000,0
2026-01-31 13:05:34,5640294,2289.000,7829.000,9031.000,1167.000,-1006.000,-577.000,0.000,0.000,0
2026-01-31 13:05:34,5640334,4227.000,11146.000,10605.000,4116.000,-1617.000,1785.000,0.000,0.000,0
2026-01-31 13:05:34,5640374,3757.000,7848.000,10904.000,3767.000,-654.000,899.000,0.000,0.000,0
2026-01-31 13:05:34,5640414,1578.000,5741.000,9392.000,1946.000,1225.000,1474.000,0.000,0.000,0
2026-01-31 13:05:34,5640454,219.000,2626.000,6355.000,-1487.000,1379.000,1707.000,0.000,0.000,0
2026-01-31 13:05:34,5640494,311.000,2214.000,4772.000,-681.000,218.000,1577.000,0.000,0.000,0
2026-01-31 13:05:34,5640534,801.000,3031.000,3751.000,765.000,-653.000,1008.000,0.000,0.000,0
2026-01-31 13:05:34,5640574,1283.000,3842.000,3470.000,-502.000,-832.000,944.000,0.000,0.000,0
2026-01-31 13:05:34,5640614,2012.000,3640.000,3447.000,-1021.000,-233.000,1632.000,0.000,0.000,0
2026-01-31 13:05:34,5640654,1932.000,5083.000,3744.000,1409.000,819.000,1766.000,0.000,0.000,0
2026-01-31 13:05:34,5640694,2072.000,5725.000,5190.000,1259.000,1111.000,1642.000,0.000,0.000,0
2026-01-31 13:05:34,5640734,3173.000,6650.000,7975.000,4388.000,439.000,1010.000,0.000,0.000,0
2026-01-31 13:05:34,5640774,6700.000,9425.000,10748.000,7219.000,727.000,1225.000,0.000,0.000,0
2026-01-31 13:05:34,5640814,5442.000,9061.000,10239.000,6902.000,2749.000,746.000,0.000,0.000,0
2026-01-31 13:05:34,5640854,1961.000,6001.000,8257.000,962.000,3330.000,241.000,0.000,0.000,0
2026-01-31 13:05:34,5640894,1089.000,3262.000,5881.000,-1736.000,1754.000,-758.000,0.000,0.000,0
2026-01-31 13:05:34,5640934,1364.000,2650.000,4589.000,-2736.000,173.000,-1154.000,0.000,0.000,0
2026-01-31 13:05:34,5640974,2481.000,2638.000,3674.000,-1740.000,-686.000,-656.000,0.000,0.000,0
2026-01-31 13:05:34,5641014,2445.000,2624.000,3402.000,-1028.000,-768.000,-599.000,0.000,0.000,0
2026-01-31 13:05:35,5641054,1914.000,3195.000,3528.000,-66.000,-613.000,-392.000,0.000,0.000,0
2026-01-31 13:05:35,5641094,1258.000,3692.000,3687.000,1094.000,-201.000,-248.000,0.000,0.000,0
2026-01-31 13:05:35,5641134,1197.000,4869.000,4467.000,2098.000,4.000,-659.000,0.000,0.000,0
2026-01-31 13:05:35,5641174,2645.000,7448.000,5792.000,2231.000,110.000,-783.000,0.000,0.000,0
2026-01-31 13:05:35,5641214,2921.000,9083.000,6789.000,2692.000,-128.000,-258.000,0.000,0.000,0
2026-01-31 13:05:35,5641254,3377.000,12734.000,8927.000,3735.000,-989.000,1916.000,0.000,0.000,0
2026-01-31 13:05:35,5641294,2604.000,11583.000,9239.000,2665.000,-1649.000,774.000,0.000,0.000,0
2026-01-31 13:05:35,5641334,1916.000,7171.000,8099.000,507.000,-839.000,-728.000,0.000,0.000,0
2026-01-31 13:05:35,5641374,693.000,1993.000,5144.000,-6538.000,-901.000,-1458.000,0.000,0.000,0
2026-01-31 13:05:35,5641414,329.000,1558.000,3592.000,-4545.000,-1713.000,-1818.000,0.000,0.000,0
2026-01-31 13:05:35,5641454,659.000,2432.000,2715.000,-4248.000,-2236.000,-564.000,0.000,0.000,0
2026-01-31 13:05:35,5641494,1720.000,2792.000,1911.000,-3209.000,-1919.000,1081.000,0.000,0.000,0
2026-01-31 13:05:35,5641534,2639.000,3911.000,2257.000,-1464.000,-453.000,1949.000,0.000,0.000,0
2026-01-31 13:05:35,5641574,4029.000,5340.000,2811.000,-538.000,1433.000,3382.000,0.000,0.000,0
2026-01-31 13:05:35,5641614,5817.000,6340.000,4543.000,1281.000,3204.000,5125.000,0.000,0.000,0
2026-01-31 13:05:35,5641654,6115.000,6253.000,6243.000,4289.000,3830.000,5101.000,0.000,0.000,0
2026-01-31 13:05:35,5641694,5109.000,5923.000,6433.000,6881.000,3622.000,5283.000,0.000,0.000,0
2026-01-31 13:05:35,5641734,2371.000,7522.000,8170.000,7716.000,2426.000,4005.000,0.000,0.000,0
2026-01-31 13:05:35,5641774,896.000,4733.000,7393.000,2968.000,2538.000,2833.000,0.000,0.000,0
2026-01-31 13:05:35,5641814,-445.000,6214.000,7314.000,1721.000,2993.000,1605.000,0.000,0.000,0
2026-01-31 13:05:35,5641854,222.000,4890.000,6733.000,-5066.000,3277.000,1097.000,0.000,0.000,0
2026-01-31 13:05:35,5641894,122.000,1242.000,5818.000,-5023.000,2904.000,732.000,0.000,0.000,0
2026-01-31 13:05:35,5641934,1119.000,1722.000,6295.000,-2469.000,1374.000,173.000,0.000,0.000,0
2026-01-31 13:05:35,5641974,1644.000,3021.000,6851.000,-1373.000,665.000,-494.000,0.000,0.000,0
2026-01-31 13:05:35,5642014,1419.000,4737.000,8239.000,-911.000,523.000,-924.000,0.000,0.000,0
2026-01-31 13:05:36,5642054,4358.000,11495.000,12317.000,-1368.000,-1140.000,376.000,0.000,0.000,0
2026-01-31 13:05:36,5642097,6615.000,10033.000,9674.000,-1500.000,-1163.000,-1327.000,0.000,0.000,0
2026-01-31 13:05:36,5642134,5695.000,9345.000,9055.000,-2262.000,-1167.000,-1441.000,0.000,0.000,0
2026-01-31 13:05:36,5642174,4130.000,7211.000,6970.000,-1309.000,-936.000,-2033.000,0.000,0.000,0
2026-01-31 13:05:36,5642214,2925.000,4617.000,4330.000,-849.000,-735.000,-2060.000,0.000,0.000,0
2026-01-31 13:05:36,5642254,1883.000,3008.000,2847.000,318.000,-594.000,-2088.000,0.000,0.000,0
2026-01-31 13:05:36,5642294,891.000,1896.000,2148.000,1526.000,-696.000,-1982.000,0.000,0.000,0
2026-01-31 13:05:36,5642334,731.000,2298.000,2260.000,2668.000,-1155.000,-1533.000,0.000,0.000,0
2026-01-31 13:05:36,5642374,1436.000,3930.000,2876.000,2291.000,-1315.000,-685.000,0.000,0.000,0
2026-01-31 13:05:36,5642414,2408.000,5004.000,3619.000,1570.000,-979.000,612.000,0.000,0.000,0
2026-01-31 13:05:36,5642454,4140.000,7947.000,5439.000,2984.000,-566.000,2063.000,0.000,0.000,0
2026-01-31 13:05:36,5642494,4513.000,6854.000,5916.000,2059.000,1159.000,2689.000,0.000,0.000,0
2026-01-31 13:05:36,5642534,3557.000,6090.000,7060.000,5720.000,1145.000,2605.000,0.000,0.000,0
2026-01-31 13:05:36,5642574,3755.000,7784.000,9004.000,6906.000,388.000,3114.000,0.000,0.000,0
2026-01-31 13:05:36,5642614,4632.000,7229.000,9767.000,1933.000,101.000,2923.000,0.000,0.000,0
2026-01-31 13:05:36,5642654,4021.000,5816.000,5594.000,-1900.000,-295.000,1060.000,0.000,0.000,0
2026-01-31 13:05:36,5642694,4523.000,5167.000,3434.000,-3622.000,-585.000,290.000,0.000,0.000,0
2026-01-31 13:05:36,5642734,4671.000,4250.000,2325.000,-1887.000,-43.000,26.000,0.000,0.000,0
2026-01-31 13:05:36,5642774,4223.000,4694.000,2222.000,1534.000,364.000,-127.000,0.000,0.000,0
2026-01-31 13:05:36,5642814,3566.000,4056.000,2156.000,2244.000,481.000,-73.000,0.000,0.000,0
2026-01-31 13:05:36,5642854,2802.000,3578.000,2803.000,2849.000,188.000,217.000,0.000,0.000,0
2026-01-31 13:05:36,5642894,2720.000,2876.000,3164.000,4300.000,-443.000,586.000,0.000,0.000,0
2026-01-31 13:05:36,5642934,2725.000,4467.000,3704.000,5920.000,-983.000,-98.000,0.000,0.000,0
2026-01-31 13:05:36,5642974,2327.000,5837.000,4528.000,2779.000,-1619.000,-1101.000,0.000,0.000,0
2026-01-31 13:05:36,5643014,2138.000,4632.000,4842.000,-837.000,-1492.000,-1592.000,0.000,0.000,0
2026-01-31 13:05:37,5643054,1847.000,4027.000,4572.000,-970.000,-744.000,-2122.000,0.000,0.000,0
2026-01-31 13:05:37,5643094,1696.000,4337.000,4066.000,-1199.000,-154.000,-2577.000,0.000,0.000,0
2026-01-31 13:05:37,5643134,1400.000,3875.000,3205.000,-839.000,-792.000,-3082.000,0.000,0.000,0
2026-01-31 13:05:37,5643174,2109.000,6761.000,3016.000,-547.000,-2784.000,-4018.000,0.000,0.000,0
2026-01-31 13:05:37,5643214,4752.000,11559.000,3392.000,-2801.000,-4573.000,-3253.000,0.000,0.000,0
2026-01-31 13:05:37,5643254,9926.000,16580.000,4336.000,-3906.000,-4062.000,765.000,0.000,0.000,0
2026-01-31 13:05:37,5643294,7045.000,10654.000,3600.000,-3590.000,-969.000,-416.000,0.000,0.000,0
2026-01-31 13:05:37,5643334,3973.000,6129.000,3909.000,196.000,764.000,275.000,0.000,0.000,0
2026-01-31 13:05:37,5643374,2532.000,6108.000,4333.000,2534.000,1681.000,1588.000,0.000,0.000,0
2026-01-31 13:05:37,5643414,1084.000,3328.000,3749.000,-79.000,2763.000,2412.000,0.000,0.000,0
2026-01-31 13:05:37,5643454,22.000,2765.000,2848.000,2224.000,2573.000,2036.000,0.000,0.000,0
2026-01-31 13:05:37,5643494,-168.000,3304.000,2633.000,991.000,1072.000,2033.000,0.000,0.000,0
2026-01-31 13:05:37,5643534,519.000,3257.000,2180.000,-1079.000,-380.000,2327.000,0.000,0.000,0
2026-01-31 13:05:37,5643574,2623.000,5973.000,2632.000,-1226.000,-389.000,2766.000,0.000,0.000,0
2026-01-31 13:05:37,5643614,2890.000,4778.000,2849.000,-4364.000,962.000,2667.000,0.000,0.000,0
2026-01-31 13:05:37,5643654,3664.000,5166.000,4176.000,-2830.000,1169.000,3513.000,0.000,0.000,0
2026-01-31 13:05:37,5643694,6372.000,8515.000,7210.000,-873.000,299.000,4668.000,0.000,0.000,0
2026-01-31 13:05:37,5643734,8138.000,6389.000,7629.000,-655.000,-1371.000,5306.000,0.000,0.000,0
2026-01-31 13:05:37,5643774,8642.000,2786.000,7086.000,1723.000,-3262.000,4690.000,0.000,0.000,0
2026-01-31 13:05:37,5643817,6742.000,3702.000,4868.000,5219.000,-2856.000,3249.000,0.000,0.000,0
2026-01-31 13:05:37,5643857,4765.000,3650.000,3423.000,4996.000,-1865.000,2533.000,0.000,0.000,0
2026-01-31 13:05:37,5643894,3917.000,3898.000,3127.000,3488.000,-1197.000,1728.000,0.000,0.000,0
2026-01-31 13:05:37,5643934,2809.000,2726.000,2600.000,-1221.000,-683.000,931.000,0.000,0.000,0
2026-01-31 13:05:37,5643974,2627.000,1474.000,2219.000,-2110.000,-1349.000,850.000,0.000,0.000,0
2026-01-31 13:05:37,5644014,3976.000,2300.000,1705.000,651.000,-1631.000,1488.000,0.000,0.000,0
2026-01-31 13:05:38,5644054,5221.000,3085.000,1891.000,717.000,-1268.000,1148.000,0.000,0.000,0
2026-01-31 13:05:38,5644094,6451.000,3331.000,2240.000,654.000,-716.000,-458.000,0.000,0.000,0
2026-01-31 13:05:38,5644134,9494.000,4745.000,1679.000,2009.000,-1186.000,-748.000,0.000,0.000,0
2026-01-31 13:05:38,5644174,14886.000,10315.000,2407.000,5688.000,-1920.000,899.000,0.000,0.000,0
2026-01-31 13:05:38,5644214,14286.000,9644.000,3871.000,3991.000,-704.000,2228.000,0.000,0.000,0
2026-01-31 13:05:38,5644254,11365.000,6919.000,4509.000,1918.000,355.000,1010.000,0.000,0.000,0
2026-01-31 13:05:38,5644294,7527.000,3935.000,5288.000,1601.000,460.000,491.000,0.000,0.000,0
2026-01-31 13:05:38,5644334,4464.000,4368.000,4138.000,884.000,1239.000,-523.000,0.000,0.000,0
2026-01-31 13:05:38,5644374,3056.000,2828.000,818.000,-1152.000,1171.000,-312.000,0.000,0.000,0
2026-01-31 13:05:38,5644414,2192.000,2679.000,-104.000,-662.000,-9.000,977.000,0.000,0.000,0
2026-01-31 13:05:38,5644454,2892.000,2421.000,-70.000,-2374.000,203.000,2255.000,0.000,0.000,0
2026-01-31 13:05:38,5644494,4460.000,2526.000,121.000,-897.000,1220.000,1750.000,0.000,0.000,0
2026-01-31 13:05:38,5644534,5890.000,3441.000,593.000,2247.000,2400.000,517.000,0.000,0.000,0
2026-01-31 13:05:38,5644574,6317.000,4386.000,1821.000,3420.000,3464.000,-233.000,0.000,0.000,0
2026-01-31 13:05:38,5644614,7225.000,5928.000,3528.000,4146.000,3397.000,-1261.000,0.000,0.000,0
2026-01-31 13:05:38,5644654,9175.000,7803.000,5230.000,3472.000,1915.000,-605.000,0.000,0.000,0
2026-01-31 13:05:38,5644694,11032.000,7428.000,7138.000,1775.000,-268.000,926.000,0.000,0.000,0
2026-01-31 13:05:38,5644734,10799.000,4921.000,6976.000,-1766.000,-1153.000,-770.000,0.000,0.000,0
2026-01-31 13:05:38,5644774,6572.000,2401.000,3854.000,-1849.000,984.000,-1632.000,0.000,0.000,0
2026-01-31 13:05:38,5644814,4329.000,2287.000,2333.000,517.000,1295.000,-1156.000,0.000,0.000,0
2026-01-31 13:05:38,5644854,3054.000,1830.000,1770.000,-135.000,274.000,-325.000,0.000,0.000,0
2026-01-31 13:05:38,5644894,2726.000,1826.000,1643.000,109.000,-1123.000,319.000,0.000,0.000,0
2026-01-31 13:05:38,5644934,2850.000,1799.000,1421.000,474.000,-2191.000,682.000,0.000,0.000,0
2026-01-31 13:05:38,5644974,4245.000,3233.000,1957.000,406.000,-2209.000,402.000,0.000,0.000,0
2026-01-31 13:05:38,5645014,5146.000,3424.000,2642.000,-1445.000,-1547.000,-30.000,0.000,0.000,0
2026-01-31 13:05:39,5645054,4924.000,2372.000,2913.000,-712.000,-841.000,-791.000,0.000,0.000,0
2026-01-31 13:05:39,5645094,4610.000,3314.000,3114.000,720.000,-333.000,-1804.000,0.000,0.000,0
2026-01-31 13:05:39,5645134,6059.000,4729.000,3069.000,-287.000,33.000,-1576.000,0.000,0.000,0
2026-01-31 13:05:39,5645174,9619.000,7774.000,2777.000,1010.000,339.000,-1357.000,0.000,0.000,0
2026-01-31 13:05:39,5645214,12198.000,8919.000,3494.000,290.000,-215.000,963.000,0.000,0.000,0
2026-01-31 13:05:39,5645254,11987.000,9049.000,4158.000,1758.000,-187.000,1552.000,0.000,0.000,0
2026-01-31 13:05:39,5645294,9120.000,7511.000,4742.000,555.000,-243.000,753.000,0.000,0.000,0
2026-01-31 13:05:39,5645334,6022.000,4868.000,3954.000,-969.000,-144.000,229.000,0.000,0.000,0
2026-01-31 13:05:39,5645374,3783.000,4353.000,2447.000,-1237.000,148.000,-423.000,0.000,0.000,0
2026-01-31 13:05:39,5645414,2808.000,3807.000,1155.000,-3218.000,261.000,-561.000,0.000,0.000,0
2026-01-31 13:05:39,5645454,2256.000,2543.000,524.000,-3802.000,300.000,-472.000,0.000,0.000,0
2026-01-31 13:05:39,5645494,1964.000,2368.000,644.000,-3129.000,101.000,-471.000,0.000,0.000,0
2026-01-31 13:05:39,5645534,3157.000,1623.000,771.000,-2891.000,611.000,-226.000,0.000,0.000,0
2026-01-31 13:05:39,5645574,4543.000,2543.000,1825.000,-1052.000,1169.000,306.000,0.000,0.000,0
2026-01-31 13:05:39,5645614,7163.000,4579.000,3459.000,-621.000,1204.000,63.000,0.000,0.000,0
2026-01-31 13:05:39,5645654,9150.000,5141.000,4771.000,-1541.000,669.000,19.000,0.000,0.000,0
2026-01-31 13:05:39,5645694,11779.000,6676.000,5568.000,217.000,-334.000,1469.000,0.000,0.000,0
2026-01-31 13:05:39,5645734,13062.000,6704.000,6289.000,2659.000,-372.000,1979.000,0.000,0.000,0
2026-01-31 13:05:39,5645774,10191.000,4866.000,5873.000,2266.000,612.000,157.000,0.000,0.000,0
2026-01-31 13:05:39,5645817,4933.000,2510.000,4812.000,2429.000,1142.000,-638.000,0.000,0.000,0
2026-01-31 13:05:39,5645856,2957.000,2694.000,4010.000,2826.000,1346.000,-681.000,0.000,0.000,0
2026-01-31 13:05:39,5645894,2426.000,2616.000,3525.000,1988.000,1109.000,-730.000,0.000,0.000,0
2026-01-31 13:05:39,5645934,1992.000,1742.000,2305.000,-722.000,16.000,-1151.000,0.000,0.000,0
2026-01-31 13:05:39,5645974,2473.000,1949.000,2001.000,-934.000,-533.000,-976.000,0.000,0.000,0
2026-01-31 13:05:39,5646014,4073.000,3141.000,2174.000,-728.000,-555.000,-811.000,0.000,0.000,0
2026-01-31 13:05:40,5646054,4808.000,3500.000,2383.000,-1162.000,-48.000,-1045.000,0.000,0.000,0
2026-01-31 13:05:40,5646098,5291.000,3695.000,3127.000,-1300.000,-211.000,-1371.000,0.000,0.000,0
2026-01-31 13:05:40,5646134,5893.000,3813.000,3483.000,-787.000,-126.000,-1434.000,0.000,0.000,0
2026-01-31 13:05:40,5646174,7341.000,5734.000,4153.000,1314.000,189.000,-1353.000,0.000,0.000,0
2026-01-31 13:05:40,5646214,9365.000,8078.000,4487.000,1410.000,-110.000,-68.000,0.000,0.000,0
2026-01-31 13:05:40,5646254,11311.000,9575.000,4906.000,838.000,-639.000,1987.000,0.000,0.000,0
2026-01-31 13:05:40,5646294,9735.000,7836.000,4937.000,26.000,-533.000,2217.000,0.000,0.000,0
2026-01-31 13:05:40,5646334,6885.000,4860.000,4294.000,-563.000,-1125.000,2238.000,0.000,0.000,0
2026-01-31 13:05:40,5646374,4046.000,3298.000,3426.000,930.000,-934.000,746.000,0.000,0.000,0
2026-01-31 13:05:40,5646414,2537.000,3099.000,2745.000,1391.000,-1119.000,78.000,0.000,0.000,0
2026-01-31 13:05:40,5646454,2077.000,3563.000,2355.000,730.000,-1211.000,533.000,0.000,0.000,0
2026-01-31 13:05:40,5646494,2320.000,3631.000,1930.000,-999.000,-876.000,592.000,0.000,0.000,0
2026-01-31 13:05:40,5646534,3198.000,3698.000,1490.000,-2277.000,-107.000,356.000,0.000,0.000,0
2026-01-31 13:05:40,5646574,4266.000,3938.000,1523.000,-2486.000,504.000,580.000,0.000,0.000,0
2026-01-31 13:05:40,5646614,5728.000,4388.000,2329.000,-1840.000,826.000,662.000,0.000,0.000,0
2026-01-31 13:05:40,5646654,6106.000,4137.000,3202.000,-964.000,1608.000,-158.000,0.000,0.000,0
2026-01-31 13:05:40,5646694,7304.000,5301.000,4647.000,754.000,1828.000,-524.000,0.000,0.000,0
2026-01-31 13:05:40,5646734,8972.000,6682.000,5245.000,1498.000,919.000,-239.000,0.000,0.000,0
2026-01-31 13:05:40,5646774,10551.000,6733.000,5671.000,1253.000,-250.000,442.000,0.000,0.000,0
2026-01-31 13:05:40,5646814,9003.000,4897.000,5347.000,-90.000,-225.000,-1437.000,0.000,0.000,0
2026-01-31 13:05:40,5646854,5959.000,2297.000,4041.000,-731.000,-229.000,-2443.000,0.000,0.000,0
2026-01-31 13:05:40,5646894,3996.000,2106.000,3717.000,1785.000,-207.000,-1899.000,0.000,0.000,0
2026-01-31 13:05:40,5646934,2841.000,2630.000,3657.000,2062.000,120.000,-1711.000,0.000,0.000,0
2026-01-31 13:05:40,5646974,2269.000,2176.000,3119.000,91.000,-6.000,-1639.000,0.000,0.000,0
2026-01-31 13:05:40,5647014,2553.000,2375.000,2700.000,-441.000,-342.000,-1576.000,0.000,0.000,0
2026-01-31 13:05:41,5647054,4248.000,4239.000,2680.000,-765.000,-556.000,-1231.000,0.000,0.000,0
2026-01-31 13:05:41,5647094,4530.000,4070.000,2444.000,-2805.000,192.000,-1975.000,0.000,0.000,0
2026-01-31 13:05:41,5647134,5120.000,4544.000,2708.000,-1796.000,288.000,-2255.000,0.000,0.000,0
2026-01-31 13:05:41,5647174,7293.000,7273.000,3659.000,504.000,-136.000,-1919.000,0.000,0.000,0
2026-01-31 13:05:41,5647214,9616.000,10011.000,4210.000,987.000,25.000,-707.000,0.000,0.000,0
2026-01-31 13:05:41,5647254,10868.000,11242.000,4763.000,1030.000,-15.000,1123.000,0.000,0.000,0
2026-01-31 13:05:41,5647294,9723.000,9539.000,5113.000,-257.000,344.000,765.000,0.000,0.000,0
2026-01-31 13:05:41,5647334,6637.000,6287.000,5232.000,-1704.000,430.000,41.000,0.000,0.000,0
2026-01-31 13:05:41,5647374,2669.000,3052.000,4534.000,-1956.000,394.000,-28.000,0.000,0.000,0
2026-01-31 13:05:41,5647414,1081.000,3707.000,3568.000,-2034.000,132.000,-151.000,0.000,0.000,0
2026-01-31 13:05:41,5647454,1597.000,2437.000,2542.000,-7655.000,-206.000,1442.000,0.000,0.000,0
2026-01-31 13:05:41,5647494,2543.000,2437.000,1845.000,-6600.000,519.000,2056.000,0.000,0.000,0
2026-01-31 13:05:41,5647534,3389.000,2644.000,1967.000,-4389.000,959.000,2240.000,0.000,0.000,0
2026-01-31 13:05:41,5647574,4853.000,3453.000,3042.000,-1765.000,995.000,2350.000,0.000,0.000,0
2026-01-31 13:05:41,5647614,5139.000,3584.000,4363.000,334.000,1452.000,1930.000,0.000,0.000,0
2026-01-31 13:05:41,5647654,5495.000,4842.000,6236.000,3189.000,1355.000,1408.000,0.000,0.000,0
2026-01-31 13:05:41,5647694,6664.000,6644.000,8280.000,2649.000,1128.000,466.000,0.000,0.000,0
2026-01-31 13:05:41,5647734,9313.000,5690.000,9240.000,2355.000,144.000,434.000,0.000,0.000,0
2026-01-31 13:05:41,5647774,10496.000,5331.000,8510.000,2821.000,-145.000,-1103.000,0.000,0.000,0
2026-01-31 13:05:41,5647817,4559.000,2218.000,6482.000,-1618.000,1237.000,-1762.000,0.000,0.000,0
2026-01-31 13:05:41,5647859,2710.000,2337.000,5557.000,161.000,1989.000,-1820.000,0.000,0.000,0
2026-01-31 13:05:41,5647894,2312.000,2610.000,5250.000,811.000,2184.000,-1926.000,0.000,0.000,0
2026-01-31 13:05:41,5647934,2219.000,2816.000,4848.000,-188.000,2557.000,-1956.000,0.000,0.000,0
2026-01-31 13:05:41,5647974,2087.000,2469.000,4143.000,-538.000,2587.000,-2748.000,0.000,0.000,0
2026-01-31 13:05:41,5648014,2665.000,3010.000,4082.000,-154.000,2041.000,-3609.000,0.000,0.000,0
2026-01-31 13:05:42,5648054,3147.000,3215.000,4493.000,-863.000,1406.000,-3520.000,0.000,0.000,0
2026-01-31 13:05:42,5648098,2193.000,2430.000,4818.000,-953.000,655.000,-3518.000,0.000,0.000,0
2026-01-31 13:05:42,5648134,1488.000,2647.000,4615.000,-141.000,-7.000,-3140.000,0.000,0.000,0
2026-01-31 13:05:42,5648174,2557.000,3328.000,4688.000,-285.000,-1608.000,-1996.000,0.000,0.000,0
2026-01-31 13:05:42,5648214,4196.000,5945.000,4810.000,-3816.000,-3451.000,-2209.000,0.000,0.000,0
2026-01-31 13:05:42,5648254,5944.000,6713.000,6642.000,-4945.000,-5364.000,-3099.000,0.000,0.000,0
2026-01-31 13:05:42,5648294,6724.000,7825.000,8675.000,-4115.000,-4122.000,-1492.000,0.000,0.000,0
2026-01-31 13:05:42,5648334,6680.000,7529.000,9442.000,-1679.000,-2644.000,33.000,0.000,0.000,0
2026-01-31 13:05:42,5648374,5441.000,6812.000,8925.000,-607.000,-1844.000,-423.000,0.000,0.000,0
2026-01-31 13:05:42,5648414,2953.000,5087.000,7363.000,-1012.000,-2289.000,-1232.000,0.000,0.000,0
2026-01-31 13:05:42,5648454,1724.000,3276.000,5795.000,-2107.000,-2984.000,-2820.000,0.000,0.000,0
2026-01-31 13:05:42,5648494,2063.000,2134.000,4643.000,-2114.000,-2558.000,-3040.000,0.000,0.000,0
2026-01-31 13:05:42,5648534,2458.000,2821.000,4313.000,-1044.000,-1715.000,-2942.000,0.000,0.000,0
2026-01-31 13:05:42,5648574,2085.000,3094.000,3912.000,-1823.000,-1180.000,-3432.000,0.000,0.000,0
2026-01-31 13:05:42,5648614,2828.000,3404.000,4546.000,-2850.000,-679.000,-2955.000,0.000,0.000,0
2026-01-31 13:05:42,5648654,3494.000,2834.000,5742.000,-2798.000,-358.000,-3341.000,0.000,0.000,0
2026-01-31 13:05:42,5648694,4334.000,3152.000,7088.000,-1741.000,-738.000,-3070.000,0.000,0.000,0
2026-01-31 13:05:42,5648734,5436.000,4939.000,7710.000,-1325.000,-702.000,-3181.000,0.000,0.000,0
2026-01-31 13:05:42,5648774,6351.000,8410.000,8093.000,-53.000,-628.000,-1898.000,0.000,0.000,0
2026-01-31 13:05:42,5648814,7082.000,5808.000,8444.000,-1294.000,-331.000,-1947.000,0.000,0.000,0
2026-01-31 13:05:42,5648854,5915.000,3160.000,8226.000,807.000,822.000,-2051.000,0.000,0.000,0
2026-01-31 13:05:42,5648894,4016.000,3100.000,7100.000,2164.000,1941.000,-1292.000,0.000,0.000,0
2026-01-31 13:05:42,5648934,2047.000,3413.000,5306.000,230.000,2034.000,-1699.000,0.000,0.000,0
2026-01-31 13:05:42,5648974,1689.000,1574.000,4397.000,-1956.000,1185.000,-1717.000,0.000,0.000,0
2026-01-31 13:05:42,5649014,2060.000,1520.000,3943.000,-1587.000,1572.000,-1985.000,0.000,0.000,0
2026-01-31 13:05:43,5649054,1841.000,2581.000,3962.000,-994.000,1513.000,-2097.000,0.000,0.000,0
2026-01-31 13:05:43,5649094,2089.000,2248.000,4030.000,-2151.000,1026.000,-1312.000,0.000,0.000,0
2026-01-31 13:05:43,5649134,1499.000,3773.000,5558.000,-663.000,1328.000,-2023.000,0.000,0.000,0
2026-01-31 13:05:43,5649174,1187.000,5339.000,6992.000,-1736.000,751.000,-2414.000,0.000,0.000,0
2026-01-31 13:05:43,5649214,1586.000,5630.000,7919.000,-1426.000,442.000,-1624.000,0.000,0.000,0
2026-01-31 13:05:43,5649254,2678.000,7804.000,9750.000,1791.000,259.000,1101.000,0.000,0.000,0
2026-01-31 13:05:43,5649294,3169.000,7798.000,10988.000,5310.000,34.000,3046.000,0.000,0.000,0
2026-01-31 13:05:43,5649334,3825.000,8014.000,10459.000,3532.000,-109.000,3378.000,0.000,0.000,0
2026-01-31 13:05:43,5649374,529.000,5035.000,8146.000,2337.000,-859.000,1853.000,0.000,0.000,0
2026-01-31 13:05:43,5649414,-82.000,3630.000,5752.000,321.000,-443.000,1272.000,0.000,0.000,0
2026-01-31 13:05:43,5649454,487.000,2857.000,4251.000,-421.000,557.000,1252.000,0.000,0.000,0
2026-01-31 13:05:43,5649494,849.000,2963.000,3796.000,185.000,1679.000,1540.000,0.000,0.000,0
2026-01-31 13:05:43,5649534,1379.000,3136.000,3682.000,303.000,2678.000,1883.000,0.000,0.000,0
2026-01-31 13:05:43,5649574,1567.000,3528.000,3537.000,626.000,3712.000,2656.000,0.000,0.000,0
2026-01-31 13:05:43,5649614,2306.000,3880.000,4293.000,1580.000,4416.000,3539.000,0.000,0.000,0
2026-01-31 13:05:43,5649654,2120.000,3465.000,5348.000,2600.000,4801.000,3445.000,0.000,0.000,0
2026-01-31 13:05:43,5649694,1534.000,4688.000,6170.000,3324.000,4404.000,3861.000,0.000,0.000,0
2026-01-31 13:05:43,5649734,1664.000,7498.000,7231.000,5785.000,3856.000,5259.000,0.000,0.000,0
2026-01-31 13:05:43,5649777,2160.000,9392.000,8039.000,4288.000,3283.000,5878.000,0.000,0.000,0
2026-01-31 13:05:43,5649817,1545.000,7118.000,8194.000,2491.000,2998.000,4358.000,0.000,0.000,0
2026-01-31 13:05:43,5649854,1092.000,5714.000,7842.000,2454.000,2703.000,3618.000,0.000,0.000,0
2026-01-31 13:05:43,5649894,609.000,4270.000,6922.000,3294.000,2045.000,2845.000,0.000,0.000,0
2026-01-31 13:05:43,5649934,245.000,4285.000,6166.000,3769.000,1555.000,2179.000,0.000,0.000,0
2026-01-31 13:05:43,5649974,448.000,4171.000,5793.000,2367.000,771.000,1328.000,0.000,0.000,0
2026-01-31 13:05:43,5650014,1251.000,3985.000,5689.000,151.000,57.000,873.000,0.000,0.000,0
2026-01-31 13:05:44,5650054,1130.000,3101.000,5100.000,-1057.000,235.000,526.000,0.000,0.000,0
2026-01-31 13:05:44,5650097,1058.000,5825.000,5841.000,-517.000,255.000,1038.000,0.000,0.000,0
2026-01-31 13:05:44,5650134,851.000,5574.000,6028.000,-944.000,513.000,721.000,0.000,0.000,0
2026-01-31 13:05:44,5650174,332.000,7215.000,6726.000,-394.000,621.000,266.000,0.000,0.000,0
2026-01-31 13:05:44,5650214,1645.000,11419.000,8351.000,-874.000,80.000,472.000,0.000,0.000,0
2026-01-31 13:05:44,5650254,3140.000,12810.000,8969.000,-3100.000,-661.000,-392.000,0.000,0.000,0
2026-01-31 13:05:44,5650294,3154.000,10229.000,7978.000,-4424.000,-1196.000,-2443.000,0.000,0.000,0
2026-01-31 13:05:44,5650334,2363.000,8597.000,6841.000,-3200.000,-1912.000,-3161.000,0.000,0.000,0
2026-01-31 13:05:44,5650374,2020.000,6706.000,5197.000,-944.000,-2115.000,-3672.000,0.000,0.000,0
2026-01-31 13:05:44,5650414,1438.000,4919.000,3965.000,-136.000,-1982.000,-4247.000,0.000,0.000,0
2026-01-31 13:05:44,5650454,879.000,3757.000,3255.000,-902.000,-1982.000,-4308.000,0.000,0.000,0
2026-01-31 13:05:44,5650494,909.000,3777.000,3211.000,-1922.000,-1092.000,-3989.000,0.000,0.000,0
2026-01-31 13:05:44,5650534,854.000,4300.000,3800.000,-2021.000,-692.000,-3208.000,0.000,0.000,0
2026-01-31 13:05:44,5650574,1534.000,5604.000,4998.000,-2433.000,-662.000,-2226.000,0.000,0.000,0
2026-01-31 13:05:44,5650614,2674.000,6413.000,6006.000,-2927.000,-565.000,-1139.000,0.000,0.000,0
2026-01-31 13:05:44,5650654,3541.000,5785.000,6684.000,-2609.000,-265.000,-246.000,0.000,0.000,0
2026-01-31 13:05:44,5650694,3457.000,5374.000,7654.000,-588.000,-156.000,577.000,0.000,0.000,0
2026-01-31 13:05:44,5650734,3446.000,5633.000,8213.000,1610.000,-277.000,1833.000,0.000,0.000,0
2026-01-31 13:05:44,5650774,3238.000,6344.000,7664.000,3278.000,-515.000,2902.000,0.000,0.000,0
2026-01-31 13:05:44,5650814,3228.000,6399.000,7004.000,1291.000,-685.000,2204.000,0.000,0.000,0
2026-01-31 13:05:44,5650854,3539.000,4847.000,5918.000,-1045.000,-561.000,1744.000,0.000,0.000,0
2026-01-31 13:05:44,5650894,2954.000,4319.000,4773.000,3128.000,221.000,2314.000,0.000,0.000,0
2026-01-31 13:05:44,5650934,1770.000,3880.000,4348.000,3252.000,502.000,2581.000,0.000,0.000,0
2026-01-31 13:05:44,5650974,889.000,3203.000,3881.000,3707.000,592.000,2502.000,0.000,0.000,0
2026-01-31 13:05:44,5651014,413.000,3923.000,4010.000,4123.000,403.000,2544.000,0.000,0.000,0
2026-01-31 13:05:45,5651054,471.000,4746.000,4697.000,3206.000,62.000,2572.000,0.000,0.000,0
2026-01-31 13:05:45,5651094,832.000,5865.000,5476.000,2095.000,-414.000,2040.000,0.000,0.000,0
2026-01-31 13:05:45,5651134,1600.000,6040.000,6035.000,603.000,-931.000,1332.000,0.000,0.000,0
2026-01-31 13:05:45,5651174,2109.000,6340.000,6621.000,169.000,-1303.000,-25.000,0.000,0.000,0
2026-01-31 13:05:45,5651214,2469.000,6095.000,6509.000,195.000,-1266.000,-1239.000,0.000,0.000,0
2026-01-31 13:05:45,5651254,2979.000,8148.000,6522.000,1090.000,-672.000,-1698.000,0.000,0.000,0
2026-01-31 13:05:45,5651294,3313.000,9159.000,6736.000,336.000,-742.000,-1556.000,0.000,0.000,0
2026-01-31 13:05:45,5651334,4021.000,9236.000,6562.000,-484.000,-1116.000,-1822.000,0.000,0.000,0
2026-01-31 13:05:45,5651374,3785.000,7432.000,5214.000,-1626.000,-1164.000,-2657.000,0.000,0.000,0
2026-01-31 13:05:45,5651414,4040.000,7220.000,4317.000,-1593.000,-1106.000,-2196.000,0.000,0.000,0
2026-01-31 13:05:45,5651454,4239.000,7061.000,3795.000,-812.000,-465.000,-928.000,0.000,0.000,0
2026-01-31 13:05:45,5651494,3297.000,6065.000,3566.000,-1099.000,-48.000,-452.000,0.000,0.000,0
2026-01-31 13:05:45,5651534,2382.000,4168.000,3447.000,-1741.000,-466.000,-550.000,0.000,0.000,0
2026-01-31 13:05:45,5651574,1936.000,3709.000,3303.000,-844.000,-760.000,-729.000,0.000,0.000,0
2026-01-31 13:05:45,5651614,1576.000,4363.000,3267.000,-317.000,-644.000,-538.000,0.000,0.000,0
2026-01-31 13:05:45,5651654,1548.000,5699.000,3988.000,-1071.000,6.000,-127.000,0.000,0.000,0
2026-01-31 13:05:45,5651694,1550.000,5867.000,4689.000,-1488.000,232.000,103.000,0.000,0.000,0
2026-01-31 13:05:45,5651734,2071.000,6586.000,5503.000,-1298.000,283.000,489.000,0.000,0.000,0
2026-01-31 13:05:45,5651774,2637.000,6808.000,5836.000,-1158.000,553.000,541.000,0.000,0.000,0
2026-01-31 13:05:45,5651819,2755.000,6732.000,6360.000,-432.000,448.000,685.000,0.000,0.000,0
2026-01-31 13:05:45,5651854,2936.000,7053.000,6571.000,-150.000,266.000,1015.000,0.000,0.000,0
2026-01-31 13:05:45,5651898,3743.000,8058.000,6842.000,908.000,-461.000,1743.000,0.000,0.000,0
2026-01-31 13:05:45,5651934,4119.000,7905.000,6659.000,254.000,-627.000,1194.000,0.000,0.000,0
2026-01-31 13:05:45,5651974,4250.000,5136.000,5300.000,-1528.000,-514.000,4.000,0.000,0.000,0
2026-01-31 13:05:45,5652014,3860.000,3993.000,4126.000,712.000,255.000,1.000,0.000,0.000,0
2026-01-31 13:05:46,5652054,3204.000,4638.000,4160.000,2725.000,951.000,592.000,0.000,0.000,0
2026-01-31 13:05:46,5652097,2375.000,4098.000,4183.000,1171.000,690.000,1131.000,0.000,0.000,0
2026-01-31 13:05:46,5652136,2127.000,3902.000,4175.000,880.000,506.000,1122.000,0.000,0.000,0
2026-01-31 13:05:46,5652174,1726.000,3703.000,4221.000,846.000,72.000,1270.000,0.000,0.000,0
2026-01-31 13:05:46,5652214,1769.000,4741.000,4544.000,1390.000,-403.000,1252.000,0.000,0.000,0
2026-01-31 13:05:46,5652254,2174.000,5356.000,4877.000,875.000,-566.000,1197.000,0.000,0.000,0
2026-01-31 13:05:46,5652294,2329.000,5741.000,5492.000,596.000,-485.000,799.000,0.000,0.000,0
2026-01-31 13:05:46,5652334,2135.000,5332.000,5717.000,587.000,-541.000,98.000,0.000,0.000,0
2026-01-31 13:05:46,5652374,2032.000,6129.000,5978.000,869.000,-675.000,-702.000,0.000,0.000,0
2026-01-31 13:05:46,5652414,2762.000,7239.000,5885.000,-312.000,-224.000,-1331.000,0.000,0.000,0
2026-01-31 13:05:46,5652454,3065.000,7550.000,6260.000,-42.000,94.000,-1476.000,0.000,0.000,0
2026-01-31 13:05:46,5652494,3374.000,8585.000,6572.000,212.000,-109.000,-1217.000,0.000,0.000,0
2026-01-31 13:05:46,5652534,3540.000,8508.000,5991.000,-382.000,-331.000,-1714.000,0.000,0.000,0
2026-01-31 13:05:46,5652574,3273.000,7488.000,4647.000,-1895.000,-680.000,-2399.000,0.000,0.000,0
2026-01-31 13:05:46,5652614,4121.000,7831.000,4020.000,-1680.000,-734.000,-1369.000,0.000,0.000,0
2026-01-31 13:05:46,5652654,4026.000,7784.000,3935.000,-1400.000,-278.000,-1055.000,0.000,0.000,0
2026-01-31 13:05:46,5652694,2958.000,5118.000,3746.000,-2656.000,-534.000,-1539.000,0.000,0.000,0
2026-01-31 13:05:46,5652734,2429.000,3489.000,3367.000,-1392.000,-1154.000,-2122.000,0.000,0.000,0
2026-01-31 13:05:46,5652774,1670.000,3781.000,2983.000,246.000,-1015.000,-1971.000,0.000,0.000,0
2026-01-31 13:05:46,5652814,1493.000,5433.000,3370.000,726.000,-143.000,-1149.000,0.000,0.000,0
2026-01-31 13:05:46,5652854,1348.000,5560.000,4136.000,-1133.000,44.000,-542.000,0.000,0.000,0
2026-01-31 13:05:46,5652894,1615.000,5959.000,5031.000,-1109.000,-240.000,-24.000,0.000,0.000,0
2026-01-31 13:05:46,5652934,2407.000,6868.000,5459.000,-926.000,-421.000,334.000,0.000,0.000,0
2026-01-31 13:05:46,5652974,2955.000,7222.000,5891.000,-971.000,-383.000,627.000,0.000,0.000,0
2026-01-31 13:05:46,5653014,3144.000,6765.000,6354.000,-408.000,-397.000,685.000,0.000,0.000,0
2026-01-31 13:05:47,5653054,3171.000,7615.000,6720.000,676.000,-641.000,1459.000,0.000,0.000,0
2026-01-31 13:05:47,5653094,3827.000,8264.000,6947.000,930.000,-1128.000,1637.000,0.000,0.000,0
2026-01-31 13:05:47,5653134,3942.000,6224.000,5664.000,-1498.000,-1221.000,76.000,0.000,0.000,0
2026-01-31 13:05:47,5653174,4391.000,4629.000,4237.000,337.000,315.000,-85.000,0.000,0.000,0
2026-01-31 13:05:47,5653214,4339.000,5846.000,4848.000,2092.000,1284.000,415.000,0.000,0.000,0
2026-01-31 13:05:47,5653254,3032.000,4508.000,4885.000,954.000,1415.000,549.000,0.000,0.000,0
2026-01-31 13:05:47,5653294,2262.000,3650.000,4249.000,1369.000,1026.000,496.000,0.000,0.000,0
2026-01-31 13:05:47,5653334,1387.000,3353.000,3757.000,1819.000,800.000,518.000,0.000,0.000,0
2026-01-31 13:05:47,5653374,1052.000,4119.000,3858.000,1893.000,430.000,620.000,0.000,0.000,0
2026-01-31 13:05:47,5653414,1302.000,4943.000,4239.000,1006.000,186.000,558.000,0.000,0.000,0
2026-01-31 13:05:47,5653454,1839.000,5229.000,4758.000,338.000,-37.000,387.000,0.000,0.000,0
2026-01-31 13:05:47,5653494,2382.000,5682.000,5439.000,744.000,-232.000,13.000,0.000,0.000,0
2026-01-31 13:05:47,5653534,2441.000,6423.000,5938.000,898.000,-432.000,-870.000,0.000,0.000,0
2026-01-31 13:05:47,5653574,2346.000,6862.000,5842.000,1210.000,-279.000,-1515.000,0.000,0.000,0
2026-01-31 13:05:47,5653614,2521.000,8260.000,6044.000,1318.000,-28.000,-1428.000,0.000,0.000,0
2026-01-31 13:05:47,5653654,3058.000,9272.000,6140.000,819.000,39.000,-784.000,0.000,0.000,0
2026-01-31 13:05:47,5653694,3592.000,9978.000,6152.000,-70.000,-193.000,-837.000,0.000,0.000,0
2026-01-31 13:05:47,5653734,3145.000,7436.000,4806.000,-1906.000,-707.000,-1781.000,0.000,0.000,0
2026-01-31 13:05:47,5653774,3402.000,7258.000,3695.000,-1020.000,-914.000,-1371.000,0.000,0.000,0
2026-01-31 13:05:47,5653817,3283.000,6926.000,3133.000,-405.000,-42.000,-257.000,0.000,0.000,0
2026-01-31 13:05:47,5653857,2419.000,4810.000,3409.000,-1086.000,-117.000,-161.000,0.000,0.000,0
2026-01-31 13:05:47,5653894,2036.000,4067.000,3402.000,-819.000,-355.000,-249.000,0.000,0.000,0
2026-01-31 13:05:47,5653934,1276.000,4580.000,3056.000,485.000,-683.000,1.000,0.000,0.000,0
2026-01-31 13:05:47,5653974,1244.000,5489.000,3245.000,-149.000,-230.000,356.000,0.000,0.000,0
2026-01-31 13:05:47,5654014,1192.000,5680.000,3833.000,-867.000,191.000,630.000,0.000,0.000,0
2026-01-31 13:05:48,5654054,1378.000,6553.000,4801.000,-898.000,85.000,946.000,0.000,0.000,0
2026-01-31 13:05:48,5654094,1889.000,7485.000,5343.000,-776.000,-29.000,926.000,0.000,0.000,0
2026-01-31 13:05:48,5654134,2201.000,7449.000,5426.000,-920.000,16.000,610.000,0.000,0.000,0
2026-01-31 13:05:48,5654174,2258.000,7053.000,5807.000,-475.000,-94.000,569.000,0.000,0.000,0
2026-01-31 13:05:48,5654214,2817.000,7940.000,6231.000,-181.000,-296.000,945.000,0.000,0.000,0
2026-01-31 13:05:48,5654254,3165.000,8021.000,6377.000,-199.000,-433.000,1407.000,0.000,0.000,0
2026-01-31 13:05:48,5654294,3925.000,6594.000,5595.000,-735.000,-654.000,1115.000,0.000,0.000,0
2026-01-31 13:05:48,5654334,4468.000,4899.000,4314.000,-1370.000,-21.000,-223.000,0.000,0.000,0
2026-01-31 13:05:48,5654374,4767.000,4807.000,3867.000,546.000,902.000,219.000,0.000,0.000,0
2026-01-31 13:05:48,5654414,4198.000,4895.000,3887.000,1574.000,1627.000,528.000,0.000,0.000,0
2026-01-31 13:05:48,5654454,2936.000,3790.000,3701.000,1487.000,1782.000,953.000,0.000,0.000,0
2026-01-31 13:05:48,5654494,1955.000,3475.000,3474.000,2219.000,1616.000,1164.000,0.000,0.000,0
2026-01-31 13:05:48,5654534,1320.000,4007.000,3634.000,2094.000,1337.000,1363.000,0.000,0.000,0
2026-01-31 13:05:48,5654574,1142.000,4696.000,4230.000,1663.000,869.000,1477.000,0.000,0.000,0
2026-01-31 13:05:48,5654614,1488.000,5617.000,4897.000,1046.000,374.000,1355.000,0.000,0.000,0
2026-01-31 13:05:48,5654654,1993.000,6061.000,5529.000,532.000,-134.000,809.000,0.000,0.000,0
2026-01-31 13:05:48,5654694,2282.000,6307.000,5690.000,131.000,-580.000,-1029.000,0.000,0.000,0
2026-01-31 13:05:48,5654734,2628.000,6978.000,5667.000,857.000,-350.000,-1354.000,0.000,0.000,0
2026-01-31 13:05:48,5654774,2720.000,8351.000,6050.000,1348.000,138.000,-1424.000,0.000,0.000,0
2026-01-31 13:05:48,5654814,2619.000,8890.000,6350.000,641.000,-139.000,-1335.000,0.000,0.000,0
2026-01-31 13:05:48,5654854,2835.000,9149.000,6090.000,-24.000,-883.000,-1505.000,0.000,0.000,0
2026-01-31 13:05:48,5654894,2688.000,8009.000,4892.000,-1541.000,-1397.000,-2303.000,0.000,0.000,0
2026-01-31 13:05:48,5654934,3083.000,8077.000,3917.000,-2107.000,-1499.000,-1683.000,0.000,0.000,0
2026-01-31 13:05:48,5654974,3438.000,7958.000,3531.000,-1471.000,-983.000,-681.000,0.000,0.000,0
2026-01-31 13:05:48,5655014,3045.000,6181.000,3435.000,-2247.000,-665.000,-528.000,0.000,0.000,0
2026-01-31 13:05:49,5655054,2327.000,3979.000,3036.000,-1685.000,-883.000,-872.000,0.000,0.000,0
2026-01-31 13:05:49,5655094,1409.000,4414.000,2905.000,-36.000,-1014.000,-811.000,0.000,0.000,0
2026-01-31 13:05:49,5655134,1367.000,5363.000,3127.000,-538.000,-721.000,-462.000,0.000,0.000,0
2026-01-31 13:05:49,5655174,1268.000,5923.000,3755.000,-1578.000,-321.000,-32.000,0.000,0.000,0
2026-01-31 13:05:49,5655214,1535.000,6477.000,4436.000,-1555.000,-246.000,272.000,0.000,0.000,0
2026-01-31 13:05:49,5655254,2339.000,7623.000,5294.000,-1513.000,-315.000,419.000,0.000,0.000,0
2026-01-31 13:05:49,5655294,2777.000,7370.000,5673.000,-1444.000,-79.000,280.000,0.000,0.000,0
2026-01-31 13:05:49,5655334,2401.000,6808.000,5784.000,-269.000,9.000,-29.000,0.000,0.000,0
2026-01-31 13:05:49,5655374,2575.000,7942.000,6371.000,551.000,-130.000,718.000,0.000,0.000,0
2026-01-31 13:05:49,5655414,3369.000,9057.000,7061.000,494.000,-435.000,832.000,0.000,0.000,0
2026-01-31 13:05:49,5655454,4940.000,5235.000,5294.000,-3097.000,-131.000,-1507.000,0.000,0.000,0
2026-01-31 13:05:49,5655494,4390.000,4056.000,4262.000,-540.000,741.000,-1324.000,0.000,0.000,0
2026-01-31 13:05:49,5655534,3639.000,4654.000,4133.000,2185.000,1099.000,-499.000,0.000,0.000,0
2026-01-31 13:05:49,5655574,2344.000,4608.000,3932.000,1772.000,1112.000,79.000,0.000,0.000,0
2026-01-31 13:05:49,5655614,1511.000,4012.000,3559.000,813.000,934.000,396.000,0.000,0.000,0
2026-01-31 13:05:49,5655654,710.000,3651.000,3417.000,576.000,871.000,596.000,0.000,0.000,0
2026-01-31 13:05:49,5655694,1320.000,4474.000,4031.000,1059.000,867.000,294.000,0.000,0.000,0
2026-01-31 13:05:49,5655734,1857.000,4929.000,4753.000,567.000,975.000,-292.000,0.000,0.000,0
2026-01-31 13:05:49,5655774,2602.000,5036.000,5495.000,981.000,1120.000,-602.000,0.000,0.000,0
2026-01-31 13:05:49,5655814,2669.000,5600.000,6243.000,1447.000,1135.000,-787.000,0.000,0.000,0
2026-01-31 13:05:49,5655854,2820.000,6497.000,6720.000,1026.000,750.000,-867.000,0.000,0.000,0
2026-01-31 13:05:49,5655894,2730.000,6974.000,6566.000,568.000,1077.000,-565.000,0.000,0.000,0
2026-01-31 13:05:49,5655934,2455.000,7554.000,6748.000,654.000,961.000,17.000,0.000,0.000,0
2026-01-31 13:05:49,5655974,2295.000,8881.000,6743.000,887.000,411.000,1207.000,0.000,0.000,0
2026-01-31 13:05:49,5656014,2393.000,9407.000,5974.000,55.000,260.000,1155.000,0.000,0.000,0
2026-01-31 13:05:50,5656054,2005.000,7418.000,4434.000,-2009.000,474.000,416.000,0.000,0.000,0
2026-01-31 13:05:50,5656098,2710.000,7645.000,3944.000,-292.000,643.000,1221.000,0.000,0.000,0
2026-01-31 13:05:50,5656134,2746.000,7372.000,3894.000,-220.000,817.000,1333.000,0.000,0.000,0
2026-01-31 13:05:50,5656174,2332.000,5518.000,3693.000,-696.000,721.000,1171.000,0.000,0.000,0
2026-01-31 13:05:50,5656214,1337.000,4175.000,3504.000,-245.000,230.000,678.000,0.000,0.000,0
2026-01-31 13:05:50,5656254,1047.000,4953.000,3611.000,686.000,402.000,802.000,0.000,0.000,0
2026-01-31 13:05:50,5656294,763.000,5701.000,4005.000,-25.000,881.000,961.000,0.000,0.000,0
2026-01-31 13:05:50,5656334,329.000,5677.000,4891.000,-584.000,1023.000,1118.000,0.000,0.000,0
2026-01-31 13:05:50,5656374,484.000,6212.000,5790.000,-308.000,534.000,1101.000,0.000,0.000,0
2026-01-31 13:05:50,5656414,949.000,7109.000,6165.000,-251.000,-8.000,791.000,0.000,0.000,0
2026-01-31 13:05:50,5656454,1672.000,7209.000,6170.000,-1083.000,-252.000,548.000,0.000,0.000,0
2026-01-31 13:05:50,5656494,1897.000,6869.000,6309.000,-1280.000,-282.000,407.000,0.000,0.000,0
2026-01-31 13:05:50,5656534,2233.000,7506.000,6597.000,-818.000,-408.000,1037.000,0.000,0.000,0
2026-01-31 13:05:50,5656574,3691.000,8395.000,7158.000,-331.000,-882.000,1673.000,0.000,0.000,0
2026-01-31 13:05:50,5656614,3686.000,5325.000,5157.000,-2948.000,-747.000,-283.000,0.000,0.000,0
2026-01-31 13:05:50,5656654,3162.000,4154.000,3796.000,-921.000,113.000,-559.000,0.000,0.000,0
2026-01-31 13:05:50,5656694,3136.000,5316.000,4012.000,1620.000,799.000,96.000,0.000,0.000,0
2026-01-31 13:05:50,5656734,2300.000,5215.000,4470.000,1071.000,868.000,77.000,0.000,0.000,0
2026-01-31 13:05:50,5656774,1726.000,3907.000,4313.000,-38.000,340.000,56.000,0.000,0.000,0
2026-01-31 13:05:50,5656814,1419.000,3848.000,4209.000,800.000,-70.000,-35.000,0.000,0.000,0
2026-01-31 13:05:50,5656854,833.000,4247.000,4659.000,847.000,-462.000,-50.000,0.000,0.000,0
2026-01-31 13:05:50,5656894,841.000,4891.000,5046.000,199.000,-1078.000,-258.000,0.000,0.000,0
2026-01-31 13:05:50,5656934,1522.000,5215.000,5344.000,-579.000,-1521.000,-445.000,0.000,0.000,0
2026-01-31 13:05:50,5656974,2068.000,5416.000,5584.000,-645.000,-1623.000,-1327.000,0.000,0.000,0
2026-01-31 13:05:50,5657014,1884.000,5554.000,5648.000,-248.000,-1472.000,-1917.000,0.000,0.000,0
2026-01-31 13:05:51,5657054,2160.000,6670.000,5824.000,734.000,-1365.000,-2092.000,0.000,0.000,0
2026-01-31 13:05:51,5657094,2436.000,7809.000,6306.000,463.000,-1510.000,-2342.000,0.000,0.000,0
2026-01-31 13:05:51,5657134,3162.000,8485.000,6664.000,57.000,-2347.000,-1987.000,0.000,0.000,0
2026-01-31 13:05:51,5657174,3439.000,8611.000,6121.000,13.000,-2876.000,-2219.000,0.000,0.000,0
2026-01-31 13:05:51,5657214,2722.000,7085.000,4770.000,-923.000,-3032.000,-2388.000,0.000,0.000,0
2026-01-31 13:05:51,5657254,2717.000,7830.000,4194.000,-432.000,-3102.000,-1765.000,0.000,0.000,0
2026-01-31 13:05:51,5657294,3173.000,8368.000,3650.000,-895.000,-2849.000,-778.000,0.000,0.000,0
2026-01-31 13:05:51,5657334,3063.000,6759.000,3215.000,-1821.000,-2263.000,-467.000,0.000,0.000,0
2026-01-31 13:05:51,5657374,2485.000,4805.000,2856.000,-569.000,-2031.000,-826.000,0.000,0.000,0
2026-01-31 13:05:51,5657414,2637.000,5440.000,2699.000,935.000,-1666.000,-396.000,0.000,0.000,0
2026-01-31 13:05:51,5657454,2884.000,6284.000,2860.000,470.000,-997.000,39.000,0.000,0.000,0
2026-01-31 13:05:51,5657494,3179.000,6146.000,3235.000,-1196.000,-235.000,521.000,0.000,0.000,0
2026-01-31 13:05:51,5657534,3998.000,6598.000,3815.000,-1155.000,524.000,1188.000,0.000,0.000,0
2026-01-31 13:05:51,5657574,5172.000,7459.000,4608.000,-363.000,1238.000,2164.000,0.000,0.000,0
2026-01-31 13:05:51,5657614,5450.000,7304.000,5633.000,233.000,1634.000,2610.000,0.000,0.000,0
2026-01-31 13:05:51,5657654,4688.000,5208.000,6037.000,-24.000,1174.000,1744.000,0.000,0.000,0
2026-01-31 13:05:51,5657694,3330.000,3357.000,5357.000,286.000,594.000,815.000,0.000,0.000,0
2026-01-31 13:05:51,5657734,3073.000,4894.000,4568.000,1842.000,697.000,1366.000,0.000,0.000,0
2026-01-31 13:05:51,5657774,2653.000,5416.000,4664.000,517.000,1515.000,2172.000,0.000,0.000,0
2026-01-31 13:05:51,5657817,2638.000,3873.000,4970.000,-826.000,1119.000,1753.000,0.000,0.000,0
2026-01-31 13:05:51,5657856,2722.000,4025.000,4991.000,1082.000,811.000,1008.000,0.000,0.000,0
2026-01-31 13:05:51,5657894,2617.000,4321.000,5038.000,1614.000,764.000,706.000,0.000,0.000,0
2026-01-31 13:05:51,5657934,2388.000,4874.000,5549.000,2086.000,593.000,349.000,0.000,0.000,0
2026-01-31 13:05:51,5657974,2500.000,5020.000,6018.000,1729.000,375.000,-80.000,0.000,0.000,0
2026-01-31 13:05:51,5658014,2351.000,4774.000,6175.000,1224.000,8.000,-471.000,0.000,0.000,0
2026-01-31 13:05:52,5658054,2281.000,5442.000,6299.000,1866.000,-464.000,-580.000,0.000,0.000,0
2026-01-31 13:05:52,5658097,1964.000,6168.000,6121.000,906.000,-1462.000,-1137.000,0.000,0.000,0
2026-01-31 13:05:52,5658134,2136.000,6852.000,5983.000,867.000,-2464.000,-1602.000,0.000,0.000,0
2026-01-31 13:05:52,5658174,2820.000,8296.000,5375.000,-76.000,-3179.000,-1672.000,0.000,0.000,0
2026-01-31 13:05:52,5658214,4208.000,10390.000,4740.000,-1472.000,-3338.000,-1366.000,0.000,0.000,0
2026-01-31 13:05:52,5658254,3844.000,8347.000,3523.000,-2991.000,-2861.000,-1442.000,0.000,0.000,0
2026-01-31 13:05:52,5658294,2638.000,7018.000,2688.000,-1946.000,-2702.000,-2026.000,0.000,0.000,0
2026-01-31 13:05:52,5658334,2405.000,7666.000,2124.000,-989.000,-2702.000,-2061.000,0.000,0.000,0
2026-01-31 13:05:52,5658374,2690.000,7836.000,1721.000,-1386.000,-2142.000,-2444.000,0.000,0.000,0
2026-01-31 13:05:52,5658414,2549.000,6461.000,1755.000,-1786.000,-1525.000,-2926.000,0.000,0.000,0
2026-01-31 13:05:52,5658454,2489.000,6045.000,2005.000,-817.000,-1285.000,-2821.000,0.000,0.000,0
2026-01-31 13:05:52,5658494,2378.000,6573.000,2399.000,392.000,-1172.000,-2404.000,0.000,0.000,0
2026-01-31 13:05:52,5658534,1965.000,6877.000,2888.000,473.000,-1483.000,-1370.000,0.000,0.000,0
2026-01-31 13:05:52,5658574,1947.000,7377.000,3525.000,112.000,-2070.000,-489.000,0.000,0.000,0
2026-01-31 13:05:52,5658614,2280.000,7612.000,3973.000,-774.000,-2512.000,-85.000,0.000,0.000,0
2026-01-31 13:05:52,5658654,2688.000,7828.000,4289.000,-1371.000,-2596.000,107.000,0.000,0.000,0
2026-01-31 13:05:52,5658694,2813.000,7797.000,4443.000,-1552.000,-2373.000,339.000,0.000,0.000,0
2026-01-31 13:05:52,5658734,2757.000,8130.000,4701.000,-1665.000,-2117.000,556.000,0.000,0.000,0
2026-01-31 13:05:52,5658774,3203.000,8569.000,4965.000,-2667.000,-1739.000,836.000,0.000,0.000,0
2026-01-31 13:05:52,5658814,3921.000,8946.000,5247.000,-3306.000,-1124.000,960.000,0.000,0.000,0
2026-01-31 13:05:52,5658854,4093.000,7900.000,5680.000,-3723.000,-700.000,735.000,0.000,0.000,0
2026-01-31 13:05:52,5658894,2258.000,3319.000,4107.000,-2648.000,-589.000,-1155.000,0.000,0.000,0
2026-01-31 13:05:52,5658934,1250.000,3554.000,3208.000,-598.000,-646.000,-1483.000,0.000,0.000,0
2026-01-31 13:05:52,5658974,1948.000,5634.000,3093.000,-939.000,-537.000,-1156.000,0.000,0.000,0
2026-01-31 13:05:52,5659014,3009.000,6605.000,3712.000,-2303.000,-325.000,-1063.000,0.000,0.000,0
2026-01-31 13:05:53,5659054,3154.000,5361.000,4543.000,-3865.000,-805.000,-1269.000,0.000,0.000,0
2026-01-31 13:05:53,5659094,2696.000,3892.000,4861.000,-2644.000,-1902.000,-1785.000,0.000,0.000,0
2026-01-31 13:05:53,5659134,2266.000,4389.000,4812.000,-15.000,-3033.000,-1916.000,0.000,0.000,0
2026-01-31 13:05:53,5659174,2266.000,5750.000,4630.000,471.000,-3519.000,-1827.000,0.000,0.000,0
2026-01-31 13:05:53,5659214,2347.000,5640.000,4520.000,-1220.000,-3584.000,-1619.000,0.000,0.000,0
2026-01-31 13:05:53,5659254,2509.000,5155.000,4915.000,-2198.000,-3546.000,-1516.000,0.000,0.000,0
2026-01-31 13:05:53,5659294,2671.000,4777.000,5067.000,-1856.000,-3465.000,-1838.000,0.000,0.000,0
2026-01-31 13:05:53,5659334,2635.000,5449.000,5170.000,-1089.000,-3315.000,-2185.000,0.000,0.000,0
2026-01-31 13:05:53,5659374,2968.000,6380.000,5266.000,-1135.000,-2966.000,-2360.000,0.000,0.000,0
2026-01-31 13:05:53,5659414,3419.000,6814.000,5366.000,-1734.000,-2376.000,-2714.000,0.000,0.000,0
2026-01-31 13:05:53,5659454,3320.000,5930.000,5419.000,-1739.000,-1898.000,-3292.000,0.000,0.000,0
2026-01-31 13:05:53,5659494,3009.000,6641.000,5614.000,-332.000,-2069.000,-3563.000,0.000,0.000,0
2026-01-31 13:05:53,5659534,3218.000,8513.000,5477.000,170.000,-2828.000,-3373.000,0.000,0.000,0
2026-01-31 13:05:53,5659574,4687.000,10192.000,4835.000,-1564.000,-3615.000,-2312.000,0.000,0.000,0
2026-01-31 13:05:53,5659614,3882.000,7606.000,3126.000,-3835.000,-3545.000,-2895.000,0.000,0.000,0
2026-01-31 13:05:53,5659654,4435.000,7422.000,2556.000,-2110.000,-3308.000,-2230.000,0.000,0.000,0
2026-01-31 13:05:53,5659694,4041.000,6656.000,2130.000,-1922.000,-2340.000,-2826.000,0.000,0.000,0
2026-01-31 13:05:53,5659734,2893.000,5194.000,2154.000,-1251.000,-2017.000,-3036.000,0.000,0.000,0
2026-01-31 13:05:53,5659774,2419.000,5730.000,2301.000,413.000,-2124.000,-2736.000,0.000,0.000,0
2026-01-31 13:05:53,5659814,2424.000,6264.000,2385.000,127.000,-2226.000,-2331.000,0.000,0.000,0
2026-01-31 13:05:53,5659854,2519.000,6207.000,2854.000,-460.000,-2303.000,-1907.000,0.000,0.000,0
2026-01-31 13:05:53,5659894,2431.000,6170.000,3603.000,-582.000,-2304.000,-1365.000,0.000,0.000,0
2026-01-31 13:05:53,5659934,2514.000,6919.000,4363.000,-676.000,-2467.000,-945.000,0.000,0.000,0
2026-01-31 13:05:53,5659974,2885.000,7534.000,4779.000,-1655.000,-2442.000,-631.000,0.000,0.000,0
2026-01-31 13:05:53,5660014,3399.000,8110.000,5457.000,-2439.000,-2132.000,-101.000,0.000,0.000,0
2026-01-31 13:05:54,5660054,3677.000,9266.000,6312.000,-3106.000,-2423.000,605.000,0.000,0.000,0
2026-01-31 13:05:54,5660097,3492.000,6835.000,5846.000,-3849.000,-3813.000,-1074.000,0.000,0.000,0
2026-01-31 13:05:54,5660134,2820.000,5369.000,4666.000,-4439.000,-3846.000,-2209.000,0.000,0.000,0
2026-01-31 13:05:54,5660174,1780.000,4493.000,2905.000,-2900.000,-3236.000,-2896.000,0.000,0.000,0
2026-01-31 13:05:54,5660214,2541.000,7000.000,2815.000,-1731.000,-2386.000,-2646.000,0.000,0.000,0
2026-01-31 13:05:54,5660254,3080.000,6877.000,2997.000,-3692.000,-2212.000,-2959.000,0.000,0.000,0
2026-01-31 13:05:54,5660294,2461.000,5124.000,3633.000,-4207.000,-3126.000,-3593.000,0.000,0.000,0
2026-01-31 13:05:54,5660334,1680.000,5474.000,4028.000,-985.000,-4405.000,-4341.000,0.000,0.000,0
2026-01-31 13:05:54,5660374,1849.000,6928.000,3761.000,-680.000,-5167.000,-4936.000,0.000,0.000,0
2026-01-31 13:05:54,5660414,2267.000,6126.000,3457.000,-4253.000,-4714.000,-5388.000,0.000,0.000,0
2026-01-31 13:05:54,5660454,2976.000,5989.000,3885.000,-4199.000,-4187.000,-5136.000,0.000,0.000,0
2026-01-31 13:05:54,5660494,3527.000,6553.000,4212.000,-3805.000,-3629.000,-5036.000,0.000,0.000,0
2026-01-31 13:05:54,5660534,3775.000,6078.000,4390.000,-4198.000,-2905.000,-5340.000,0.000,0.000,0
2026-01-31 13:05:54,5660574,3679.000,5887.000,4855.000,-3040.000,-2010.000,-5595.000,0.000,0.000,0
2026-01-31 13:05:54,5660614,4380.000,6672.000,5200.000,-1660.000,-996.000,-5371.000,0.000,0.000,0
2026-01-31 13:05:54,5660654,4924.000,6626.000,5518.000,-972.000,48.000,-4742.000,0.000,0.000,0
2026-01-31 13:05:54,5660694,4366.000,6741.000,5956.000,127.000,391.000,-3791.000,0.000,0.000,0
2026-01-31 13:05:54,5660734,4130.000,6856.000,5826.000,920.000,185.000,-2475.000,0.000,0.000,0
2026-01-31 13:05:54,5660774,3525.000,6683.000,5240.000,376.000,64.000,-1703.000,0.000,0.000,0
2026-01-31 13:05:54,5660814,2979.000,6456.000,4587.000,114.000,154.000,320.000,0.000,0.000,0
2026-01-31 13:05:54,5660854,3289.000,6647.000,4480.000,517.000,510.000,1279.000,0.000,0.000,0
2026-01-31 13:05:54,5660894,2872.000,5192.000,4403.000,-259.000,746.000,1517.000,0.000,0.000,0
2026-01-31 13:05:54,5660934,1874.000,4938.000,4201.000,961.000,815.000,1709.000,0.000,0.000,0
2026-01-31 13:05:54,5660974,1019.000,5328.000,4144.000,1359.000,1090.000,2184.000,0.000,0.000,0
2026-01-31 13:05:54,5661014,605.000,5745.000,4459.000,645.000,1381.000,2513.000,0.000,0.000,0
2026-01-31 13:05:55,5661054,587.000,5988.000,4944.000,57.000,1376.000,2734.000,0.000,0.000,0
2026-01-31 13:05:55,5661094,469.000,6444.000,5470.000,247.000,1129.000,2633.000,0.000,0.000,0
2026-01-31 13:05:55,5661134,893.000,6987.000,5866.000,-228.000,904.000,2170.000,0.000,0.000,0
2026-01-31 13:05:55,5661174,1880.000,6721.000,6242.000,-975.000,928.000,1536.000,0.000,0.000,0
2026-01-31 13:05:55,5661214,2031.000,6774.000,6359.000,-1124.000,1002.000,1576.000,0.000,0.000,0
2026-01-31 13:05:55,5661254,2603.000,6892.000,6421.000,-791.000,975.000,2033.000,0.000,0.000,0
2026-01-31 13:05:55,5661294,4022.000,7362.000,7029.000,73.000,460.000,2281.000,0.000,0.000,0
2026-01-31 13:05:55,5661334,4420.000,6502.000,6686.000,-465.000,176.000,1449.000,0.000,0.000,0
2026-01-31 13:05:55,5661374,3637.000,4733.000,5644.000,-1155.000,156.000,392.000,0.000,0.000,0
2026-01-31 13:05:55,5661414,4060.000,4111.000,5136.000,-317.000,365.000,292.000,0.000,0.000,0
2026-01-31 13:05:55,5661454,4106.000,4020.000,4951.000,689.000,994.000,708.000,0.000,0.000,0
2026-01-31 13:05:55,5661494,2792.000,3179.000,4921.000,810.000,1145.000,1327.000,0.000,0.000,0
2026-01-31 13:05:55,5661534,1444.000,3003.000,4698.000,1176.000,902.000,1557.000,0.000,0.000,0
2026-01-31 13:05:55,5661574,1048.000,3673.000,4579.000,849.000,508.000,1644.000,0.000,0.000,0
2026-01-31 13:05:55,5661614,1367.000,3860.000,4885.000,442.000,428.000,1342.000,0.000,0.000,0
2026-01-31 13:05:55,5661654,1889.000,4057.000,5406.000,794.000,68.000,1016.000,0.000,0.000,0
2026-01-31 13:05:55,5661694,2441.000,4579.000,6018.000,1369.000,-309.000,460.000,0.000,0.000,0
2026-01-31 13:05:55,5661734,2598.000,4821.000,6188.000,1050.000,-391.000,-563.000,0.000,0.000,0
2026-01-31 13:05:55,5661774,2945.000,5160.000,6137.000,891.000,-125.000,-1095.000,0.000,0.000,0
2026-01-31 13:05:55,5661817,3617.000,6475.000,6770.000,1285.000,380.000,-1548.000,0.000,0.000,0
2026-01-31 13:05:55,5661857,3954.000,7539.000,6906.000,964.000,197.000,-1105.000,0.000,0.000,0
2026-01-31 13:05:55,5661894,4430.000,8187.000,6962.000,1250.000,83.000,-564.000,0.000,0.000,0
2026-01-31 13:05:55,5661934,4098.000,7229.000,6362.000,700.000,17.000,-751.000,0.000,0.000,0
2026-01-31 13:05:55,5661974,2960.000,5407.000,4757.000,-1037.000,-94.000,-967.000,0.000,0.000,0
2026-01-31 13:05:55,5662014,3765.000,7240.000,4271.000,856.000,320.000,72.000,0.000,0.000,0
2026-01-31 13:05:56,5662054,3992.000,6911.000,4154.000,-957.000,1042.000,828.000,0.000,0.000,0
2026-01-31 13:05:56,5662094,3360.000,4364.000,4069.000,-1703.000,903.000,522.000,0.000,0.000,0
2026-01-31 13:05:56,5662134,2767.000,3716.000,3631.000,224.000,590.000,232.000,0.000,0.000,0
2026-01-31 13:05:56,5662174,2296.000,4650.000,3560.000,1787.000,867.000,555.000,0.000,0.000,0
2026-01-31 13:05:56,5662214,1974.000,5584.000,3863.000,763.000,1470.000,1004.000,0.000,0.000,0
2026-01-31 13:05:56,5662254,1657.000,5176.000,4386.000,-357.000,1681.000,1731.000,0.000,0.000,0
2026-01-31 13:05:56,5662294,1738.000,5694.000,5207.000,239.000,1246.000,1877.000,0.000,0.000,0
2026-01-31 13:05:56,5662334,2087.000,6233.000,5847.000,-238.000,409.000,1746.000,0.000,0.000,0
2026-01-31 13:05:56,5662374,2583.000,6573.000,6051.000,18.000,505.000,1611.000,0.000,0.000,0
2026-01-31 13:05:56,5662414,2296.000,6308.000,6121.000,-156.000,786.000,1508.000,0.000,0.000,0
2026-01-31 13:05:56,5662454,2720.000,6911.000,6537.000,-154.000,780.000,1751.000,0.000,0.000,0
2026-01-31 13:05:56,5662494,3790.000,7475.000,7306.000,251.000,507.000,2108.000,0.000,0.000,0
2026-01-31 13:05:56,5662534,4527.000,6929.000,7481.000,-439.000,31.000,1652.000,0.000,0.000,0
2026-01-31 13:05:56,5662574,4706.000,4370.000,6145.000,-828.000,-29.000,571.000,0.000,0.000,0
2026-01-31 13:05:56,5662614,4286.000,2831.000,4444.000,496.000,886.000,136.000,0.000,0.000,0
2026-01-31 13:05:56,5662654,4013.000,3378.000,4118.000,2534.000,1804.000,738.000,0.000,0.000,0
2026-01-31 13:05:56,5662694,3696.000,4407.000,4696.000,2210.000,1974.000,1280.000,0.000,0.000,0
2026-01-31 13:05:56,5662734,3277.000,3471.000,4423.000,253.000,1274.000,1661.000,0.000,0.000,0
2026-01-31 13:05:56,5662774,2761.000,3419.000,4458.000,890.000,806.000,1689.000,0.000,0.000,0
2026-01-31 13:05:56,5662814,2756.000,4061.000,4825.000,1461.000,615.000,1564.000,0.000,0.000,0
2026-01-31 13:05:56,5662854,2856.000,4370.000,5315.000,1350.000,526.000,1272.000,0.000,0.000,0
2026-01-31 13:05:56,5662894,3260.000,4398.000,5800.000,1269.000,293.000,834.000,0.000,0.000,0
2026-01-31 13:05:56,5662934,3538.000,4056.000,5935.000,1215.000,142.000,248.000,0.000,0.000,0
2026-01-31 13:05:56,5662974,3432.000,4090.000,5830.000,1549.000,561.000,-314.000,0.000,0.000,0
2026-01-31 13:05:56,5663014,4085.000,5006.000,5864.000,1713.000,1565.000,-287.000,0.000,0.000,0
2026-01-31 13:05:57,5663054,4672.000,5543.000,6222.000,1370.000,2656.000,-458.000,0.000,0.000,0
2026-01-31 13:05:57,5663094,4572.000,6688.000,6612.000,2374.000,2874.000,198.000,0.000,0.000,0
2026-01-31 13:05:57,5663134,5079.000,8553.000,6526.000,2580.000,2777.000,1197.000,0.000,0.000,0
2026-01-31 13:05:57,5663174,4634.000,6958.000,5798.000,62.000,2733.000,1057.000,0.000,0.000,0
2026-01-31 13:05:57,5663214,3305.000,4582.000,3910.000,73.000,2962.000,966.000,0.000,0.000,0
2026-01-31 13:05:57,5663254,3568.000,6296.000,3286.000,2828.000,3551.000,1916.000,0.000,0.000,0
2026-01-31 13:05:57,5663294,4385.000,7471.000,3401.000,1686.000,4303.000,2844.000,0.000,0.000,0
2026-01-31 13:05:57,5663334,4061.000,5915.000,4089.000,218.000,4131.000,3084.000,0.000,0.000,0
2026-01-31 13:05:57,5663374,3076.000,4703.000,3994.000,942.000,3520.000,2842.000,0.000,0.000,0
2026-01-31 13:05:57,5663414,2290.000,5194.000,3637.000,2918.000,3535.000,3107.000,0.000,0.000,0
2026-01-31 13:05:57,5663454,1634.000,6332.000,4275.000,2914.000,4027.000,3262.000,0.000,0.000,0
2026-01-31 13:05:57,5663494,1668.000,5937.000,4812.000,1324.000,4026.000,3464.000,0.000,0.000,0
2026-01-31 13:05:57,5663534,1955.000,6127.000,5155.000,1556.000,3458.000,3294.000,0.000,0.000,0
2026-01-31 13:05:57,5663574,1860.000,6160.000,5312.000,1788.000,2896.000,3170.000,0.000,0.000,0
2026-01-31 13:05:57,5663614,1610.000,6483.000,5541.000,1705.000,2488.000,3099.000,0.000,0.000,0
2026-01-31 13:05:57,5663654,1329.000,6469.000,5781.000,1171.000,2056.000,3137.000,0.000,0.000,0
2026-01-31 13:05:57,5663694,1266.000,6529.000,5936.000,578.000,1452.000,2972.000,0.000,0.000,0
2026-01-31 13:05:57,5663734,2051.000,6605.000,5813.000,-84.000,1011.000,2830.000,0.000,0.000,0
2026-01-31 13:05:57,5663774,3574.000,7049.000,6060.000,41.000,934.000,2951.000,0.000,0.000,0
2026-01-31 13:05:57,5663817,5859.000,5978.000,5774.000,-377.000,702.000,2820.000,0.000,0.000,0
2026-01-31 13:05:57,5663856,5698.000,3712.000,4022.000,112.000,1978.000,1979.000,0.000,0.000,0
2026-01-31 13:05:57,5663894,5541.000,3631.000,3725.000,1487.000,2526.000,2073.000,0.000,0.000,0
2026-01-31 13:05:57,5663934,5517.000,4720.000,3809.000,2912.000,3182.000,2510.000,0.000,0.000,0
2026-01-31 13:05:57,5663974,4840.000,4840.000,3985.000,2162.000,3252.000,2915.000,0.000,0.000,0
2026-01-31 13:05:57,5664014,3711.000,4435.000,3826.000,1372.000,2968.000,3040.000,0.000,0.000,0
2026-01-31 13:05:58,5664054,2702.000,4008.000,4003.000,1579.000,2371.000,3117.000,0.000,0.000,0
2026-01-31 13:05:58,5664099,2249.000,4584.000,4553.000,2141.000,1361.000,2315.000,0.000,0.000,0
2026-01-31 13:05:58,5664134,2339.000,4573.000,4641.000,1863.000,1125.000,1968.000,0.000,0.000,0
2026-01-31 13:05:58,5664174,2671.000,4605.000,5032.000,1696.000,840.000,1269.000,0.000,0.000,0
2026-01-31 13:05:58,5664214,2714.000,4507.000,5574.000,1724.000,602.000,525.000,0.000,0.000,0
2026-01-31 13:05:58,5664254,2711.000,5211.000,5666.000,1488.000,283.000,-528.000,0.000,0.000,0
2026-01-31 13:05:58,5664294,3097.000,5711.000,5651.000,972.000,470.000,-1064.000,0.000,0.000,0
2026-01-31 13:05:58,5664334,3602.000,5974.000,5869.000,549.000,706.000,-1666.000,0.000,0.000,0
2026-01-31 13:05:58,5664374,3386.000,6311.000,5833.000,579.000,635.000,-2158.000,0.000,0.000,0
2026-01-31 13:05:58,5664414,3789.000,8021.000,5297.000,926.000,487.000,-2167.000,0.000,0.000,0
2026-01-31 13:05:58,5664454,4571.000,8759.000,4653.000,-128.000,357.000,-1645.000,0.000,0.000,0
2026-01-31 13:05:58,5664494,3357.000,6393.000,3912.000,-596.000,95.000,-1725.000,0.000,0.000,0
2026-01-31 13:05:58,5664534,2779.000,6207.000,3099.000,351.000,-523.000,-1450.000,0.000,0.000,0
2026-01-31 13:05:58,5664574,3266.000,7223.000,2680.000,1029.000,-504.000,-592.000,0.000,0.000,0
2026-01-31 13:05:58,5664614,2598.000,6392.000,3243.000,124.000,-128.000,-280.000,0.000,0.000,0
2026-01-31 13:05:58,5664654,2174.000,5695.000,3296.000,422.000,-644.000,-293.000,0.000,0.000,0
2026-01-31 13:05:58,5664694,2246.000,6241.000,3011.000,1604.000,-833.000,-203.000,0.000,0.000,0
2026-01-31 13:05:58,5664734,2340.000,6905.000,3176.000,1496.000,-681.000,96.000,0.000,0.000,0
2026-01-31 13:05:58,5664774,2491.000,6822.000,3473.000,765.000,-416.000,401.000,0.000,0.000,0
2026-01-31 13:05:58,5664814,2911.000,7193.000,3546.000,673.000,-166.000,781.000,0.000,0.000,0
2026-01-31 13:05:58,5664854,3312.000,7602.000,3783.000,444.000,110.000,1220.000,0.000,0.000,0
2026-01-31 13:05:58,5664894,3314.000,7329.000,3899.000,37.000,345.000,1508.000,0.000,0.000,0
2026-01-31 13:05:58,5664934,3037.000,6789.000,4036.000,96.000,280.000,1642.000,0.000,0.000,0
2026-01-31 13:05:58,5664974,2916.000,6582.000,4379.000,-142.000,155.000,1842.000,0.000,0.000,0
2026-01-31 13:05:58,5665014,2713.000,6639.000,4785.000,-344.000,412.000,2645.000,0.000,0.000,0
2026-01-31 13:05:59,5665054,2956.000,6762.000,5260.000,-1382.000,360.000,2819.000,0.000,0.000,0
2026-01-31 13:05:59,5665094,2413.000,5112.000,5511.000,-2770.000,191.000,2184.000,0.000,0.000,0
2026-01-31 13:05:59,5665134,2163.000,4702.000,5439.000,-3419.000,-38.000,1194.000,0.000,0.000,0
2026-01-31 13:05:59,5665174,2600.000,4702.000,4706.000,-3190.000,366.000,666.000,0.000,0.000,0
2026-01-31 13:05:59,5665214,2867.000,5106.000,4011.000,-1480.000,546.000,556.000,0.000,0.000,0
2026-01-31 13:05:59,5665254,3001.000,4727.000,3599.000,-222.000,508.000,515.000,0.000,0.000,0
2026-01-31 13:05:59,5665294,3488.000,4546.000,3580.000,1894.000,537.000,383.000,0.000,0.000,0
2026-01-31 13:05:59,5665334,3711.000,5417.000,3380.000,4510.000,598.000,-214.000,0.000,0.000,0
2026-01-31 13:05:59,5665374,4188.000,5367.000,3327.000,5249.000,134.000,-748.000,0.000,0.000,0
2026-01-31 13:05:59,5665414,4616.000,5229.000,2740.000,6565.000,-99.000,-500.000,0.000,0.000,0
2026-01-31 13:05:59,5665454,5357.000,5523.000,2445.000,8860.000,-721.000,-5.000,0.000,0.000,0
2026-01-31 13:05:59,5665494,5610.000,6729.000,2030.000,9140.000,-916.000,805.000,0.000,0.000,0
2026-01-31 13:05:59,5665534,5603.000,7147.000,1334.000,6773.000,-1263.000,1811.000,0.000,0.000,0
2026-01-31 13:05:59,5665574,6188.000,6896.000,375.000,3873.000,-1518.000,1820.000,0.000,0.000,0
2026-01-31 13:05:59,5665614,6080.000,6710.000,50.000,2197.000,-1325.000,1805.000,0.000,0.000,0
2026-01-31 13:05:59,5665654,6469.000,5758.000,-86.000,2078.000,-926.000,1478.000,0.000,0.000,0
2026-01-31 13:05:59,5665694,5494.000,6436.000,-397.000,2486.000,-564.000,1164.000,0.000,0.000,0
2026-01-31 13:05:59,5665734,6144.000,6618.000,-512.000,2328.000,-699.000,1360.000,0.000,0.000,0
2026-01-31 13:05:59,5665774,5133.000,6330.000,-724.000,1363.000,-580.000,890.000,0.000,0.000,0
2026-01-31 13:05:59,5665817,4807.000,6574.000,-649.000,610.000,-1006.000,197.000,0.000,0.000,0
2026-01-31 13:05:59,5665856,4660.000,6563.000,-704.000,270.000,-1076.000,303.000,0.000,0.000,0
2026-01-31 13:05:59,5665894,5105.000,6492.000,-614.000,33.000,-1068.000,53.000,0.000,0.000,0
2026-01-31 13:05:59,5665935,5139.000,6492.000,-650.000,2.000,-804.000,-118.000,0.000,0.000,0
2026-01-31 13:05:59,5665974,5455.000,6447.000,-845.000,-515.000,-960.000,-335.000,0.000,0.000,0
2026-01-31 13:05:59,5666014,5572.000,6456.000,-786.000,-425.000,-997.000,-700.000,0.000,0.000,0
2026-01-31 13:06:00,5666054,5584.000,6050.000,-571.000,-172.000,-791.000,-443.000,0.000,0.000,0
2026-01-31 13:06:00,5666094,5679.000,6151.000,-303.000,632.000,-298.000,-194.000,0.000,0.000,0
2026-01-31 13:06:00,5666136,5554.000,6202.000,-391.000,472.000,519.000,511.000,0.000,0.000,0
2026-01-31 13:06:00,5666174,5444.000,6426.000,-281.000,766.000,568.000,616.000,0.000,0.000,0
2026-01-31 13:06:00,5666214,5350.000,6591.000,-382.000,180.000,745.000,870.000,0.000,0.000,0
2026-01-31 13:06:00,5666254,4904.000,6168.000,-1120.000,-272.000,843.000,986.000,0.000,0.000,0
2026-01-31 13:06:00,5666294,4823.000,6833.000,-1746.000,365.000,174.000,997.000,0.000,0.000,0
2026-01-31 13:06:00,5666334,4241.000,6644.000,-1690.000,-611.000,-407.000,236.000,0.000,0.000,0
2026-01-31 13:06:00,5666374,4091.000,6297.000,-1112.000,-786.000,-982.000,-215.000,0.000,0.000,0
2026-01-31 13:06:00,5666414,4168.000,6305.000,-1017.000,-96.000,-1243.000,-41.000,0.000,0.000,0
2026-01-31 13:06:00,5666454,4221.000,6933.000,-722.000,-117.000,-1488.000,-277.000,0.000,0.000,0
2026-01-31 13:06:00,5666494,3771.000,7357.000,-343.000,-639.000,-1441.000,-869.000,0.000,0.000,0
2026-01-31 13:06:00,5666534,4515.000,6142.000,37.000,-547.000,-784.000,-936.000,0.000,0.000,0
2026-01-31 13:06:00,5666574,5226.000,5465.000,-368.000,115.000,29.000,91.000,0.000,0.000,0
2026-01-31 13:06:00,5666614,5471.000,6141.000,-587.000,374.000,91.000,577.000,0.000,0.000,0
2026-01-31 13:06:00,5666654,5444.000,6162.000,-874.000,-206.000,24.000,654.000,0.000,0.000,0
2026-01-31 13:06:00,5666694,5717.000,6421.000,-1277.000,152.000,92.000,489.000,0.000,0.000,0
2026-01-31 13:06:00,5666734,4995.000,6916.000,-1105.000,220.000,53.000,-219.000,0.000,0.000,0
2026-01-31 13:06:00,5666774,4802.000,6247.000,-765.000,-553.000,-303.000,-327.000,0.000,0.000,0
2026-01-31 13:06:00,5666814,4249.000,6813.000,-105.000,-424.000,-591.000,25.000,0.000,0.000,0
2026-01-31 13:06:00,5666854,4055.000,6700.000,-118.000,-2127.000,-717.000,54.000,0.000,0.000,0
2026-01-31 13:06:00,5666894,3659.000,6454.000,255.000,-1213.000,-595.000,874.000,0.000,0.000,0
2026-01-31 13:06:00,5666934,4656.000,7345.000,733.000,-1299.000,-64.000,1084.000,0.000,0.000,0
2026-01-31 13:06:00,5666974,3642.000,8488.000,-676.000,-477.000,1543.000,-61.000,0.000,0.000,0
2026-01-31 13:06:00,5667014,6789.000,4870.000,-1419.000,-1649.000,127.000,193.000,0.000,0.000,0
2026-01-31 13:06:01,5667054,4550.000,6219.000,-791.000,-1003.000,25.000,840.000,0.000,0.000,0
2026-01-31 13:06:01,5667094,6030.000,4853.000,-1532.000,-488.000,740.000,156.000,0.000,0.000,0
2026-01-31 13:06:01,5667134,6941.000,7572.000,-267.000,3442.000,840.000,-1365.000,0.000,0.000,0
2026-01-31 13:06:01,5667174,6102.000,6412.000,-1185.000,1759.000,671.000,-2949.000,0.000,0.000,0
2026-01-31 13:06:01,5667214,4284.000,6155.000,452.000,1650.000,-564.000,-2744.000,0.000,0.000,0
2026-01-31 13:06:01,5667254,4188.000,6412.000,2453.000,-435.000,-2012.000,-1595.000,0.000,0.000,0
2026-01-31 13:06:01,5667294,2387.000,8657.000,-42.000,-699.000,-1507.000,-362.000,0.000,0.000,0
2026-01-31 13:06:01,5667334,3660.000,5455.000,549.000,-3077.000,-345.000,612.000,0.000,0.000,0
2026-01-31 13:06:01,5667374,3606.000,7707.000,514.000,342.000,860.000,550.000,0.000,0.000,0
2026-01-31 13:06:01,5667414,5727.000,5016.000,9.000,-3678.000,1258.000,2083.000,0.000,0.000,0
2026-01-31 13:06:01,5667454,4766.000,7122.000,-1634.000,-1698.000,-27.000,1095.000,0.000,0.000,0
2026-01-31 13:06:01,5667494,4776.000,5368.000,-910.000,-3323.000,92.000,1358.000,0.000,0.000,0
2026-01-31 13:06:01,5667534,5717.000,2815.000,-1325.000,4645.000,2304.000,2261.000,0.000,0.000,0
2026-01-31 13:06:01,5667574,7876.000,10030.000,-928.000,4708.000,994.000,-518.000,0.000,0.000,0
2026-01-31 13:06:01,5667614,4692.000,5883.000,72.000,2109.000,1337.000,-1373.000,0.000,0.000,0
2026-01-31 13:06:01,5667654,4415.000,8468.000,-1946.000,1544.000,-604.000,-1199.000,0.000,0.000,0
2026-01-31 13:06:01,5667694,2401.000,10036.000,-2500.000,-910.000,-3436.000,-2678.000,0.000,0.000,0
2026-01-31 13:06:01,5667734,3631.000,3021.000,881.000,-3804.000,-3700.000,-1645.000,0.000,0.000,0
2026-01-31 13:06:01,5667774,2543.000,6006.000,2604.000,1499.000,-2173.000,-827.000,0.000,0.000,0
2026-01-31 13:06:01,5667814,4781.000,6455.000,2359.000,2176.000,1480.000,658.000,0.000,0.000,0
2026-01-31 13:06:01,5667854,3579.000,5473.000,-556.000,519.000,2107.000,241.000,0.000,0.000,0
2026-01-31 13:06:01,5667894,4105.000,10146.000,-1665.000,-219.000,-1038.000,2230.000,0.000,0.000,0
2026-01-31 13:06:01,5667934,1431.000,5396.000,-1349.000,-1504.000,1642.000,622.000,0.000,0.000,0
2026-01-31 13:06:01,5667974,6253.000,9298.000,-1765.000,3981.000,-668.000,695.000,0.000,0.000,0
2026-01-31 13:06:01,5668014,3902.000,8282.000,-1271.000,-1467.000,559.000,205.000,0.000,0.000,0
2026-01-31 13:06:02,5668054,3138.000,2612.000,3653.000,-1852.000,915.000,1165.000,0.000,0.000,0
2026-01-31 13:06:02,5668094,7510.000,14945.000,2608.000,3925.000,1262.000,-591.000,0.000,0.000,0
2026-01-31 13:06:02,5668134,3697.000,4266.000,-1693.000,-2016.000,1909.000,-499.000,0.000,0.000,0
2026-01-31 13:06:02,5668174,5530.000,6900.000,-1153.000,-1356.000,172.000,913.000,0.000,0.000,0
2026-01-31 13:06:02,5668214,6197.000,5569.000,-1196.000,-3288.000,-608.000,305.000,0.000,0.000,0
2026-01-31 13:06:02,5668254,2870.000,9127.000,-642.000,729.000,-1857.000,-1327.000,0.000,0.000,0
2026-01-31 13:06:02,5668294,3150.000,5699.000,832.000,-2521.000,-1644.000,-1125.000,0.000,0.000,0
2026-01-31 13:06:02,5668334,5632.000,4270.000,3516.000,3508.000,598.000,-125.000,0.000,0.000,0
2026-01-31 13:06:02,5668374,7043.000,7640.000,1751.000,4988.000,2111.000,-767.000,0.000,0.000,0
2026-01-31 13:06:02,5668414,3732.000,6060.000,-1662.000,2074.000,2921.000,-171.000,0.000,0.000,0
2026-01-31 13:06:02,5668454,4201.000,6636.000,-2940.000,-1262.000,-826.000,1622.000,0.000,0.000,0
2026-01-31 13:06:02,5668494,4298.000,4189.000,-2154.000,-3113.000,-589.000,1219.000,0.000,0.000,0
2026-01-31 13:06:02,5668534,5804.000,6790.000,-1216.000,655.000,-721.000,1502.000,0.000,0.000,0
2026-01-31 13:06:02,5668574,4027.000,7547.000,-315.000,-2654.000,-363.000,206.000,0.000,0.000,0
2026-01-31 13:06:02,5668614,8164.000,4467.000,373.000,-4000.000,692.000,91.000,0.000,0.000,0
2026-01-31 13:06:02,5668654,4727.000,8844.000,160.000,-878.000,-553.000,-1208.000,0.000,0.000,0
2026-01-31 13:06:02,5668694,3715.000,10704.000,-54.000,-5772.000,-2569.000,-637.000,0.000,0.000,0
2026-01-31 13:06:02,5668734,4116.000,-650.000,1289.000,-9928.000,-860.000,64.000,0.000,0.000,0
2026-01-31 13:06:02,5668774,6586.000,5423.000,1759.000,6004.000,781.000,841.000,0.000,0.000,0
2026-01-31 13:06:02,5668814,5576.000,4277.000,-643.000,7459.000,2746.000,317.000,0.000,0.000,0
2026-01-31 13:06:02,5668854,1912.000,12278.000,-2573.000,11840.000,1322.000,-1353.000,0.000,0.000,0
2026-01-31 13:06:02,5668894,5808.000,8373.000,-2424.000,965.000,-1667.000,-1167.000,0.000,0.000,0
2026-01-31 13:06:02,5668934,5848.000,-1041.000,-430.000,-7530.000,-1669.000,773.000,0.000,0.000,0
2026-01-31 13:06:02,5668974,6696.000,9265.000,-1037.000,-2259.000,-1792.000,984.000,0.000,0.000,0
2026-01-31 13:06:02,5669014,7278.000,3431.000,-449.000,-12708.000,-2507.000,2528.000,0.000,0.000,0
2026-01-31 13:06:03,5669054,7121.000,8471.000,1617.000,-2572.000,-1144.000,-471.000,0.000,0.000,0
2026-01-31 13:06:03,5669094,7775.000,6197.000,2259.000,-5002.000,1089.000,-49.000,0.000,0.000,0
2026-01-31 13:06:03,5669134,6993.000,4326.000,-664.000,-3924.000,-823.000,-632.000,0.000,0.000,0
2026-01-31 13:06:03,5669174,6409.000,7393.000,1374.000,-5944.000,388.000,-324.000,0.000,0.000,0
2026-01-31 13:06:03,5669214,3694.000,4908.000,1520.000,-7522.000,1842.000,142.000,0.000,0.000,0
2026-01-31 13:06:03,5669254,3211.000,7896.000,2637.000,-4847.000,1325.000,54.000,0.000,0.000,0
2026-01-31 13:06:03,5669294,3198.000,3318.000,2307.000,-7643.000,604.000,2066.000,0.000,0.000,0
2026-01-31 13:06:03,5669334,4035.000,4770.000,3889.000,-1089.000,92.000,2714.000,0.000,0.000,0
2026-01-31 13:06:03,5669374,4797.000,8610.000,5210.000,1967.000,1796.000,2604.000,0.000,0.000,0
2026-01-31 13:06:03,5669414,4278.000,6535.000,4009.000,1753.000,2914.000,2538.000,0.000,0.000,0
2026-01-31 13:06:03,5669454,5183.000,9101.000,4495.000,566.000,1673.000,2312.000,0.000,0.000,0
2026-01-31 13:06:03,5669494,9766.000,8823.000,9073.000,-4106.000,3764.000,675.000,0.000,0.000,0
2026-01-31 13:06:03,5669534,2482.000,-1023.000,1260.000,-4900.000,1803.000,809.000,0.000,0.000,0
2026-01-31 13:06:03,5669574,7396.000,1935.000,4285.000,3427.000,2314.000,1536.000,0.000,0.000,0
2026-01-31 13:06:03,5669614,7252.000,8636.000,4300.000,11426.000,6194.000,-2577.000,0.000,0.000,0
2026-01-31 13:06:03,5669654,5673.000,5974.000,3199.000,3844.000,7868.000,-2430.000,0.000,0.000,0
2026-01-31 13:06:03,5669694,4059.000,3996.000,2365.000,2575.000,7310.000,-1033.000,0.000,0.000,0
2026-01-31 13:06:03,5669734,3077.000,4536.000,2966.000,4678.000,5105.000,754.000,0.000,0.000,0
2026-01-31 13:06:03,5669777,2282.000,3962.000,4200.000,5484.000,1871.000,4053.000,0.000,0.000,0
2026-01-31 13:06:03,5669817,3869.000,11671.000,6261.000,-2208.000,1834.000,7689.000,0.000,0.000,0
2026-01-31 13:06:03,5669854,2221.000,10656.000,4904.000,-12991.000,3199.000,8021.000,0.000,0.000,0
2026-01-31 13:06:03,5669894,4568.000,-3961.000,1729.000,-22221.000,45.000,7428.000,0.000,0.000,0
2026-01-31 13:06:03,5669934,11264.000,-4481.000,5201.000,1911.000,-373.000,6629.000,0.000,0.000,0
2026-01-31 13:06:03,5669974,3796.000,9857.000,4720.000,13611.000,2324.000,3774.000,0.000,0.000,0
2026-01-31 13:06:03,5670014,2473.000,6170.000,4642.000,4831.000,2998.000,3272.000,0.000,0.000,0
2026-01-31 13:06:04,5670054,1383.000,1694.000,3211.000,1611.000,2987.000,6349.000,0.000,0.000,0
2026-01-31 13:06:04,5670097,6191.000,6129.000,5780.000,9849.000,1506.000,7095.000,0.000,0.000,0
2026-01-31 13:06:04,5670134,6804.000,6351.000,6479.000,8580.000,2935.000,6079.000,0.000,0.000,0
2026-01-31 13:06:04,5670174,5319.000,5065.000,4532.000,5620.000,4378.000,5821.000,0.000,0.000,0
2026-01-31 13:06:04,5670214,5273.000,6880.000,4585.000,3676.000,2299.000,5174.000,0.000,0.000,0
2026-01-31 13:06:04,5670254,6796.000,1092.000,5946.000,-2121.000,2024.000,4120.000,0.000,0.000,0
2026-01-31 13:06:04,5670294,-4826.000,6231.000,868.000,7904.000,6245.000,1015.000,0.000,0.000,0
2026-01-31 13:06:04,5670334,6525.000,-1504.000,5150.000,659.000,2589.000,3734.000,0.000,0.000,0
2026-01-31 13:06:04,5670374,7824.000,4293.000,5390.000,11718.000,4421.000,1951.000,0.000,0.000,0
2026-01-31 13:06:04,5670414,5726.000,6614.000,4999.000,15022.000,5399.000,-38.000,0.000,0.000,0
2026-01-31 13:06:04,5670454,5383.000,6654.000,4593.000,10488.000,6653.000,-631.000,0.000,0.000,0
2026-01-31 13:06:04,5670494,3948.000,4999.000,3472.000,5594.000,7082.000,-608.000,0.000,0.000,0
2026-01-31 13:06:04,5670534,2746.000,3930.000,2635.000,4127.000,6510.000,653.000,0.000,0.000,0
2026-01-31 13:06:04,5670574,2305.000,3628.000,1962.000,5815.000,5337.000,2788.000,0.000,0.000,0
2026-01-31 13:06:04,5670614,2716.000,1646.000,794.000,10405.000,4531.000,5913.000,0.000,0.000,0
2026-01-31 13:06:04,5670654,3166.000,2254.000,-2394.000,19894.000,4895.000,8533.000,0.000,0.000,0
2026-01-31 13:06:04,5670694,4431.000,11171.000,-2485.000,20765.000,4730.000,11120.000,0.000,0.000,0
2026-01-31 13:06:04,5670734,5576.000,17333.000,-3711.000,-9187.000,6677.000,6165.000,0.000,0.000,0
2026-01-31 13:06:04,5670774,5257.000,9008.000,-2470.000,-32282.000,-2016.000,6344.000,0.000,0.000,0
2026-01-31 13:06:04,5670814,9045.000,-20978.000,431.000,-28564.000,-6286.000,8705.000,0.000,0.000,0
2026-01-31 13:06:04,5670854,9089.000,1650.000,946.000,18201.000,-3532.000,3817.000,0.000,0.000,0
2026-01-31 13:06:04,5670894,8095.000,15665.000,2876.000,24106.000,-17.000,-237.000,0.000,0.000,0
2026-01-31 13:06:04,5670934,4344.000,7453.000,3442.000,69.000,517.000,625.000,0.000,0.000,0
2026-01-31 13:06:04,5670974,4145.000,4335.000,4166.000,-4893.000,438.000,1321.000,0.000,0.000,0
2026-01-31 13:06:04,5671014,5012.000,3041.000,4574.000,-718.000,84.000,651.000,0.000,0.000,0
2026-01-31 13:06:05,5671054,6824.000,5613.000,4711.000,3591.000,239.000,-1295.000,0.000,0.000,0
2026-01-31 13:06:05,5671094,6255.000,4426.000,3587.000,264.000,705.000,-2381.000,0.000,0.000,0
2026-01-31 13:06:05,5671134,6638.000,5062.000,3322.000,584.000,273.000,-2391.000,0.000,0.000,0
2026-01-31 13:06:05,5671174,6608.000,5777.000,3663.000,-199.000,75.000,-2373.000,0.000,0.000,0
2026-01-31 13:06:05,5671214,6759.000,5604.000,3965.000,-1998.000,346.000,-2540.000,0.000,0.000,0
2026-01-31 13:06:05,5671254,6690.000,4245.000,3526.000,-2914.000,1417.000,-2994.000,0.000,0.000,0
2026-01-31 13:06:05,5671294,7763.000,4577.000,2925.000,-1473.000,2170.000,-2637.000,0.000,0.000,0
2026-01-31 13:06:05,5671334,7935.000,5006.000,3074.000,-785.000,1866.000,-1066.000,0.000,0.000,0
2026-01-31 13:06:05,5671374,7526.000,4362.000,3305.000,-1540.000,1319.000,-1357.000,0.000,0.000,0
2026-01-31 13:06:05,5671414,6714.000,3110.000,3003.000,-3122.000,1171.000,-1949.000,0.000,0.000,0
2026-01-31 13:06:05,5671454,5777.000,2208.000,2686.000,-2604.000,708.000,-1621.000,0.000,0.000,0
2026-01-31 13:06:05,5671494,5017.000,3623.000,3349.000,60.000,-505.000,-567.000,0.000,0.000,0
2026-01-31 13:06:05,5671534,4520.000,3878.000,3102.000,-991.000,-809.000,-112.000,0.000,0.000,0
2026-01-31 13:06:05,5671574,4862.000,3967.000,2840.000,-2093.000,-995.000,419.000,0.000,0.000,0
2026-01-31 13:06:05,5671614,5413.000,4290.000,3070.000,-2727.000,-936.000,730.000,0.000,0.000,0
2026-01-31 13:06:05,5671654,6285.000,4338.000,3240.000,-3501.000,-721.000,389.000,0.000,0.000,0
2026-01-31 13:06:05,5671694,6896.000,3823.000,3604.000,-3440.000,-657.000,-166.000,0.000,0.000,0
2026-01-31 13:06:05,5671734,6998.000,3212.000,4018.000,-2630.000,-640.000,-758.000,0.000,0.000,0
2026-01-31 13:06:05,5671774,6563.000,2620.000,4122.000,-1055.000,-639.000,-1317.000,0.000,0.000,0
2026-01-31 13:06:05,5671814,5986.000,2920.000,4185.000,676.000,-670.000,-1546.000,0.000,0.000,0
2026-01-31 13:06:05,5671854,5641.000,3825.000,4173.000,1138.000,-398.000,-1577.000,0.000,0.000,0
2026-01-31 13:06:05,5671894,5639.000,3889.000,4061.000,-35.000,-169.000,-1534.000,0.000,0.000,0
2026-01-31 13:06:05,5671934,5789.000,3736.000,4154.000,-935.000,-4.000,-1740.000,0.000,0.000,0
2026-01-31 13:06:05,5671974,5871.000,3259.000,4156.000,-1383.000,142.000,-1638.000,0.000,0.000,0
2026-01-31 13:06:05,5672014,5958.000,3380.000,4246.000,-529.000,315.000,-1573.000,0.000,0.000,0
2026-01-31 13:06:06,5672054,5861.000,3672.000,4183.000,176.000,555.000,-1483.000,0.000,0.000,0
2026-01-31 13:06:06,5672098,5388.000,4175.000,4040.000,719.000,699.000,-1338.000,0.000,0.000,0
2026-01-31 13:06:06,5672134,5221.000,4243.000,4034.000,702.000,643.000,-1218.000,0.000,0.000,0
2026-01-31 13:06:06,5672174,5249.000,4367.000,4028.000,756.000,594.000,-1018.000,0.000,0.000,0
2026-01-31 13:06:06,5672214,5403.000,4508.000,3913.000,978.000,665.000,-972.000,0.000,0.000,0
2026-01-31 13:06:06,5672254,5208.000,4769.000,4018.000,1395.000,530.000,-643.000,0.000,0.000,0
2026-01-31 13:06:06,5672294,4753.000,5026.000,3962.000,1679.000,406.000,-604.000,0.000,0.000,0
2026-01-31 13:06:06,5672334,4521.000,5118.000,3841.000,1868.000,236.000,-468.000,0.000,0.000,0
2026-01-31 13:06:06,5672374,4384.000,5468.000,3986.000,2586.000,-20.000,-306.000,0.000,0.000,0
2026-01-31 13:06:06,5672414,4140.000,6382.000,4179.000,3040.000,-226.000,-285.000,0.000,0.000,0
2026-01-31 13:06:06,5672454,4449.000,7013.000,4052.000,1852.000,-366.000,-555.000,0.000,0.000,0
2026-01-31 13:06:06,5672494,4382.000,6185.000,3765.000,576.000,-114.000,-1093.000,0.000,0.000,0
2026-01-31 13:06:06,5672534,4247.000,5732.000,3683.000,691.000,105.000,-1348.000,0.000,0.000,0
2026-01-31 13:06:06,5672574,4315.000,6016.000,3730.000,1274.000,174.000,-1417.000,0.000,0.000,0
2026-01-31 13:06:06,5672614,4293.000,6107.000,3670.000,1230.000,289.000,-1394.000,0.000,0.000,0
2026-01-31 13:06:06,5672654,4118.000,6186.000,3563.000,1211.000,437.000,-1381.000,0.000,0.000,0
2026-01-31 13:06:06,5672694,3909.000,6725.000,3611.000,889.000,296.000,-1551.000,0.000,0.000,0
2026-01-31 13:06:06,5672734,3626.000,6456.000,3544.000,109.000,215.000,-1910.000,0.000,0.000,0
2026-01-31 13:06:06,5672774,3311.000,6400.000,3468.000,342.000,81.000,-1822.000,0.000,0.000,0
2026-01-31 13:06:06,5672814,2845.000,7165.000,3521.000,951.000,-115.000,-2047.000,0.000,0.000,0
2026-01-31 13:06:06,5672854,2490.000,7550.000,3220.000,207.000,-632.000,-2522.000,0.000,0.000,0
2026-01-31 13:06:06,5672894,2059.000,7380.000,3032.000,-311.000,-1255.000,-2643.000,0.000,0.000,0
2026-01-31 13:06:06,5672934,1370.000,7528.000,2945.000,385.000,-1656.000,-3082.000,0.000,0.000,0
2026-01-31 13:06:06,5672974,1168.000,7553.000,2661.000,488.000,-2149.000,-3406.000,0.000,0.000,0
2026-01-31 13:06:06,5673014,1259.000,7722.000,2612.000,1382.000,-2586.000,-3134.000,0.000,0.000,0
2026-01-31 13:06:07,5673054,1573.000,7588.000,2288.000,2945.000,-2775.000,-2697.000,0.000,0.000,0
2026-01-31 13:06:07,5673094,2086.000,7652.000,2163.000,5024.000,-2850.000,-2253.000,0.000,0.000,0
2026-01-31 13:06:07,5673134,1959.000,7073.000,1640.000,6750.000,-2306.000,-2398.000,0.000,0.000,0
2026-01-31 13:06:07,5673174,2293.000,7748.000,1493.000,8676.000,-1359.000,-1774.000,0.000,0.000,0
2026-01-31 13:06:07,5673214,2258.000,8145.000,570.000,8171.000,224.000,-1056.000,0.000,0.000,0
2026-01-31 13:06:07,5673254,1890.000,8052.000,29.000,6739.000,1019.000,-788.000,0.000,0.000,0
2026-01-31 13:06:07,5673294,1324.000,9188.000,-3.000,5368.000,2016.000,-576.000,0.000,0.000,0
2026-01-31 13:06:07,5673334,1052.000,8831.000,-438.000,3146.000,2962.000,-495.000,0.000,0.000,0
2026-01-31 13:06:07,5673374,1549.000,9795.000,-1294.000,1418.000,2809.000,-1128.000,0.000,0.000,0
2026-01-31 13:06:07,5673414,2324.000,8965.000,-1546.000,-2548.000,2576.000,-690.000,0.000,0.000,0
2026-01-31 13:06:07,5673454,2749.000,8751.000,-1663.000,-1948.000,2095.000,-1249.000,0.000,0.000,0
2026-01-31 13:06:07,5673494,2589.000,7183.000,-1480.000,-2648.000,1791.000,-1051.000,0.000,0.000,0
2026-01-31 13:06:07,5673534,1454.000,6348.000,-895.000,-2128.000,1375.000,-1003.000,0.000,0.000,0
2026-01-31 13:06:07,5673574,948.000,6324.000,-558.000,-1188.000,1043.000,-697.000,0.000,0.000,0
2026-01-31 13:06:07,5673614,1082.000,6812.000,-367.000,-759.000,1039.000,303.000,0.000,0.000,0
2026-01-31 13:06:07,5673654,2186.000,7501.000,178.000,-232.000,816.000,1273.000,0.000,0.000,0
2026-01-31 13:06:07,5673694,1757.000,7282.000,489.000,-526.000,653.000,1336.000,0.000,0.000,0
2026-01-31 13:06:07,5673734,2104.000,7437.000,574.000,-449.000,98.000,1324.000,0.000,0.000,0
2026-01-31 13:06:07,5673774,2928.000,7333.000,377.000,-1239.000,150.000,813.000,0.000,0.000,0
2026-01-31 13:06:07,5673817,2843.000,7048.000,659.000,-570.000,-181.000,-134.000,0.000,0.000,0
2026-01-31 13:06:07,5673857,2784.000,7494.000,675.000,155.000,-429.000,-294.000,0.000,0.000,0
2026-01-31 13:06:07,5673894,2936.000,7700.000,589.000,402.000,-447.000,-497.000,0.000,0.000,0
2026-01-31 13:06:07,5673934,3158.000,8225.000,544.000,193.000,-432.000,-885.000,0.000,0.000,0
2026-01-31 13:06:07,5673974,3355.000,8571.000,121.000,-374.000,-300.000,-781.000,0.000,0.000,0
2026-01-31 13:06:07,5674014,3696.000,8807.000,80.000,-694.000,-6.000,-691.000,0.000,0.000,0
2026-01-31 13:06:08,5674054,2036.000,8785.000,-367.000,-5.000,581.000,-216.000,0.000,0.000,0
2026-01-31 13:06:08,5674094,350.000,8292.000,-794.000,158.000,910.000,74.000,0.000,0.000,0
2026-01-31 13:06:08,5674134,-538.000,7699.000,-1270.000,-548.000,838.000,-378.000,0.000,0.000,0
2026-01-31 13:06:08,5674174,-330.000,7826.000,-1535.000,-714.000,273.000,-508.000,0.000,0.000,0
2026-01-31 13:06:08,5674214,604.000,7959.000,-1074.000,-498.000,-500.000,-518.000,0.000,0.000,0
2026-01-31 13:06:08,5674254,940.000,8031.000,-343.000,-787.000,-1271.000,-589.000,0.000,0.000,0
2026-01-31 13:06:08,5674294,590.000,7708.000,-330.000,-1924.000,-1534.000,-714.000,0.000,0.000,0
2026-01-31 13:06:08,5674334,-212.000,7020.000,-466.000,-1854.000,-1689.000,-663.000,0.000,0.000,0
2026-01-31 13:06:08,5674374,-592.000,7542.000,-316.000,-602.000,-2068.000,-14.000,0.000,0.000,0
2026-01-31 13:06:08,5674414,-469.000,7875.000,29.000,-377.000,-2439.000,552.000,0.000,0.000,0
2026-01-31 13:06:08,5674454,-466.000,8315.000,612.000,-461.000,-2805.000,655.000,0.000,0.000,0
2026-01-31 13:06:08,5674494,-328.000,8417.000,645.000,-1284.000,-2954.000,888.000,0.000,0.000,0
2026-01-31 13:06:08,5674534,790.000,8536.000,1056.000,-1837.000,-3574.000,720.000,0.000,0.000,0
2026-01-31 13:06:08,5674574,1483.000,8354.000,1326.000,-2243.000,-3432.000,849.000,0.000,0.000,0
2026-01-31 13:06:08,5674614,2038.000,8023.000,1246.000,-2401.000,-3312.000,952.000,0.000,0.000,0
2026-01-31 13:06:08,5674654,3154.000,8262.000,1157.000,-2360.000,-3024.000,1580.000,0.000,0.000,0
2026-01-31 13:06:08,5674694,4032.000,8891.000,958.000,-1694.000,-2305.000,2745.000,0.000,0.000,0
2026-01-31 13:06:08,5674734,4518.000,9044.000,935.000,-1018.000,-1608.000,3918.000,0.000,0.000,0
2026-01-31 13:06:08,5674774,4629.000,9040.000,1300.000,-420.000,-1103.000,4701.000,0.000,0.000,0
2026-01-31 13:06:08,5674814,4285.000,8315.000,1218.000,-1107.000,-613.000,4369.000,0.000,0.000,0
2026-01-31 13:06:08,5674854,3953.000,7152.000,1001.000,-1855.000,-222.000,3453.000,0.000,0.000,0
2026-01-31 13:06:08,5674894,3575.000,6441.000,908.000,-1467.000,141.000,2583.000,0.000,0.000,0
2026-01-31 13:06:08,5674934,3095.000,5713.000,1111.000,-247.000,824.000,1221.000,0.000,0.000,0
2026-01-31 13:06:08,5674974,2475.000,5317.000,1287.000,685.000,1252.000,735.000,0.000,0.000,0
2026-01-31 13:06:08,5675014,2449.000,5506.000,1574.000,1265.000,1402.000,428.000,0.000,0.000,0
2026-01-31 13:06:09,5675054,2405.000,5488.000,2040.000,830.000,1420.000,378.000,0.000,0.000,0
2026-01-31 13:06:09,5675094,2607.000,5853.000,2459.000,613.000,1128.000,381.000,0.000,0.000,0
2026-01-31 13:06:09,5675134,2872.000,6564.000,2809.000,124.000,706.000,583.000,0.000,0.000,0
2026-01-31 13:06:09,5675174,2974.000,7199.000,3040.000,-522.000,167.000,424.000,0.000,0.000,0
2026-01-31 13:06:09,5675214,2810.000,7754.000,3140.000,-2098.000,-392.000,-442.000,0.000,0.000,0
2026-01-31 13:06:09,5675254,2865.000,8230.000,2759.000,-4064.000,-595.000,-1221.000,0.000,0.000,0
2026-01-31 13:06:09,5675294,2715.000,8804.000,2757.000,-6563.000,-249.000,-2021.000,0.000,0.000,0
2026-01-31 13:06:09,5675334,2734.000,9548.000,3541.000,-7182.000,-556.000,-1882.000,0.000,0.000,0
2026-01-31 13:06:09,5675374,3600.000,10632.000,4331.000,-7516.000,-1552.000,-1436.000,0.000,0.000,0
2026-01-31 13:06:09,5675414,3750.000,9181.000,4722.000,-8604.000,-2425.000,-2425.000,0.000,0.000,0
2026-01-31 13:06:09,5675454,3850.000,6920.000,4334.000,-7793.000,-3375.000,-3375.000,0.000,0.000,0
2026-01-31 13:06:09,5675494,3273.000,5898.000,3689.000,-4355.000,-4030.000,-3919.000,0.000,0.000,0
2026-01-31 13:06:09,5675534,2707.000,5923.000,3141.000,-2205.000,-4369.000,-4435.000,0.000,0.000,0
2026-01-31 13:06:09,5675574,2354.000,5300.000,2556.000,-2618.000,-4303.000,-4617.000,0.000,0.000,0
2026-01-31 13:06:09,5675614,2380.000,5077.000,2150.000,-3688.000,-4067.000,-4498.000,0.000,0.000,0
2026-01-31 13:06:09,5675654,2718.000,5200.000,2486.000,-4627.000,-3625.000,-3770.000,0.000,0.000,0
2026-01-31 13:06:09,5675694,3810.000,6409.000,3396.000,-4088.000,-2883.000,-1887.000,0.000,0.000,0
2026-01-31 13:06:09,5675734,4011.000,5988.000,4072.000,-2979.000,-2123.000,-1131.000,0.000,0.000,0
2026-01-31 13:06:09,5675777,4526.000,5770.000,4639.000,-1412.000,-1767.000,-259.000,0.000,0.000,0
2026-01-31 13:06:09,5675816,5007.000,5782.000,5184.000,200.000,-1776.000,122.000,0.000,0.000,0
2026-01-31 13:06:09,5675854,5422.000,6283.000,5537.000,462.000,-1745.000,500.000,0.000,0.000,0
2026-01-31 13:06:09,5675894,5975.000,6608.000,6098.000,716.000,-1343.000,2097.000,0.000,0.000,0
2026-01-31 13:06:09,5675934,6476.000,7021.000,6081.000,1860.000,-751.000,2414.000,0.000,0.000,0
2026-01-31 13:06:09,5675974,6202.000,4820.000,5200.000,-86.000,-410.000,1308.000,0.000,0.000,0
2026-01-31 13:06:09,5676014,5730.000,2684.000,4433.000,-528.000,-270.000,990.000,0.000,0.000,0
2026-01-31 13:06:10,5676054,3970.000,2332.000,3612.000,2803.000,457.000,1553.000,0.000,0.000,0
2026-01-31 13:06:10,5676097,2738.000,3433.000,3018.000,4271.000,993.000,2404.000,0.000,0.000,0
2026-01-31 13:06:10,5676134,2860.000,4175.000,3098.000,3370.000,1112.000,2579.000,0.000,0.000,0
2026-01-31 13:06:10,5676174,2843.000,4375.000,3513.000,1244.000,993.000,2238.000,0.000,0.000,0
2026-01-31 13:06:10,5676214,3390.000,4164.000,4092.000,924.000,298.000,1410.000,0.000,0.000,0
2026-01-31 13:06:10,5676254,4614.000,4751.000,5097.000,2702.000,298.000,385.000,0.000,0.000,0
2026-01-31 13:06:10,5676294,3891.000,6494.000,4195.000,5726.000,-229.000,-2200.000,0.000,0.000,0
2026-01-31 13:06:10,5676334,3173.000,7299.000,3987.000,5262.000,-1186.000,-4680.000,0.000,0.000,0
2026-01-31 13:06:10,5676374,3711.000,7470.000,4394.000,3007.000,-868.000,-5382.000,0.000,0.000,0
2026-01-31 13:06:10,5676414,4607.000,7613.000,4384.000,1252.000,468.000,-4891.000,0.000,0.000,0
2026-01-31 13:06:10,5676454,6863.000,8622.000,4796.000,-130.000,1215.000,-2578.000,0.000,0.000,0
2026-01-31 13:06:10,5676494,7103.000,8570.000,4602.000,43.000,1396.000,-1704.000,0.000,0.000,0
2026-01-31 13:06:10,5676534,5784.000,5771.000,3294.000,-2001.000,2258.000,-2360.000,0.000,0.000,0
2026-01-31 13:06:10,5676574,4932.000,4042.000,1892.000,-1259.000,2833.000,-1450.000,0.000,0.000,0
2026-01-31 13:06:10,5676614,5405.000,5727.000,1242.000,2406.000,3166.000,764.000,0.000,0.000,0
2026-01-31 13:06:10,5676654,5751.000,7244.000,1866.000,3814.000,3460.000,2347.000,0.000,0.000,0
2026-01-31 13:06:10,5676694,5040.000,6310.000,3172.000,1276.000,3202.000,2167.000,0.000,0.000,0
2026-01-31 13:06:10,5676734,4191.000,4877.000,3661.000,-310.000,2823.000,2146.000,0.000,0.000,0
2026-01-31 13:06:10,5676774,3208.000,4726.000,3351.000,418.000,3324.000,3002.000,0.000,0.000,0
2026-01-31 13:06:10,5676814,2349.000,7322.000,3281.000,1380.000,3722.000,4146.000,0.000,0.000,0
2026-01-31 13:06:10,5676854,2229.000,7290.000,3281.000,-1374.000,3230.000,4647.000,0.000,0.000,0
2026-01-31 13:06:10,5676894,2508.000,7601.000,3710.000,-1768.000,2640.000,4296.000,0.000,0.000,0
2026-01-31 13:06:10,5676934,2898.000,7602.000,4010.000,-2323.000,2374.000,4130.000,0.000,0.000,0
2026-01-31 13:06:10,5676974,3700.000,7010.000,4090.000,-1874.000,2193.000,3888.000,0.000,0.000,0
2026-01-31 13:06:10,5677014,4719.000,6655.000,4176.000,-865.000,1928.000,3581.000,0.000,0.000,0
2026-01-31 13:06:11,5677054,5668.000,6432.000,4256.000,713.000,1793.000,4163.000,0.000,0.000,0
2026-01-31 13:06:11,5677094,6503.000,6810.000,4482.000,2971.000,1647.000,4809.000,0.000,0.000,0
2026-01-31 13:06:11,5677134,6499.000,6558.000,4301.000,3155.000,1561.000,4583.000,0.000,0.000,0
2026-01-31 13:06:11,5677174,6175.000,4794.000,3734.000,817.000,1746.000,2916.000,0.000,0.000,0
2026-01-31 13:06:11,5677214,5411.000,1968.000,2602.000,635.000,2131.000,2505.000,0.000,0.000,0
2026-01-31 13:06:11,5677254,4413.000,2197.000,2701.000,4378.000,2485.000,3125.000,0.000,0.000,0
2026-01-31 13:06:11,5677294,3593.000,3127.000,3045.000,6077.000,2779.000,4113.000,0.000,0.000,0
2026-01-31 13:06:11,5677334,3120.000,3828.000,3440.000,6238.000,2963.000,4787.000,0.000,0.000,0
2026-01-31 13:06:11,5677374,3075.000,5057.000,4367.000,5171.000,2870.000,4736.000,0.000,0.000,0
2026-01-31 13:06:11,5677414,3273.000,5218.000,5112.000,3478.000,2670.000,4299.000,0.000,0.000,0
2026-01-31 13:06:11,5677454,3766.000,5396.000,5697.000,4293.000,2324.000,2718.000,0.000,0.000,0
2026-01-31 13:06:11,5677494,3696.000,5607.000,5504.000,4488.000,1694.000,1040.000,0.000,0.000,0
2026-01-31 13:06:11,5677534,2836.000,5502.000,4951.000,4418.000,956.000,-550.000,0.000,0.000,0
2026-01-31 13:06:11,5677574,4195.000,7609.000,3880.000,4211.000,282.000,-1763.000,0.000,0.000,0
2026-01-31 13:06:11,5677614,5587.000,8758.000,3494.000,1834.000,10.000,-1301.000,0.000,0.000,0
2026-01-31 13:06:11,5677654,6437.000,9043.000,3878.000,-604.000,-866.000,-1359.000,0.000,0.000,0
2026-01-31 13:06:11,5677694,6411.000,8134.000,4554.000,-3108.000,-2084.000,-2344.000,0.000,0.000,0
2026-01-31 13:06:11,5677734,5188.000,5847.000,3982.000,-4878.000,-2781.000,-3375.000,0.000,0.000,0
2026-01-31 13:06:11,5677774,4396.000,5196.000,2846.000,-3801.000,-3066.000,-3355.000,0.000,0.000,0
2026-01-31 13:06:11,5677817,3875.000,5948.000,1898.000,-1329.000,-3302.000,-2129.000,0.000,0.000,0
2026-01-31 13:06:11,5677856,3620.000,6163.000,1579.000,-1712.000,-3288.000,-1538.000,0.000,0.000,0
2026-01-31 13:06:11,5677894,3991.000,6090.000,1394.000,-2364.000,-3221.000,-1259.000,0.000,0.000,0
2026-01-31 13:06:11,5677934,4209.000,5417.000,1321.000,-3053.000,-2840.000,-832.000,0.000,0.000,0
2026-01-31 13:06:11,5677974,4460.000,5190.000,1419.000,-2065.000,-2492.000,-492.000,0.000,0.000,0
2026-01-31 13:06:11,5678014,4644.000,5486.000,1615.000,-870.000,-2315.000,-160.000,0.000,0.000,0
2026-01-31 13:06:12,5678054,4937.000,6597.000,1955.000,-105.000,-2273.000,-126.000,0.000,0.000,0
2026-01-31 13:06:12,5678097,6079.000,7144.000,2084.000,-534.000,-1209.000,-194.000,0.000,0.000,0
2026-01-31 13:06:12,5678134,6052.000,6765.000,2254.000,-531.000,-548.000,-392.000,0.000,0.000,0
2026-01-31 13:06:12,5678174,5974.000,6421.000,2556.000,768.000,643.000,-366.000,0.000,0.000,0
2026-01-31 13:06:12,5678214,5761.000,7007.000,3585.000,3116.000,1407.000,279.000,0.000,0.000,0
2026-01-31 13:06:12,5678254,5789.000,7867.000,4220.000,3920.000,1540.000,31.000,0.000,0.000,0
2026-01-31 13:06:12,5678294,5366.000,6734.000,4717.000,958.000,1210.000,-725.000,0.000,0.000,0
2026-01-31 13:06:12,5678334,4649.000,3426.000,3655.000,-1649.000,1268.000,-1799.000,0.000,0.000,0
2026-01-31 13:06:12,5678374,4724.000,3337.000,2908.000,-442.000,1586.000,-881.000,0.000,0.000,0
2026-01-31 13:06:12,5678414,4527.000,4059.000,2562.000,1621.000,1954.000,105.000,0.000,0.000,0
2026-01-31 13:06:12,5678454,3935.000,4669.000,2543.000,2064.000,1799.000,576.000,0.000,0.000,0
2026-01-31 13:06:12,5678494,3455.000,4712.000,2871.000,1105.000,1135.000,1189.000,0.000,0.000,0
2026-01-31 13:06:12,5678534,3401.000,5163.000,2982.000,1241.000,337.000,1549.000,0.000,0.000,0
2026-01-31 13:06:12,5678574,3929.000,6423.000,2983.000,1213.000,-301.000,1778.000,0.000,0.000,0
2026-01-31 13:06:12,5678614,4092.000,6818.000,3118.000,-152.000,-568.000,1299.000,0.000,0.000,0
2026-01-31 13:06:12,5678654,3157.000,5761.000,3310.000,-925.000,-872.000,123.000,0.000,0.000,0
2026-01-31 13:06:12,5678694,2902.000,6141.000,3431.000,-200.000,-1365.000,-868.000,0.000,0.000,0
2026-01-31 13:06:12,5678734,3401.000,7592.000,3004.000,196.000,-1635.000,-1698.000,0.000,0.000,0
2026-01-31 13:06:12,5678774,3698.000,8309.000,2960.000,-193.000,-1778.000,-2088.000,0.000,0.000,0
2026-01-31 13:06:12,5678814,4094.000,9179.000,2962.000,-332.000,-2314.000,-2306.000,0.000,0.000,0
2026-01-31 13:06:12,5678854,4593.000,10142.000,2866.000,-989.000,-3216.000,-2548.000,0.000,0.000,0
2026-01-31 13:06:12,5678894,4158.000,8686.000,2472.000,-3278.000,-3948.000,-3396.000,0.000,0.000,0
2026-01-31 13:06:12,5678934,3935.000,8048.000,1948.000,-4916.000,-4444.000,-3753.000,0.000,0.000,0
2026-01-31 13:06:12,5678974,4042.000,7514.000,1335.000,-5185.000,-4818.000,-3280.000,0.000,0.000,0
2026-01-31 13:06:12,5679014,3767.000,7098.000,966.000,-4579.000,-4623.000,-3113.000,0.000,0.000,0
2026-01-31 13:06:13,5679054,3295.000,6384.000,843.000,-4640.000,-4173.000,-2983.000,0.000,0.000,0
2026-01-31 13:06:13,5679094,2746.000,6126.000,1223.000,-4167.000,-3654.000,-3031.000,0.000,0.000,0
2026-01-31 13:06:13,5679134,2620.000,5913.000,1470.000,-2969.000,-2454.000,-2741.000,0.000,0.000,0
2026-01-31 13:06:13,5679174,2540.000,6648.000,2072.000,-1436.000,-1812.000,-2512.000,0.000,0.000,0
2026-01-31 13:06:13,5679214,2452.000,7443.000,2831.000,-941.000,-1568.000,-1915.000,0.000,0.000,0
2026-01-31 13:06:13,5679254,2735.000,7568.000,3434.000,-1403.000,-1477.000,-1925.000,0.000,0.000,0
2026-01-31 13:06:13,5679294,3110.000,7423.000,3941.000,-2503.000,-1272.000,-1807.000,0.000,0.000,0
2026-01-31 13:06:13,5679334,3622.000,6819.000,4151.000,-2659.000,-1033.000,-1191.000,0.000,0.000,0
2026-01-31 13:06:13,5679374,4390.000,7132.000,4446.000,-1862.000,-602.000,-333.000,0.000,0.000,0
2026-01-31 13:06:13,5679414,4990.000,7109.000,4858.000,-1379.000,-7.000,843.000,0.000,0.000,0
2026-01-31 13:06:13,5679454,5591.000,7094.000,5505.000,-174.000,84.000,1841.000,0.000,0.000,0
2026-01-31 13:06:13,5679494,5448.000,5735.000,5041.000,-1150.000,540.000,2072.000,0.000,0.000,0
2026-01-31 13:06:13,5679534,5687.000,4647.000,3934.000,-1619.000,987.000,2079.000,0.000,0.000,0
2026-01-31 13:06:13,5679574,5469.000,3941.000,3186.000,-721.000,1549.000,2472.000,0.000,0.000,0
2026-01-31 13:06:13,5679614,4626.000,3985.000,2953.000,887.000,1865.000,3157.000,0.000,0.000,0
2026-01-31 13:06:13,5679654,3914.000,3970.000,2887.000,1939.000,1936.000,3832.000,0.000,0.000,0
2026-01-31 13:06:13,5679694,3284.000,3928.000,2722.000,2605.000,1910.000,4010.000,0.000,0.000,0
2026-01-31 13:06:13,5679734,2853.000,3887.000,2750.000,2725.000,1651.000,4218.000,0.000,0.000,0
2026-01-31 13:06:13,5679777,3210.000,4848.000,3436.000,3275.000,972.000,4295.000,0.000,0.000,0
2026-01-31 13:06:13,5679816,3529.000,5376.000,3753.000,3167.000,807.000,4167.000,0.000,0.000,0
2026-01-31 13:06:13,5679857,3793.000,5583.000,4862.000,2442.000,578.000,2457.000,0.000,0.000,0
2026-01-31 13:06:13,5679894,3717.000,5761.000,4931.000,2619.000,628.000,1852.000,0.000,0.000,0
2026-01-31 13:06:13,5679934,3844.000,6647.000,4954.000,2789.000,690.000,1043.000,0.000,0.000,0
2026-01-31 13:06:13,5679974,4259.000,7487.000,5108.000,2516.000,857.000,268.000,0.000,0.000,0
2026-01-31 13:06:13,5680014,4149.000,8139.000,5353.000,2485.000,899.000,-249.000,0.000,0.000,0
2026-01-31 13:06:14,5680054,4463.000,9328.000,5331.000,2262.000,292.000,-550.000,0.000,0.000,0
2026-01-31 13:06:14,5680098,4649.000,9419.000,4531.000,-1526.000,-799.000,-2227.000,0.000,0.000,0
2026-01-31 13:06:14,5680137,4896.000,8359.000,3627.000,-4752.000,-1181.000,-2687.000,0.000,0.000,0
2026-01-31 13:06:14,5680174,4872.000,7631.000,3279.000,-5089.000,-1204.000,-2629.000,0.000,0.000,0
2026-01-31 13:06:14,5680214,4582.000,7062.000,2930.000,-4472.000,-981.000,-3063.000,0.000,0.000,0
2026-01-31 13:06:14,5680254,3524.000,4239.000,2410.000,-5320.000,-775.000,-3753.000,0.000,0.000,0
2026-01-31 13:06:14,5680294,3203.000,3448.000,2401.000,-4046.000,-739.000,-3829.000,0.000,0.000,0
2026-01-31 13:06:14,5680334,3489.000,3773.000,2473.000,-2622.000,-552.000,-3208.000,0.000,0.000,0
2026-01-31 13:06:14,5680374,3716.000,4300.000,2759.000,-1351.000,-328.000,-2082.000,0.000,0.000,0
2026-01-31 13:06:14,5680414,3995.000,5173.000,3266.000,-603.000,-232.000,-870.000,0.000,0.000,0
2026-01-31 13:06:14,5680454,4385.000,5892.000,3767.000,-1164.000,-260.000,414.000,0.000,0.000,0
2026-01-31 13:06:14,5680494,5213.000,6177.000,4179.000,-1769.000,-252.000,1614.000,0.000,0.000,0
2026-01-31 13:06:14,5680534,5700.000,5766.000,4697.000,-1401.000,-120.000,2155.000,0.000,0.000,0
2026-01-31 13:06:14,5680574,6124.000,5815.000,5283.000,93.000,-205.000,2748.000,0.000,0.000,0
2026-01-31 13:06:14,5680614,6381.000,6274.000,5575.000,2379.000,-35.000,3929.000,0.000,0.000,0
2026-01-31 13:06:14,5680654,5597.000,6477.000,5528.000,2448.000,399.000,3486.000,0.000,0.000,0
2026-01-31 13:06:14,5680694,4729.000,4797.000,4872.000,78.000,466.000,1898.000,0.000,0.000,0
2026-01-31 13:06:14,5680734,4558.000,3599.000,4322.000,-672.000,28.000,1647.000,0.000,0.000,0
2026-01-31 13:06:14,5680774,3961.000,3242.000,4044.000,1344.000,42.000,1315.000,0.000,0.000,0
2026-01-31 13:06:14,5680814,3160.000,3454.000,3421.000,2011.000,386.000,1250.000,0.000,0.000,0
2026-01-31 13:06:14,5680854,2581.000,3265.000,3111.000,1766.000,450.000,1538.000,0.000,0.000,0
2026-01-31 13:06:14,5680894,2756.000,4032.000,3717.000,1916.000,418.000,1568.000,0.000,0.000,0
2026-01-31 13:06:14,5680934,2923.000,4345.000,4381.000,1587.000,266.000,1416.000,0.000,0.000,0
2026-01-31 13:06:14,5680974,3252.000,4956.000,5178.000,1432.000,-85.000,918.000,0.000,0.000,0
2026-01-31 13:06:14,5681014,3659.000,5215.000,5767.000,840.000,-723.000,-402.000,0.000,0.000,0
2026-01-31 13:06:15,5681054,3774.000,5591.000,5607.000,198.000,-992.000,-1576.000,0.000,0.000,0
2026-01-31 13:06:15,5681094,4683.000,6113.000,5135.000,-441.000,-789.000,-1988.000,0.000,0.000,0
2026-01-31 13:06:15,5681134,5441.000,6686.000,5015.000,-311.000,-168.000,-2540.000,0.000,0.000,0
2026-01-31 13:06:15,5681174,5305.000,6641.000,5213.000,-215.000,-81.000,-2666.000,0.000,0.000,0
2026-01-31 13:06:15,5681214,5201.000,7810.000,5293.000,916.000,-374.000,-2533.000,0.000,0.000,0
2026-01-31 13:06:15,5681254,5088.000,8488.000,4952.000,-132.000,-735.000,-2742.000,0.000,0.000,0
2026-01-31 13:06:15,5681294,4903.000,7739.000,4130.000,-2886.000,-1112.000,-3761.000,0.000,0.000,0
2026-01-31 13:06:15,5681334,5065.000,6962.000,3756.000,-4018.000,-1403.000,-3453.000,0.000,0.000,0
2026-01-31 13:06:15,5681374,5005.000,6691.000,3427.000,-3186.000,-1145.000,-3256.000,0.000,0.000,0
2026-01-31 13:06:15,5681414,4141.000,4536.000,2947.000,-3438.000,-874.000,-3648.000,0.000,0.000,0
2026-01-31 13:06:15,5681454,3598.000,3561.000,2918.000,-2488.000,-877.000,-3891.000,0.000,0.000,0
2026-01-31 13:06:15,5681494,3113.000,3757.000,3256.000,-1397.000,-913.000,-3478.000,0.000,0.000,0
2026-01-31 13:06:15,5681534,2806.000,4535.000,3907.000,-663.000,-668.000,-2698.000,0.000,0.000,0
2026-01-31 13:06:15,5681574,2184.000,5293.000,4411.000,-873.000,-424.000,-1867.000,0.000,0.000,0
2026-01-31 13:06:15,5681614,2442.000,6336.000,4885.000,-1827.000,-662.000,-721.000,0.000,0.000,0
2026-01-31 13:06:15,5681654,3435.000,6741.000,5380.000,-2540.000,-741.000,168.000,0.000,0.000,0
2026-01-31 13:06:15,5681694,4164.000,6573.000,5499.000,-3005.000,-238.000,411.000,0.000,0.000,0
2026-01-31 13:06:15,5681734,4361.000,6012.000,5699.000,-2021.000,-58.000,710.000,0.000,0.000,0
2026-01-31 13:06:15,5681779,4661.000,7022.000,6245.000,2227.000,-246.000,1687.000,0.000,0.000,0
2026-01-31 13:06:15,5681814,4269.000,6354.000,5873.000,1568.000,-297.000,1190.000,0.000,0.000,0
2026-01-31 13:06:15,5681854,3744.000,5068.000,4688.000,-81.000,-137.000,-197.000,0.000,0.000,0
2026-01-31 13:06:15,5681894,3749.000,4322.000,3982.000,-9.000,114.000,-40.000,0.000,0.000,0
2026-01-31 13:06:15,5681934,3247.000,4481.000,3926.000,2647.000,640.000,219.000,0.000,0.000,0
2026-01-31 13:06:15,5681974,2293.000,4580.000,3807.000,3113.000,936.000,478.000,0.000,0.000,0
2026-01-31 13:06:15,5682014,1584.000,4008.000,3766.000,2844.000,498.000,518.000,0.000,0.000,0
2026-01-31 13:06:16,5682054,1649.000,4582.000,3993.000,2820.000,17.000,180.000,0.000,0.000,0
2026-01-31 13:06:16,5682098,1779.000,4867.000,4400.000,2062.000,-590.000,-212.000,0.000,0.000,0
2026-01-31 13:06:16,5682134,2077.000,5255.000,4547.000,1790.000,-766.000,-337.000,0.000,0.000,0
2026-01-31 13:06:16,5682174,2927.000,5970.000,5072.000,483.000,-1188.000,-498.000,0.000,0.000,0
2026-01-31 13:06:16,5682214,2956.000,6231.000,5245.000,41.000,-1347.000,-1159.000,0.000,0.000,0
2026-01-31 13:06:16,5682254,3483.000,7084.000,5264.000,-93.000,-1520.000,-1220.000,0.000,0.000,0
2026-01-31 13:06:16,5682294,4061.000,7975.000,5202.000,250.000,-1308.000,-1247.000,0.000,0.000,0
2026-01-31 13:06:16,5682334,3895.000,8568.000,5487.000,226.000,-1274.000,-1289.000,0.000,0.000,0
2026-01-31 13:06:16,5682374,3652.000,9392.000,5480.000,530.000,-1982.000,-1153.000,0.000,0.000,0
2026-01-31 13:06:16,5682414,3171.000,9592.000,4651.000,-965.000,-2706.000,-1358.000,0.000,0.000,0
2026-01-31 13:06:16,5682454,2567.000,8242.000,3433.000,-3214.000,-3172.000,-1915.000,0.000,0.000,0
2026-01-31 13:06:16,5682494,2719.000,8075.000,2913.000,-3935.000,-3660.000,-1471.000,0.000,0.000,0
2026-01-31 13:06:16,5682534,3018.000,6389.000,2404.000,-3804.000,-3490.000,-771.000,0.000,0.000,0
2026-01-31 13:06:16,5682574,2754.000,4931.000,2352.000,-2964.000,-2609.000,-1008.000,0.000,0.000,0
2026-01-31 13:06:16,5682614,2409.000,4199.000,2555.000,-2141.000,-1840.000,-1307.000,0.000,0.000,0
2026-01-31 13:06:16,5682654,2107.000,4463.000,3021.000,-1192.000,-1081.000,-1193.000,0.000,0.000,0
2026-01-31 13:06:16,5682694,2362.000,5333.000,3578.000,-661.000,-521.000,-600.000,0.000,0.000,0
2026-01-31 13:06:16,5682734,2440.000,5839.000,4180.000,-1173.000,-381.000,-8.000,0.000,0.000,0
2026-01-31 13:06:16,5682774,3002.000,6496.000,4680.000,-1826.000,-707.000,757.000,0.000,0.000,0
2026-01-31 13:06:16,5682814,3975.000,7245.000,4919.000,-2053.000,-888.000,1477.000,0.000,0.000,0
2026-01-31 13:06:16,5682854,4736.000,7029.000,4985.000,-2469.000,-644.000,1656.000,0.000,0.000,0
2026-01-31 13:06:16,5682894,5541.000,6395.000,5217.000,-2027.000,-703.000,1848.000,0.000,0.000,0
2026-01-31 13:06:16,5682934,6308.000,6191.000,5447.000,1353.000,-608.000,2963.000,0.000,0.000,0
2026-01-31 13:06:16,5682974,5681.000,6132.000,4777.000,1575.000,-302.000,2988.000,0.000,0.000,0
2026-01-31 13:06:16,5683014,5456.000,5300.000,3995.000,115.000,-18.000,2342.000,0.000,0.000,0
2026-01-31 13:06:17,5683054,5297.000,4037.000,3525.000,-333.000,318.000,2354.000,0.000,0.000,0
2026-01-31 13:06:17,5683094,4685.000,3470.000,3269.000,1808.000,814.000,2271.000,0.000,0.000,0
2026-01-31 13:06:17,5683134,3862.000,3415.000,3151.000,3203.000,1005.000,2290.000,0.000,0.000,0
2026-01-31 13:06:17,5683174,3281.000,3261.000,3241.000,3662.000,1123.000,2336.000,0.000,0.000,0
2026-01-31 13:06:17,5683214,3145.000,3616.000,3552.000,3947.000,1287.000,2294.000,0.000,0.000,0
2026-01-31 13:06:17,5683254,3123.000,4127.000,4274.000,3817.000,1062.000,2235.000,0.000,0.000,0
2026-01-31 13:06:17,5683294,3406.000,5289.000,5102.000,2962.000,664.000,1806.000,0.000,0.000,0
2026-01-31 13:06:17,5683334,3625.000,5464.000,5338.000,1043.000,80.000,841.000,0.000,0.000,0
2026-01-31 13:06:17,5683374,4043.000,6087.000,5507.000,537.000,-93.000,-297.000,0.000,0.000,0
2026-01-31 13:06:17,5683414,4560.000,6450.000,5207.000,-19.000,-2.000,-1001.000,0.000,0.000,0
2026-01-31 13:06:17,5683454,5066.000,7116.000,5240.000,355.000,176.000,-1539.000,0.000,0.000,0
2026-01-31 13:06:17,5683494,5243.000,7856.000,5681.000,578.000,-84.000,-1800.000,0.000,0.000,0
2026-01-31 13:06:17,5683534,5414.000,8509.000,5477.000,77.000,-556.000,-2349.000,0.000,0.000,0
2026-01-31 13:06:17,5683574,5190.000,8260.000,4622.000,-2289.000,-1025.000,-3195.000,0.000,0.000,0
2026-01-31 13:06:17,5683614,5190.000,7989.000,3916.000,-4336.000,-1653.000,-3328.000,0.000,0.000,0
2026-01-31 13:06:17,5683654,4990.000,7484.000,3601.000,-4814.000,-2132.000,-3185.000,0.000,0.000,0
2026-01-31 13:06:17,5683694,3714.000,5653.000,3018.000,-5492.000,-2369.000,-4162.000,0.000,0.000,0
2026-01-31 13:06:17,5683734,2930.000,4974.000,2940.000,-5509.000,-2576.000,-4997.000,0.000,0.000,0
2026-01-31 13:06:17,5683777,1825.000,4840.000,3253.000,-5536.000,-2262.000,-5482.000,0.000,0.000,0
2026-01-31 13:06:17,5683817,1396.000,5405.000,3959.000,-4993.000,-1828.000,-5344.000,0.000,0.000,0
2026-01-31 13:06:17,5683854,1034.000,5723.000,4240.000,-4615.000,-1669.000,-5373.000,0.000,0.000,0
2026-01-31 13:06:17,5683894,1288.000,6389.000,4838.000,-3647.000,-1441.000,-5316.000,0.000,0.000,0
2026-01-31 13:06:17,5683934,1374.000,8034.000,5905.000,-2273.000,-1110.000,-5197.000,0.000,0.000,0
2026-01-31 13:06:17,5683974,1765.000,8156.000,6745.000,-1867.000,-1404.000,-5792.000,0.000,0.000,0
2026-01-31 13:06:17,5684014,2099.000,8785.000,7136.000,-3345.000,-1946.000,-6869.000,0.000,0.000,0
2026-01-31 13:06:18,5684054,3572.000,6820.000,7325.000,-6120.000,-2413.000,-6647.000,0.000,0.000,0
2026-01-31 13:06:18,5684100,5772.000,6191.000,6899.000,-6115.000,-2889.000,-5672.000,0.000,0.000,0
2026-01-31 13:06:18,5684134,6324.000,5363.000,6076.000,-7058.000,-2012.000,-5454.000,0.000,0.000,0
2026-01-31 13:06:18,5684174,5678.000,3258.000,5031.000,-7041.000,511.000,-3942.000,0.000,0.000,0
2026-01-31 13:06:18,5684214,5321.000,1102.000,5115.000,-3020.000,2125.000,-2105.000,0.000,0.000,0
2026-01-31 13:06:18,5684254,3694.000,4982.000,6853.000,1634.000,3095.000,-1553.000,0.000,0.000,0
2026-01-31 13:06:18,5684294,-675.000,3605.000,6845.000,-5872.000,3049.000,-798.000,0.000,0.000,0
2026-01-31 13:06:18,5684334,0.000,-87.000,5002.000,-3960.000,1354.000,-1444.000,0.000,0.000,0
2026-01-31 13:06:18,5684374,-303.000,2510.000,5303.000,-852.000,785.000,-2556.000,0.000,0.000,0
2026-01-31 13:06:18,5684414,239.000,1179.000,4201.000,-2109.000,1231.000,-3070.000,0.000,0.000,0
2026-01-31 13:06:18,5684454,1506.000,4529.000,6753.000,1783.000,891.000,-5822.000,0.000,0.000,0
2026-01-31 13:06:18,5684494,2286.000,436.000,7439.000,802.000,3075.000,-4116.000,0.000,0.000,0
2026-01-31 13:06:18,5684534,-1779.000,1881.000,6916.000,3206.000,1878.000,-3566.000,0.000,0.000,0
2026-01-31 13:06:18,5684574,93.000,2359.000,8569.000,3478.000,290.000,-2611.000,0.000,0.000,0
2026-01-31 13:06:18,5684614,-2573.000,2932.000,9228.000,3180.000,-154.000,-1179.000,0.000,0.000,0
2026-01-31 13:06:18,5684654,-2624.000,5271.000,9846.000,3062.000,-1059.000,-404.000,0.000,0.000,0
2026-01-31 13:06:18,5684694,-1692.000,6408.000,10202.000,2063.000,-1209.000,-1203.000,0.000,0.000,0
2026-01-31 13:06:18,5684734,-1247.000,4938.000,8123.000,413.000,-457.000,-1777.000,0.000,0.000,0
2026-01-31 13:06:18,5684774,-1459.000,3875.000,6279.000,-1480.000,-528.000,-1162.000,0.000,0.000,0
2026-01-31 13:06:18,5684814,-747.000,2978.000,5414.000,718.000,-900.000,456.000,0.000,0.000,0
2026-01-31 13:06:18,5684854,-205.000,4091.000,5750.000,4632.000,-1096.000,1811.000,0.000,0.000,0
2026-01-31 13:06:18,5684894,280.000,4010.000,5987.000,3807.000,-1526.000,2245.000,0.000,0.000,0
2026-01-31 13:06:18,5684934,1064.000,3483.000,5662.000,1997.000,-689.000,2467.000,0.000,0.000,0
2026-01-31 13:06:18,5684974,219.000,2953.000,5494.000,976.000,24.000,3132.000,0.000,0.000,0
2026-01-31 13:06:18,5685014,114.000,3624.000,5776.000,1308.000,211.000,4323.000,0.000,0.000,0
2026-01-31 13:06:19,5685054,631.000,5013.000,6206.000,1559.000,656.000,5188.000,0.000,0.000,0
2026-01-31 13:06:19,5685094,1098.000,5959.000,6272.000,1876.000,489.000,6124.000,0.000,0.000,0
2026-01-31 13:06:19,5685134,2065.000,7059.000,6230.000,3046.000,699.000,6855.000,0.000,0.000,0
2026-01-31 13:06:19,5685174,2075.000,8371.000,5942.000,3237.000,1217.000,6969.000,0.000,0.000,0
2026-01-31 13:06:19,5685214,2307.000,9160.000,5963.000,4177.000,1961.000,8273.000,0.000,0.000,0
2026-01-31 13:06:19,5685254,2560.000,10231.000,6012.000,4731.000,2913.000,7698.000,0.000,0.000,0
2026-01-31 13:06:19,5685294,2379.000,8506.000,5347.000,1885.000,4278.000,6027.000,0.000,0.000,0
2026-01-31 13:06:19,5685334,2135.000,5782.000,4627.000,2000.000,4797.000,4487.000,0.000,0.000,0
2026-01-31 13:06:19,5685374,1772.000,5029.000,4403.000,5275.000,4607.000,3471.000,0.000,0.000,0
2026-01-31 13:06:19,5685414,1223.000,5423.000,4416.000,7041.000,3954.000,2567.000,0.000,0.000,0
2026-01-31 13:06:19,5685454,809.000,4870.000,4327.000,5621.000,3171.000,1770.000,0.000,0.000,0
2026-01-31 13:06:19,5685494,757.000,4341.000,4216.000,3475.000,2318.000,1247.000,0.000,0.000,0
2026-01-31 13:06:19,5685534,987.000,4320.000,4540.000,2094.000,1508.000,1204.000,0.000,0.000,0
2026-01-31 13:06:19,5685574,1156.000,4704.000,5092.000,1710.000,729.000,1100.000,0.000,0.000,0
2026-01-31 13:06:19,5685614,1773.000,6099.000,5347.000,672.000,-58.000,638.000,0.000,0.000,0
2026-01-31 13:06:19,5685654,2229.000,6688.000,5493.000,267.000,-101.000,79.000,0.000,0.000,0
2026-01-31 13:06:19,5685694,2300.000,7255.000,5383.000,423.000,-81.000,-664.000,0.000,0.000,0
2026-01-31 13:06:19,5685734,2399.000,7864.000,5240.000,425.000,112.000,-905.000,0.000,0.000,0
2026-01-31 13:06:19,5685774,2603.000,9460.000,5423.000,1299.000,134.000,-566.000,0.000,0.000,0
2026-01-31 13:06:19,5685814,2913.000,10498.000,5731.000,789.000,-128.000,-426.000,0.000,0.000,0
2026-01-31 13:06:19,5685855,2851.000,9037.000,5069.000,-828.000,-569.000,-1244.000,0.000,0.000,0
2026-01-31 13:06:19,5685894,2537.000,8135.000,4138.000,-1316.000,-1074.000,-2034.000,0.000,0.000,0
2026-01-31 13:06:19,5685934,2466.000,8182.000,3523.000,-1629.000,-1145.000,-1419.000,0.000,0.000,0
2026-01-31 13:06:19,5685974,2865.000,7217.000,2968.000,-2369.000,-260.000,-582.000,0.000,0.000,0
2026-01-31 13:06:19,5686014,2551.000,5291.000,2866.000,-2360.000,353.000,-1038.000,0.000,0.000,0
2026-01-31 13:06:20,5686054,2026.000,4756.000,2979.000,-875.000,554.000,-1479.000,0.000,0.000,0
2026-01-31 13:06:20,5686097,1618.000,4689.000,3168.000,-39.000,792.000,-1103.000,0.000,0.000,0
2026-01-31 13:06:20,5686134,1307.000,4787.000,3205.000,-188.000,1032.000,-846.000,0.000,0.000,0
2026-01-31 13:06:20,5686174,900.000,5481.000,3561.000,-368.000,1128.000,97.000,0.000,0.000,0
2026-01-31 13:06:20,5686214,891.000,5989.000,4132.000,-324.000,1022.000,715.000,0.000,0.000,0
2026-01-31 13:06:20,5686254,974.000,6792.000,4376.000,-668.000,750.000,908.000,0.000,0.000,0
2026-01-31 13:06:20,5686294,1835.000,8014.000,4923.000,-420.000,269.000,1493.000,0.000,0.000,0
2026-01-31 13:06:20,5686334,2690.000,8937.000,5612.000,-513.000,85.000,1582.000,0.000,0.000,0
2026-01-31 13:06:20,5686374,3207.000,7495.000,6002.000,-721.000,-20.000,1954.000,0.000,0.000,0
2026-01-31 13:06:20,5686414,3434.000,7944.000,5959.000,1087.000,112.000,1558.000,0.000,0.000,0
2026-01-31 13:06:20,5686454,3752.000,6908.000,5101.000,-390.000,782.000,634.000,0.000,0.000,0
2026-01-31 13:06:20,5686494,3913.000,5765.000,4081.000,-254.000,1332.000,155.000,0.000,0.000,0
2026-01-31 13:06:20,5686534,3360.000,4771.000,3707.000,1503.000,1524.000,508.000,0.000,0.000,0
2026-01-31 13:06:20,5686574,2067.000,4609.000,3511.000,3045.000,1393.000,724.000,0.000,0.000,0
2026-01-31 13:06:20,5686614,1244.000,4039.000,3208.000,3145.000,1095.000,1049.000,0.000,0.000,0
2026-01-31 13:06:20,5686654,719.000,4060.000,3093.000,2956.000,910.000,937.000,0.000,0.000,0
2026-01-31 13:06:20,5686694,414.000,4340.000,3471.000,2369.000,664.000,1068.000,0.000,0.000,0
2026-01-31 13:06:20,5686734,717.000,6051.000,4335.000,2137.000,254.000,922.000,0.000,0.000,0
2026-01-31 13:06:20,5686774,1110.000,6716.000,4790.000,1018.000,-72.000,750.000,0.000,0.000,0
2026-01-31 13:06:20,5686814,1579.000,7942.000,5396.000,1465.000,-590.000,-170.000,0.000,0.000,0
2026-01-31 13:06:20,5686854,1910.000,8407.000,5469.000,400.000,-922.000,-1297.000,0.000,0.000,0
2026-01-31 13:06:20,5686894,2049.000,8505.000,5036.000,-77.000,-522.000,-2037.000,0.000,0.000,0
2026-01-31 13:06:20,5686934,2108.000,9099.000,4897.000,706.000,-324.000,-1570.000,0.000,0.000,0
2026-01-31 13:06:20,5686974,2678.000,10898.000,5219.000,1475.000,-859.000,-827.000,0.000,0.000,0
2026-01-31 13:06:20,5687014,3067.000,10620.000,4841.000,30.000,-1501.000,-1196.000,0.000,0.000,0
2026-01-31 13:06:21,5687054,2593.000,8050.000,3394.000,-2036.000,-1923.000,-2192.000,0.000,0.000,0
2026-01-31 13:06:21,5687094,2445.000,7223.000,2425.000,-1889.000,-1971.000,-1587.000,0.000,0.000,0
2026-01-31 13:06:21,5687134,2431.000,6674.000,1875.000,-1495.000,-835.000,-399.000,0.000,0.000,0
2026-01-31 13:06:21,5687174,1780.000,5310.000,2154.000,-1736.000,-315.000,-484.000,0.000,0.000,0
2026-01-31 13:06:21,5687214,1187.000,4468.000,2406.000,-979.000,-72.000,-717.000,0.000,0.000,0
2026-01-31 13:06:21,5687254,905.000,5008.000,2590.000,-53.000,219.000,-626.000,0.000,0.000,0
2026-01-31 13:06:21,5687294,564.000,5575.000,2924.000,-149.000,595.000,-173.000,0.000,0.000,0
2026-01-31 13:06:21,5687334,362.000,6601.000,3718.000,-113.000,469.000,454.000,0.000,0.000,0
2026-01-31 13:06:21,5687374,913.000,8065.000,4470.000,-355.000,296.000,775.000,0.000,0.000,0
2026-01-31 13:06:21,5687414,1519.000,8731.000,4893.000,-1671.000,104.000,632.000,0.000,0.000,0
2026-01-31 13:06:21,5687454,1802.000,7959.000,5029.000,-1856.000,-58.000,439.000,0.000,0.000,0
2026-01-31 13:06:21,5687494,2670.000,8812.000,5611.000,-990.000,-180.000,974.000,0.000,0.000,0
2026-01-31 13:06:21,5687534,2933.000,8927.000,5694.000,-248.000,12.000,1733.000,0.000,0.000,0
2026-01-31 13:06:21,5687574,2957.000,7608.000,5280.000,-491.000,-164.000,1115.000,0.000,0.000,0
2026-01-31 13:06:21,5687614,2880.000,6253.000,3926.000,-1729.000,136.000,-351.000,0.000,0.000,0
2026-01-31 13:06:21,5687654,3257.000,5520.000,2958.000,-1209.000,856.000,65.000,0.000,0.000,0
2026-01-31 13:06:21,5687694,2905.000,5376.000,2961.000,1622.000,1257.000,586.000,0.000,0.000,0
2026-01-31 13:06:21,5687734,1660.000,4806.000,3322.000,1422.000,1094.000,1000.000,0.000,0.000,0
2026-01-31 13:06:21,5687774,1259.000,3972.000,3266.000,1758.000,551.000,1071.000,0.000,0.000,0
2026-01-31 13:06:21,5687817,966.000,4506.000,3447.000,1541.000,226.000,895.000,0.000,0.000,0
2026-01-31 13:06:21,5687856,1284.000,5630.000,4231.000,1332.000,66.000,901.000,0.000,0.000,0
2026-01-31 13:06:21,5687894,1372.000,6081.000,4501.000,921.000,119.000,584.000,0.000,0.000,0
2026-01-31 13:06:21,5687934,1555.000,6460.000,4961.000,602.000,80.000,187.000,0.000,0.000,0
2026-01-31 13:06:21,5687974,1764.000,7408.000,5401.000,1067.000,-239.000,-584.000,0.000,0.000,0
2026-01-31 13:06:21,5688014,2073.000,8074.000,5286.000,422.000,-398.000,-1139.000,0.000,0.000,0
