datetime_local,uptime_ms,acc_x,acc_y,acc_z,gyro_x,gyro_y,gyro_z,speed_mps,turn_rate_deg_s,gps_valid
2026-01-31 12:40:14,4120734,1018.000,-1391.000,7140.000,1101.000,-129.000,-1137.000,0.000,0.000,0
2026-01-31 12:40:14,4120774,492.000,-848.000,7304.000,1489.000,4.000,-968.000,0.000,0.000,0
2026-01-31 12:40:14,4120814,470.000,-1145.000,7468.000,165.000,135.000,-264.000,0.000,0.000,0
2026-01-31 12:40:14,4120854,437.000,-1010.000,7762.000,-772.000,314.000,-391.000,0.000,0.000,0
2026-01-31 12:40:14,4120894,367.000,-1802.000,7811.000,-1315.000,38.000,-426.000,0.000,0.000,0
2026-01-31 12:40:14,4120934,388.000,-1876.000,8438.000,-469.000,-463.000,-516.000,0.000,0.000,0
2026-01-31 12:40:14,4120974,699.000,-1547.000,8684.000,370.000,-607.000,-394.000,0.000,0.000,0
2026-01-31 12:40:14,4121014,558.000,-1555.000,8918.000,-195.000,-519.000,-844.000,0.000,0.000,0
2026-01-31 12:40:15,4121054,1021.000,-1316.000,9196.000,25.000,-833.000,-658.000,0.000,0.000,0
2026-01-31 12:40:15,4121094,1574.000,-737.000,9665.000,473.000,-508.000,-750.000,0.000,0.000,0
2026-01-31 12:40:15,4121134,2636.000,-776.000,9671.000,-105.000,-46.000,-1289.000,0.000,0.000,0
2026-01-31 12:40:15,4121174,3111.000,-76.000,8775.000,1832.000,881.000,-750.000,0.000,0.000,0
2026-01-31 12:40:15,4121214,2898.000,934.000,7830.000,2757.000,1960.000,589.000,0.000,0.000,0
2026-01-31 12:40:15,4121254,2495.000,1531.000,7732.000,2116.000,3101.000,2427.000,0.000,0.000,0
2026-01-31 12:40:15,4121294,1746.000,1516.000,7534.000,1057.000,3302.000,2702.000,0.000,0.000,0
2026-01-31 12:40:15,4121334,689.000,-133.000,7474.000,826.000,2437.000,2666.000,0.000,0.000,0
2026-01-31 12:40:15,4121374,-136.000,13.000,7526.000,2074.000,1636.000,2217.000,0.000,0.000,0
2026-01-31 12:40:15,4121414,-228.000,166.000,7497.000,639.000,1178.000,1583.000,0.000,0.000,0
2026-01-31 12:40:15,4121454,-605.000,-1025.000,7364.000,-239.000,1052.000,1505.000,0.000,0.000,0
2026-01-31 12:40:15,4121494,-369.000,-171.000,7611.000,923.000,787.000,1452.000,0.000,0.000,0
2026-01-31 12:40:15,4121534,193.000,-460.000,8176.000,-209.000,786.000,1116.000,0.000,0.000,0
2026-01-31 12:40:15,4121574,-127.000,-1010.000,8586.000,-423.000,449.000,891.000,0.000,0.000,0
2026-01-31 12:40:15,4121614,-294.000,-240.000,8968.000,-357.000,362.000,694.000,0.000,0.000,0
2026-01-31 12:40:15,4121654,-473.000,-483.000,9254.000,-1150.000,287.000,358.000,0.000,0.000,0
2026-01-31 12:40:15,4121694,-544.000,-715.000,9776.000,-704.000,282.000,-218.000,0.000,0.000,0
2026-01-31 12:40:15,4121734,-597.000,-87.000,10462.000,171.000,-25.000,-763.000,0.000,0.000,0
2026-01-31 12:40:15,4121774,-935.000,-23.000,10145.000,650.000,-214.000,-1227.000,0.000,0.000,0
2026-01-31 12:40:15,4121814,-1263.000,457.000,8905.000,493.000,-386.000,-2018.000,0.000,0.000,0
2026-01-31 12:40:15,4121854,-1189.000,776.000,7902.000,280.000,-241.000,-1780.000,0.000,0.000,0
2026-01-31 12:40:15,4121894,-928.000,1762.000,7957.000,806.000,12.000,-928.000,0.000,0.000,0
2026-01-31 12:40:15,4121934,-262.000,1022.000,7687.000,-97.000,249.000,131.000,0.000,0.000,0
2026-01-31 12:40:15,4121974,-651.000,188.000,7184.000,49.000,-1.000,-251.000,0.000,0.000,0
2026-01-31 12:40:15,4122014,-554.000,287.000,7178.000,622.000,-480.000,-862.000,0.000,0.000,0
2026-01-31 12:40:16,4122054,-793.000,-134.000,7170.000,690.000,-577.000,-868.000,0.000,0.000,0
2026-01-31 12:40:16,4122094,-581.000,156.000,7434.000,759.000,-542.000,-536.000,0.000,0.000,0
2026-01-31 12:40:16,4122134,-489.000,64.000,7806.000,33.000,-327.000,-245.000,0.000,0.000,0
2026-01-31 12:40:16,4122174,-739.000,-136.000,8242.000,-331.000,-309.000,5.000,0.000,0.000,0
2026-01-31 12:40:16,4122214,-717.000,-145.000,8549.000,-19.000,-508.000,124.000,0.000,0.000,0
2026-01-31 12:40:16,4122254,-878.000,-360.000,9084.000,151.000,-587.000,-258.000,0.000,0.000,0
2026-01-31 12:40:16,4122294,-625.000,-62.000,9555.000,-112.000,-950.000,-658.000,0.000,0.000,0
2026-01-31 12:40:16,4122334,421.000,354.000,9816.000,288.000,-910.000,-705.000,0.000,0.000,0
2026-01-31 12:40:16,4122374,1044.000,844.000,9768.000,1055.000,-410.000,-860.000,0.000,0.000,0
2026-01-31 12:40:16,4122414,1004.000,1716.000,8822.000,397.000,115.000,-1071.000,0.000,0.000,0
2026-01-31 12:40:16,4122459,1467.000,1832.000,7879.000,-154.000,712.000,-484.000,0.000,0.000,0
2026-01-31 12:40:16,4122494,1476.000,1761.000,7868.000,381.000,1145.000,-60.000,0.000,0.000,0
2026-01-31 12:40:16,4122534,1254.000,1691.000,8394.000,656.000,1615.000,646.000,0.000,0.000,0
2026-01-31 12:40:16,4122574,1031.000,433.000,7841.000,206.000,1622.000,1008.000,0.000,0.000,0
2026-01-31 12:40:16,4122614,471.000,227.000,7331.000,1485.000,1311.000,1107.000,0.000,0.000,0
2026-01-31 12:40:16,4122654,8.000,1005.000,7321.000,1118.000,1074.000,939.000,0.000,0.000,0
2026-01-31 12:40:16,4122694,415.000,70.000,7190.000,-40.000,1098.000,1374.000,0.000,0.000,0
2026-01-31 12:40:16,4122734,212.000,165.000,7613.000,274.000,1146.000,1825.000,0.000,0.000,0
2026-01-31 12:40:16,4122774,93.000,235.000,8006.000,-251.000,843.000,1704.000,0.000,0.000,0
2026-01-31 12:40:16,4122814,-161.000,-351.000,7997.000,-628.000,626.000,1451.000,0.000,0.000,0
2026-01-31 12:40:16,4122854,-745.000,293.000,8749.000,269.000,462.000,1407.000,0.000,0.000,0
2026-01-31 12:40:16,4122894,-870.000,555.000,9471.000,-193.000,148.000,851.000,0.000,0.000,0
2026-01-31 12:40:16,4122934,-543.000,-157.000,9426.000,-666.000,133.000,204.000,0.000,0.000,0
2026-01-31 12:40:16,4122974,-625.000,521.000,10113.000,837.000,238.000,340.000,0.000,0.000,0
2026-01-31 12:40:16,4123014,-1147.000,1420.000,10115.000,2130.000,248.000,607.000,0.000,0.000,0
2026-01-31 12:40:17,4123054,-1329.000,1062.000,8482.000,2496.000,178.000,405.000,0.000,0.000,0
2026-01-31 12:40:17,4123094,-2631.000,3153.000,7332.000,3537.000,-170.000,8.000,0.000,0.000,0
2026-01-31 12:40:17,4123134,-1834.000,3814.000,6595.000,3044.000,-914.000,-139.000,0.000,0.000,0
2026-01-31 12:40:17,4123174,-798.000,3115.000,6676.000,3515.000,-1613.000,-313.000,0.000,0.000,0
2026-01-31 12:40:17,4123214,62.000,3106.000,7350.000,4246.000,-1458.000,-370.000,0.000,0.000,0
2026-01-31 12:40:17,4123254,441.000,3374.000,7177.000,3601.000,-492.000,-927.000,0.000,0.000,0
2026-01-31 12:40:17,4123294,-14.000,1643.000,6786.000,2138.000,217.000,-933.000,0.000,0.000,0
2026-01-31 12:40:17,4123334,-1180.000,1989.000,6689.000,3743.000,242.000,-430.000,0.000,0.000,0
2026-01-31 12:40:17,4123374,-1253.000,3408.000,7482.000,3095.000,-182.000,-84.000,0.000,0.000,0
2026-01-31 12:40:17,4123414,-2531.000,3943.000,7403.000,835.000,-592.000,-70.000,0.000,0.000,0
2026-01-31 12:40:17,4123454,597.000,1789.000,7951.000,-1631.000,-1723.000,-630.000,0.000,0.000,0
2026-01-31 12:40:17,4123494,465.000,2337.000,8539.000,2892.000,-1305.000,-857.000,0.000,0.000,0
2026-01-31 12:40:17,4123534,340.000,5844.000,9127.000,4080.000,-864.000,-661.000,0.000,0.000,0
2026-01-31 12:40:17,4123574,802.000,4801.000,9274.000,1840.000,-755.000,219.000,0.000,0.000,0
2026-01-31 12:40:17,4123614,1174.000,5566.000,8678.000,3938.000,-642.000,446.000,0.000,0.000,0
2026-01-31 12:40:17,4123654,152.000,7418.000,7441.000,3008.000,-621.000,-142.000,0.000,0.000,0
2026-01-31 12:40:17,4123694,1114.000,6168.000,5494.000,-1145.000,104.000,-433.000,0.000,0.000,0
2026-01-31 12:40:17,4123734,642.000,4429.000,4629.000,817.000,1014.000,437.000,0.000,0.000,0
2026-01-31 12:40:17,4123774,1331.000,6398.000,5290.000,3109.000,1820.000,903.000,0.000,0.000,0
2026-01-31 12:40:17,4123814,991.000,5193.000,5256.000,551.000,2162.000,1122.000,0.000,0.000,0
2026-01-31 12:40:17,4123854,-51.000,3456.000,5129.000,1208.000,2031.000,838.000,0.000,0.000,0
2026-01-31 12:40:17,4123894,-351.000,3701.000,5511.000,811.000,1679.000,726.000,0.000,0.000,0
2026-01-31 12:40:17,4123934,-290.000,3282.000,6096.000,294.000,1618.000,920.000,0.000,0.000,0
2026-01-31 12:40:17,4123974,-240.000,4000.000,6270.000,1764.000,1365.000,1017.000,0.000,0.000,0
2026-01-31 12:40:17,4124014,101.000,5224.000,7275.000,1609.000,1522.000,866.000,0.000,0.000,0
2026-01-31 12:40:18,4124054,-1238.000,2362.000,7888.000,1408.000,3067.000,2362.000,0.000,0.000,0
2026-01-31 12:40:18,4124094,662.000,8110.000,8202.000,5488.000,2212.000,1676.000,0.000,0.000,0
2026-01-31 12:40:18,4124134,-1392.000,8448.000,7967.000,188.000,2518.000,1383.000,0.000,0.000,0
2026-01-31 12:40:18,4124174,-3395.000,7565.000,7696.000,-986.000,1831.000,1111.000,0.000,0.000,0
2026-01-31 12:40:18,4124214,-2390.000,6912.000,6714.000,-900.000,1138.000,1506.000,0.000,0.000,0
2026-01-31 12:40:18,4124254,-1392.000,6341.000,5201.000,-1012.000,419.000,1212.000,0.000,0.000,0
2026-01-31 12:40:18,4124294,-1195.000,5546.000,4173.000,-1322.000,159.000,2291.000,0.000,0.000,0
2026-01-31 12:40:18,4124334,-389.000,5474.000,4228.000,956.000,-536.000,3997.000,0.000,0.000,0
2026-01-31 12:40:18,4124374,784.000,6716.000,4668.000,1835.000,-1005.000,4993.000,0.000,0.000,0
2026-01-31 12:40:18,4124414,1573.000,5613.000,4237.000,-985.000,-1005.000,5628.000,0.000,0.000,0
2026-01-31 12:40:18,4124457,2227.000,4037.000,3851.000,-1428.000,-1104.000,5701.000,0.000,0.000,0
2026-01-31 12:40:18,4124496,2854.000,5072.000,4076.000,-300.000,-1111.000,5601.000,0.000,0.000,0
2026-01-31 12:40:18,4124534,2796.000,4941.000,4068.000,-358.000,-1184.000,5503.000,0.000,0.000,0
2026-01-31 12:40:18,4124574,2666.000,4450.000,4199.000,900.000,-1659.000,5521.000,0.000,0.000,0
2026-01-31 12:40:18,4124614,4178.000,6880.000,4854.000,3550.000,-2182.000,6777.000,0.000,0.000,0
2026-01-31 12:40:18,4124654,5163.000,7405.000,4659.000,5213.000,-2179.000,7188.000,0.000,0.000,0
2026-01-31 12:40:18,4124694,5916.000,8091.000,4724.000,6086.000,-2165.000,7356.000,0.000,0.000,0
2026-01-31 12:40:18,4124737,6779.000,8331.000,5101.000,5770.000,-1820.000,7761.000,0.000,0.000,0
2026-01-31 12:40:18,4124774,7038.000,7774.000,5023.000,6527.000,-1758.000,7116.000,0.000,0.000,0
2026-01-31 12:40:18,4124814,6375.000,6124.000,4342.000,6817.000,-1318.000,5006.000,0.000,0.000,0
2026-01-31 12:40:18,4124854,5534.000,5046.000,3514.000,5464.000,-341.000,2523.000,0.000,0.000,0
2026-01-31 12:40:18,4124894,5169.000,4868.000,2615.000,2877.000,500.000,1476.000,0.000,0.000,0
2026-01-31 12:40:18,4124934,5280.000,3987.000,2168.000,1978.000,1698.000,906.000,0.000,0.000,0
2026-01-31 12:40:18,4124974,4898.000,3968.000,1979.000,2866.000,1839.000,564.000,0.000,0.000,0
2026-01-31 12:40:18,4125014,4004.000,3065.000,1864.000,1712.000,981.000,524.000,0.000,0.000,0
2026-01-31 12:40:19,4125054,4183.000,2792.000,1901.000,1935.000,-591.000,721.000,0.000,0.000,0
2026-01-31 12:40:19,4125094,5110.000,3432.000,2585.000,1709.000,-2056.000,1260.000,0.000,0.000,0
2026-01-31 12:40:19,4125134,5700.000,3708.000,2586.000,662.000,-2524.000,1695.000,0.000,0.000,0
2026-01-31 12:40:19,4125174,6477.000,3651.000,2849.000,839.000,-3663.000,1974.000,0.000,0.000,0
2026-01-31 12:40:19,4125214,7100.000,4619.000,3155.000,1892.000,-3704.000,1884.000,0.000,0.000,0
2026-01-31 12:40:19,4125254,7433.000,6031.000,2048.000,1956.000,-4542.000,891.000,0.000,0.000,0
2026-01-31 12:40:19,4125294,8316.000,6223.000,1194.000,-755.000,-5637.000,344.000,0.000,0.000,0
2026-01-31 12:40:19,4125334,8512.000,5989.000,-381.000,-654.000,-6401.000,-634.000,0.000,0.000,0
2026-01-31 12:40:19,4125374,9398.000,6964.000,-543.000,-1334.000,-7410.000,-1713.000,0.000,0.000,0
2026-01-31 12:40:19,4125414,8042.000,7261.000,-2342.000,-1689.000,-7448.000,-3135.000,0.000,0.000,0
2026-01-31 12:40:19,4125454,6957.000,5717.000,-2501.000,-2447.000,-7653.000,-4271.000,0.000,0.000,0
2026-01-31 12:40:19,4125494,5359.000,8149.000,-2413.000,-2318.000,-7158.000,-5416.000,0.000,0.000,0
2026-01-31 12:40:19,4125534,3981.000,5556.000,-3152.000,-3293.000,-5766.000,-5997.000,0.000,0.000,0
2026-01-31 12:40:19,4125574,1065.000,4917.000,-2237.000,-236.000,-4561.000,-7349.000,0.000,0.000,0
2026-01-31 12:40:19,4125614,1858.000,3515.000,-1138.000,-554.000,-3136.000,-6477.000,0.000,0.000,0
2026-01-31 12:40:19,4125654,1098.000,3070.000,-1281.000,-569.000,-1703.000,-5440.000,0.000,0.000,0
2026-01-31 12:40:19,4125694,3235.000,4430.000,-697.000,767.000,-1111.000,-3385.000,0.000,0.000,0
2026-01-31 12:40:19,4125734,3715.000,5610.000,-223.000,-292.000,-570.000,-1159.000,0.000,0.000,0
2026-01-31 12:40:19,4125774,3658.000,8972.000,706.000,19.000,-756.000,747.000,0.000,0.000,0
2026-01-31 12:40:19,4125814,264.000,8494.000,-661.000,-3117.000,1235.000,104.000,0.000,0.000,0
2026-01-31 12:40:19,4125854,1660.000,9193.000,-858.000,-981.000,936.000,-1693.000,0.000,0.000,0
2026-01-31 12:40:19,4125894,3064.000,8198.000,-2815.000,-2455.000,746.000,-2176.000,0.000,0.000,0
2026-01-31 12:40:19,4125934,4081.000,9243.000,-4486.000,-1674.000,-92.000,-372.000,0.000,0.000,0
2026-01-31 12:40:19,4125974,8786.000,7427.000,-4296.000,-3.000,-1088.000,1161.000,0.000,0.000,0
2026-01-31 12:40:19,4126014,7377.000,8175.000,-3624.000,-868.000,-186.000,2252.000,0.000,0.000,0
2026-01-31 12:40:20,4126054,4242.000,6726.000,-4041.000,-2417.000,-281.000,3059.000,0.000,0.000,0
2026-01-31 12:40:20,4126094,4161.000,5418.000,-1436.000,-929.000,-1159.000,3230.000,0.000,0.000,0
2026-01-31 12:40:20,4126134,703.000,5485.000,-2529.000,-388.000,-2713.000,3271.000,0.000,0.000,0
2026-01-31 12:40:20,4126174,-3631.000,1010.000,-2123.000,6899.000,-3305.000,2433.000,0.000,0.000,0
2026-01-31 12:40:20,4126214,-7584.000,7515.000,-5676.000,13450.000,-2667.000,693.000,0.000,0.000,0
2026-01-31 12:40:20,4126254,-10489.000,552.000,-5905.000,292.000,-7119.000,2442.000,0.000,0.000,0
2026-01-31 12:40:20,4126294,-1024.000,9317.000,-5685.000,-178.000,-12289.000,3437.000,0.000,0.000,0
2026-01-31 12:40:20,4126334,12.000,8438.000,-2004.000,-11271.000,-13918.000,4846.000,0.000,0.000,0
2026-01-31 12:40:20,4126374,11830.000,-2744.000,-501.000,-11179.000,-9270.000,11796.000,0.000,0.000,0
2026-01-31 12:40:20,4126414,16831.000,-572.000,-136.000,3473.000,-4205.000,8548.000,0.000,0.000,0
2026-01-31 12:40:20,4126454,9208.000,5529.000,-1895.000,15104.000,4244.000,6432.000,0.000,0.000,0
2026-01-31 12:40:20,4126494,10516.000,2651.000,-9296.000,14036.000,5767.000,5188.000,0.000,0.000,0
2026-01-31 12:40:20,4126534,7804.000,-473.000,-13795.000,19387.000,4070.000,2320.000,0.000,0.000,0
2026-01-31 12:40:20,4126574,5400.000,-1511.000,-12610.000,26803.000,1971.000,-4105.000,0.000,0.000,0
2026-01-31 12:40:20,4126614,4351.000,-2335.000,-14341.000,32654.000,1582.000,-7004.000,0.000,0.000,0
2026-01-31 12:40:20,4126654,4904.000,-2892.000,-7374.000,32711.000,2631.000,-5843.000,0.000,0.000,0
2026-01-31 12:40:20,4126694,5786.000,-8424.000,-4919.000,27557.000,2497.000,-353.000,0.000,0.000,0
2026-01-31 12:40:20,4126737,6277.000,-4970.000,-1883.000,22711.000,491.000,-475.000,0.000,0.000,0
2026-01-31 12:40:20,4126774,4356.000,-5983.000,-1371.000,21349.000,577.000,-894.000,0.000,0.000,0
2026-01-31 12:40:20,4126814,4434.000,-2492.000,262.000,20122.000,832.000,-855.000,0.000,0.000,0
2026-01-31 12:40:20,4126854,2895.000,-317.000,-1091.000,19764.000,298.000,-4928.000,0.000,0.000,0
2026-01-31 12:40:20,4126894,6665.000,-1409.000,-2284.000,12111.000,964.000,-3443.000,0.000,0.000,0
2026-01-31 12:40:20,4126934,6117.000,-33.000,853.000,9714.000,-2837.000,-10207.000,0.000,0.000,0
2026-01-31 12:40:20,4126974,8544.000,2861.000,-2668.000,5584.000,-4135.000,-7541.000,0.000,0.000,0
2026-01-31 12:40:20,4127014,10029.000,1679.000,1915.000,-963.000,-6661.000,-8375.000,0.000,0.000,0
2026-01-31 12:40:21,4127054,10813.000,1434.000,518.000,-10854.000,-5864.000,-5980.000,0.000,0.000,0
2026-01-31 12:40:21,4127094,12261.000,742.000,1821.000,-27692.000,-59.000,-10630.000,0.000,0.000,0
2026-01-31 12:40:21,4127134,7557.000,-4338.000,674.000,-31406.000,4264.000,-9165.000,0.000,0.000,0
2026-01-31 12:40:21,4127174,3467.000,-9595.000,-2574.000,-12862.000,-1681.000,-2450.000,0.000,0.000,0
2026-01-31 12:40:21,4127214,6528.000,-9804.000,-1980.000,-154.000,-7604.000,5388.000,0.000,0.000,0
2026-01-31 12:40:21,4127254,12465.000,-1134.000,-1540.000,-1115.000,-17179.000,-9405.000,0.000,0.000,0
2026-01-31 12:40:21,4127294,14124.000,-19909.000,-4481.000,-9457.000,-12052.000,15378.000,0.000,0.000,0
2026-01-31 12:40:21,4127334,12730.000,-1613.000,4680.000,26131.000,-5859.000,10723.000,0.000,0.000,0
2026-01-31 12:40:21,4127374,10391.000,3031.000,1486.000,22353.000,2440.000,7695.000,0.000,0.000,0
2026-01-31 12:40:21,4127414,6952.000,-198.000,-3809.000,14844.000,9303.000,1340.000,0.000,0.000,0
2026-01-31 12:40:21,4127454,3425.000,4213.000,-7792.000,30653.000,7082.000,624.000,0.000,0.000,0
2026-01-31 12:40:21,4127494,6358.000,10116.000,-5460.000,25064.000,-3229.000,-6662.000,0.000,0.000,0
2026-01-31 12:40:21,4127534,5929.000,2846.000,-6234.000,709.000,-3459.000,-10238.000,0.000,0.000,0
2026-01-31 12:40:21,4127574,11981.000,5242.000,1211.000,-2765.000,-8415.000,-10623.000,0.000,0.000,0
2026-01-31 12:40:21,4127614,8452.000,1226.000,1631.000,-12074.000,-6845.000,-10525.000,0.000,0.000,0
2026-01-31 12:40:21,4127654,11107.000,-3919.000,1232.000,-12247.000,-6280.000,-7227.000,0.000,0.000,0
2026-01-31 12:40:21,4127694,9967.000,-7848.000,10470.000,-11666.000,-14217.000,4452.000,0.000,0.000,0
2026-01-31 12:40:21,4127734,10860.000,6809.000,-2833.000,-20941.000,-13879.000,7924.000,0.000,0.000,0
2026-01-31 12:40:21,4127774,4140.000,-13329.000,-14525.000,32721.000,-16675.000,12622.000,0.000,0.000,0
2026-01-31 12:40:21,4127814,1114.000,-8545.000,-6114.000,-15884.000,-10951.000,16964.000,0.000,0.000,0
2026-01-31 12:40:21,4127854,9524.000,5468.000,-4682.000,-8489.000,-12903.000,5437.000,0.000,0.000,0
2026-01-31 12:40:21,4127894,-39.000,5690.000,-10914.000,-31659.000,-14566.000,9358.000,0.000,0.000,0
2026-01-31 12:40:21,4127934,7811.000,-8989.000,-10610.000,-32070.000,-12008.000,5937.000,0.000,0.000,0
2026-01-31 12:40:21,4127974,1001.000,-5730.000,-3449.000,6013.000,-5302.000,-2524.000,0.000,0.000,0
2026-01-31 12:40:21,4128014,4544.000,616.000,-2687.000,-1552.000,-5018.000,4302.000,0.000,0.000,0
2026-01-31 12:40:22,4128054,6838.000,508.000,-4364.000,12211.000,-688.000,3202.000,0.000,0.000,0
2026-01-31 12:40:22,4128094,1901.000,-3040.000,-6723.000,16505.000,3351.000,1011.000,0.000,0.000,0
2026-01-31 12:40:22,4128134,6062.000,-3493.000,-15825.000,31697.000,2080.000,-4412.000,0.000,0.000,0
2026-01-31 12:40:22,4128174,4088.000,-773.000,-11634.000,32713.000,7132.000,-5182.000,0.000,0.000,0
2026-01-31 12:40:22,4128214,3223.000,-7928.000,-5997.000,30747.000,2131.000,1254.000,0.000,0.000,0
2026-01-31 12:40:22,4128254,7434.000,-2510.000,-2854.000,31465.000,-256.000,-2797.000,0.000,0.000,0
2026-01-31 12:40:22,4128294,5322.000,-2634.000,-1818.000,13496.000,-179.000,501.000,0.000,0.000,0
2026-01-31 12:40:22,4128334,6428.000,3259.000,6337.000,21135.000,-2761.000,-8734.000,0.000,0.000,0
2026-01-31 12:40:22,4128377,7456.000,6645.000,5270.000,11313.000,-2318.000,-16487.000,0.000,0.000,0
2026-01-31 12:40:22,4128417,12720.000,-790.000,8699.000,-3503.000,-2826.000,-20266.000,0.000,0.000,0
2026-01-31 12:40:22,4128454,8037.000,5187.000,1864.000,-4609.000,-2006.000,-18185.000,0.000,0.000,0
2026-01-31 12:40:22,4128494,16644.000,9021.000,1302.000,-22446.000,-4189.000,-18474.000,0.000,0.000,0
2026-01-31 12:40:22,4128534,10065.000,-6822.000,-1733.000,-31870.000,7219.000,-6422.000,0.000,0.000,0
2026-01-31 12:40:22,4128574,6319.000,1964.000,5778.000,-9366.000,8051.000,-6308.000,0.000,0.000,0
2026-01-31 12:40:22,4128614,10704.000,5070.000,2319.000,-14855.000,7812.000,-6555.000,0.000,0.000,0
2026-01-31 12:40:22,4128654,4109.000,2120.000,4674.000,-6736.000,8754.000,-7806.000,0.000,0.000,0
2026-01-31 12:40:22,4128694,6490.000,7711.000,7364.000,-6782.000,9491.000,-9185.000,0.000,0.000,0
2026-01-31 12:40:22,4128734,3183.000,2813.000,6316.000,-8303.000,10184.000,-9927.000,0.000,0.000,0
2026-01-31 12:40:22,4128774,3408.000,8625.000,10077.000,-6094.000,8071.000,-12142.000,0.000,0.000,0
2026-01-31 12:40:22,4128814,4618.000,4270.000,12079.000,-10884.000,5943.000,-14179.000,0.000,0.000,0
2026-01-31 12:40:22,4128854,6931.000,4344.000,11817.000,-14216.000,3497.000,-15755.000,0.000,0.000,0
2026-01-31 12:40:22,4128894,6111.000,-214.000,9824.000,-14852.000,1269.000,-17870.000,0.000,0.000,0
2026-01-31 12:40:22,4128934,5735.000,1250.000,7867.000,-14067.000,233.000,-16368.000,0.000,0.000,0
2026-01-31 12:40:22,4128974,6526.000,479.000,6418.000,-15048.000,-654.000,-13380.000,0.000,0.000,0
2026-01-31 12:40:22,4129014,3269.000,1504.000,3967.000,-14819.000,654.000,-10038.000,0.000,0.000,0
2026-01-31 12:40:23,4129054,3238.000,617.000,3129.000,-12080.000,1801.000,-5405.000,0.000,0.000,0
2026-01-31 12:40:23,4129094,3975.000,630.000,3974.000,-10869.000,3881.000,-2935.000,0.000,0.000,0
2026-01-31 12:40:23,4129134,4296.000,-3261.000,2547.000,-8349.000,5770.000,-2013.000,0.000,0.000,0
2026-01-31 12:40:23,4129174,-1504.000,-7893.000,2270.000,-4267.000,6595.000,-7184.000,0.000,0.000,0
2026-01-31 12:40:23,4129214,4959.000,-6855.000,3982.000,-5643.000,4603.000,-6973.000,0.000,0.000,0
2026-01-31 12:40:23,4129254,8000.000,-3966.000,6337.000,-1233.000,3561.000,-9652.000,0.000,0.000,0
2026-01-31 12:40:23,4129294,6979.000,-6226.000,3725.000,-8082.000,789.000,-9945.000,0.000,0.000,0
2026-01-31 12:40:23,4129334,5148.000,-2314.000,2048.000,-6512.000,2173.000,-6516.000,0.000,0.000,0
2026-01-31 12:40:23,4129374,2749.000,-4848.000,-1156.000,-6539.000,4454.000,-2660.000,0.000,0.000,0
2026-01-31 12:40:23,4129414,550.000,-2271.000,-850.000,157.000,5324.000,57.000,0.000,0.000,0
2026-01-31 12:40:23,4129454,1947.000,-1090.000,-773.000,1140.000,6439.000,2424.000,0.000,0.000,0
2026-01-31 12:40:23,4129494,2641.000,-2421.000,-191.000,1323.000,6580.000,4081.000,0.000,0.000,0
2026-01-31 12:40:23,4129534,4088.000,-3588.000,1812.000,2880.000,5454.000,4174.000,0.000,0.000,0
2026-01-31 12:40:23,4129574,2870.000,-4500.000,6131.000,4546.000,3836.000,744.000,0.000,0.000,0
2026-01-31 12:40:23,4129614,5877.000,-4956.000,8072.000,5627.000,3064.000,-417.000,0.000,0.000,0
2026-01-31 12:40:23,4129654,8632.000,-5763.000,9458.000,7157.000,5190.000,-2091.000,0.000,0.000,0
2026-01-31 12:40:23,4129694,8671.000,-6597.000,9255.000,11820.000,9166.000,-1680.000,0.000,0.000,0
2026-01-31 12:40:23,4129734,7041.000,-1485.000,10760.000,18755.000,12663.000,-2044.000,0.000,0.000,0
2026-01-31 12:40:23,4129774,3672.000,2386.000,8852.000,21455.000,16031.000,-4027.000,0.000,0.000,0
2026-01-31 12:40:23,4129814,-2960.000,6254.000,7267.000,20544.000,18479.000,-7031.000,0.000,0.000,0
2026-01-31 12:40:23,4129854,-6914.000,6225.000,5061.000,13538.000,20653.000,-9488.000,0.000,0.000,0
2026-01-31 12:40:23,4129894,-8162.000,3518.000,3898.000,4958.000,20268.000,-11373.000,0.000,0.000,0
2026-01-31 12:40:23,4129934,-8031.000,2258.000,2352.000,-1229.000,15044.000,-11946.000,0.000,0.000,0
2026-01-31 12:40:23,4129974,-8943.000,-2376.000,-371.000,-6991.000,7541.000,-11909.000,0.000,0.000,0
2026-01-31 12:40:23,4130014,-7424.000,-2769.000,787.000,-4401.000,2179.000,-11828.000,0.000,0.000,0
2026-01-31 12:40:24,4130054,-5386.000,-6034.000,2235.000,-4881.000,-346.000,-8523.000,0.000,0.000,0
2026-01-31 12:40:24,4130094,-6121.000,-3938.000,2464.000,-2111.000,628.000,-1442.000,0.000,0.000,0
2026-01-31 12:40:24,4130134,-10369.000,-607.000,1654.000,-2592.000,-1512.000,-1061.000,0.000,0.000,0
2026-01-31 12:40:24,4130174,-6101.000,-2911.000,2673.000,-3869.000,-2697.000,-1478.000,0.000,0.000,0
2026-01-31 12:40:24,4130214,-9529.000,-1524.000,2990.000,-4826.000,-984.000,-297.000,0.000,0.000,0
2026-01-31 12:40:24,4130254,-7332.000,-3061.000,2297.000,-5146.000,-2222.000,-361.000,0.000,0.000,0
2026-01-31 12:40:24,4130294,-8361.000,-1607.000,3195.000,-4632.000,-2375.000,1581.000,0.000,0.000,0
2026-01-31 12:40:24,4130334,-8187.000,-149.000,5105.000,-5233.000,-3824.000,3968.000,0.000,0.000,0
2026-01-31 12:40:24,4130377,-9686.000,-1103.000,3650.000,-7859.000,-3582.000,5351.000,0.000,0.000,0
2026-01-31 12:40:24,4130417,-10362.000,145.000,1195.000,-9600.000,-3867.000,5811.000,0.000,0.000,0
2026-01-31 12:40:24,4130454,-10878.000,-1277.000,-336.000,-10379.000,-4037.000,5059.000,0.000,0.000,0
2026-01-31 12:40:24,4130494,-7519.000,-2737.000,-1094.000,-6981.000,-6020.000,2459.000,0.000,0.000,0
2026-01-31 12:40:24,4130534,-5300.000,-5438.000,159.000,-8435.000,-7000.000,1208.000,0.000,0.000,0
2026-01-31 12:40:24,4130574,-4739.000,-611.000,-172.000,-3220.000,-7153.000,2692.000,0.000,0.000,0
2026-01-31 12:40:24,4130614,-2713.000,344.000,188.000,-5512.000,-6045.000,3847.000,0.000,0.000,0
2026-01-31 12:40:24,4130654,-1871.000,-1601.000,421.000,-2540.000,-5229.000,6704.000,0.000,0.000,0
2026-01-31 12:40:24,4130694,-2529.000,-933.000,-837.000,-280.000,-6675.000,11231.000,0.000,0.000,0
2026-01-31 12:40:24,4130737,-5911.000,866.000,-3690.000,23446.000,-9385.000,15433.000,0.000,0.000,0
2026-01-31 12:40:24,4130774,-7189.000,7643.000,3478.000,29869.000,-7249.000,16713.000,0.000,0.000,0
2026-01-31 12:40:24,4130814,-17485.000,24392.000,13143.000,17137.000,1588.000,11718.000,0.000,0.000,0
2026-01-31 12:40:24,4130854,-17516.000,5593.000,13882.000,-1514.000,4088.000,-5022.000,0.000,0.000,0
2026-01-31 12:40:24,4130894,-14156.000,7511.000,8617.000,2395.000,4437.000,-12794.000,0.000,0.000,0
2026-01-31 12:40:24,4130934,-12464.000,9871.000,2618.000,608.000,1233.000,-16612.000,0.000,0.000,0
2026-01-31 12:40:24,4130974,-7171.000,5839.000,1350.000,248.000,-2443.000,-17896.000,0.000,0.000,0
2026-01-31 12:40:24,4131014,-3160.000,4173.000,725.000,1311.000,-5278.000,-15123.000,0.000,0.000,0
2026-01-31 12:40:25,4131054,-360.000,2020.000,194.000,2937.000,-6882.000,-11142.000,0.000,0.000,0
2026-01-31 12:40:25,4131094,862.000,1083.000,-651.000,4003.000,-6643.000,-6033.000,0.000,0.000,0
2026-01-31 12:40:25,4131134,-891.000,2684.000,486.000,6787.000,-3458.000,-254.000,0.000,0.000,0
2026-01-31 12:40:25,4131174,-3191.000,3455.000,1257.000,5188.000,-1335.000,2732.000,0.000,0.000,0
2026-01-31 12:40:25,4131214,-4006.000,1300.000,2472.000,5916.000,-78.000,4884.000,0.000,0.000,0
2026-01-31 12:40:25,4131254,-4631.000,2305.000,4750.000,7040.000,793.000,7612.000,0.000,0.000,0
2026-01-31 12:40:25,4131294,-5960.000,3362.000,4663.000,7094.000,705.000,11769.000,0.000,0.000,0
2026-01-31 12:40:25,4131334,-3685.000,3326.000,2936.000,9377.000,90.000,17759.000,0.000,0.000,0
2026-01-31 12:40:25,4131374,-557.000,8467.000,2212.000,14418.000,-1591.000,23219.000,0.000,0.000,0
2026-01-31 12:40:25,4131414,-458.000,14807.000,5083.000,13054.000,-3983.000,21613.000,0.000,0.000,0
2026-01-31 12:40:25,4131454,1071.000,13812.000,5894.000,-459.000,-4771.000,17292.000,0.000,0.000,0
2026-01-31 12:40:25,4131494,3498.000,6565.000,1494.000,-22224.000,-6005.000,16202.000,0.000,0.000,0
2026-01-31 12:40:25,4131534,4485.000,4166.000,905.000,-23845.000,-11969.000,12198.000,0.000,0.000,0
2026-01-31 12:40:25,4131574,6331.000,-4556.000,1449.000,-16186.000,-13700.000,8578.000,0.000,0.000,0
2026-01-31 12:40:25,4131614,6949.000,-4694.000,1584.000,6300.000,-10724.000,7850.000,0.000,0.000,0
2026-01-31 12:40:25,4131654,8584.000,5513.000,1367.000,21514.000,-5170.000,6704.000,0.000,0.000,0
2026-01-31 12:40:25,4131694,6922.000,7672.000,3477.000,10314.000,-2413.000,6987.000,0.000,0.000,0
2026-01-31 12:40:25,4131734,7449.000,2998.000,3849.000,-427.000,-3911.000,6204.000,0.000,0.000,0
2026-01-31 12:40:25,4131774,8908.000,2660.000,4522.000,-1097.000,-4602.000,2973.000,0.000,0.000,0
2026-01-31 12:40:25,4131814,9052.000,2243.000,3714.000,136.000,-3904.000,629.000,0.000,0.000,0
2026-01-31 12:40:25,4131854,9294.000,2219.000,2311.000,1656.000,-2413.000,-955.000,0.000,0.000,0
2026-01-31 12:40:25,4131894,11255.000,3380.000,2211.000,2802.000,-374.000,-1001.000,0.000,0.000,0
2026-01-31 12:40:25,4131934,10784.000,3933.000,2799.000,1473.000,67.000,-550.000,0.000,0.000,0
2026-01-31 12:40:25,4131974,10278.000,3299.000,2512.000,-1257.000,1255.000,-1539.000,0.000,0.000,0
2026-01-31 12:40:25,4132014,10381.000,2345.000,1640.000,-2611.000,2525.000,-2029.000,0.000,0.000,0
2026-01-31 12:40:26,4132054,9590.000,1959.000,1404.000,-1761.000,3017.000,-1839.000,0.000,0.000,0
2026-01-31 12:40:26,4132094,8253.000,1777.000,1551.000,-1367.000,3292.000,-2450.000,0.000,0.000,0
2026-01-31 12:40:26,4132134,7090.000,1148.000,1095.000,-2667.000,3707.000,-3439.000,0.000,0.000,0
2026-01-31 12:40:26,4132174,6631.000,724.000,135.000,-2642.000,4354.000,-3939.000,0.000,0.000,0
2026-01-31 12:40:26,4132214,6081.000,439.000,-388.000,-448.000,5010.000,-3798.000,0.000,0.000,0
2026-01-31 12:40:26,4132254,5303.000,1155.000,-121.000,3442.000,5143.000,-2955.000,0.000,0.000,0
2026-01-31 12:40:26,4132294,5707.000,1935.000,196.000,4531.000,4760.000,-1615.000,0.000,0.000,0
2026-01-31 12:40:26,4132334,7190.000,2641.000,775.000,5056.000,4073.000,662.000,0.000,0.000,0
2026-01-31 12:40:26,4132374,7557.000,2807.000,1770.000,5172.000,2981.000,3051.000,0.000,0.000,0
2026-01-31 12:40:26,4132417,9654.000,2880.000,2522.000,4560.000,1308.000,5941.000,0.000,0.000,0
2026-01-31 12:40:26,4132454,10251.000,2841.000,3159.000,4583.000,675.000,7284.000,0.000,0.000,0
2026-01-31 12:40:26,4132494,9699.000,2582.000,4014.000,2955.000,-937.000,7422.000,0.000,0.000,0
2026-01-31 12:40:26,4132534,10117.000,455.000,3271.000,1995.000,-665.000,4241.000,0.000,0.000,0
2026-01-31 12:40:26,4132574,8376.000,1920.000,2396.000,3416.000,1498.000,4090.000,0.000,0.000,0
2026-01-31 12:40:26,4132614,4579.000,1359.000,1050.000,7237.000,1706.000,5060.000,0.000,0.000,0
2026-01-31 12:40:26,4132654,3201.000,5950.000,3285.000,14838.000,685.000,2595.000,0.000,0.000,0
2026-01-31 12:40:26,4132694,2938.000,5665.000,4058.000,11086.000,828.000,1667.000,0.000,0.000,0
2026-01-31 12:40:26,4132737,3321.000,6380.000,2884.000,7840.000,-1605.000,293.000,0.000,0.000,0
2026-01-31 12:40:26,4132774,3887.000,5874.000,2758.000,4374.000,-2630.000,337.000,0.000,0.000,0
2026-01-31 12:40:26,4132814,5344.000,4840.000,2016.000,-63.000,-4775.000,823.000,0.000,0.000,0
2026-01-31 12:40:26,4132854,7739.000,7398.000,2602.000,-2620.000,-6189.000,-93.000,0.000,0.000,0
2026-01-31 12:40:26,4132894,14597.000,204.000,3743.000,-8746.000,-4148.000,-1308.000,0.000,0.000,0
2026-01-31 12:40:26,4132934,8603.000,-2465.000,3077.000,4981.000,1643.000,-1903.000,0.000,0.000,0
2026-01-31 12:40:26,4132974,12531.000,7576.000,4055.000,11571.000,106.000,841.000,0.000,0.000,0
2026-01-31 12:40:26,4133014,6117.000,157.000,-1163.000,-3354.000,967.000,3600.000,0.000,0.000,0
2026-01-31 12:40:27,4133054,7135.000,2488.000,-2549.000,1250.000,-356.000,2991.000,0.000,0.000,0
2026-01-31 12:40:27,4133094,7576.000,498.000,-3327.000,-30.000,-107.000,3928.000,0.000,0.000,0
2026-01-31 12:40:27,4133134,7663.000,1144.000,-1941.000,-1427.000,-1432.000,1876.000,0.000,0.000,0
2026-01-31 12:40:27,4133174,7785.000,806.000,426.000,-1614.000,-1597.000,387.000,0.000,0.000,0
2026-01-31 12:40:27,4133214,8176.000,1579.000,1367.000,-1040.000,-871.000,637.000,0.000,0.000,0
2026-01-31 12:40:27,4133254,8057.000,848.000,-57.000,509.000,-41.000,774.000,0.000,0.000,0
2026-01-31 12:40:27,4133294,8132.000,809.000,-314.000,2110.000,87.000,-63.000,0.000,0.000,0
2026-01-31 12:40:27,4133334,7587.000,1036.000,117.000,1379.000,18.000,-291.000,0.000,0.000,0
2026-01-31 12:40:27,4133374,7495.000,948.000,-54.000,2122.000,-4.000,-171.000,0.000,0.000,0
2026-01-31 12:40:27,4133414,7848.000,2284.000,1060.000,3349.000,719.000,394.000,0.000,0.000,0
2026-01-31 12:40:27,4133454,8267.000,1996.000,196.000,2873.000,1209.000,442.000,0.000,0.000,0
2026-01-31 12:40:27,4133494,8698.000,3656.000,201.000,4094.000,1122.000,408.000,0.000,0.000,0
2026-01-31 12:40:27,4133534,10077.000,3323.000,976.000,2561.000,1075.000,605.000,0.000,0.000,0
2026-01-31 12:40:27,4133574,12058.000,3368.000,1864.000,1025.000,1492.000,298.000,0.000,0.000,0
2026-01-31 12:40:27,4133614,10201.000,2299.000,2127.000,-926.000,2081.000,-650.000,0.000,0.000,0
2026-01-31 12:40:27,4133654,7844.000,1514.000,1224.000,-685.000,3339.000,-2400.000,0.000,0.000,0
2026-01-31 12:40:27,4133694,8116.000,888.000,-9.000,-1379.000,4617.000,-3362.000,0.000,0.000,0
2026-01-31 12:40:27,4133734,7786.000,-555.000,-1236.000,-736.000,5020.000,-2422.000,0.000,0.000,0
2026-01-31 12:40:27,4133774,5701.000,1521.000,-460.000,3126.000,4061.000,-1942.000,0.000,0.000,0
2026-01-31 12:40:27,4133814,4505.000,2177.000,127.000,1792.000,1923.000,-1107.000,0.000,0.000,0
2026-01-31 12:40:27,4133854,4139.000,1092.000,370.000,-133.000,579.000,-481.000,0.000,0.000,0
2026-01-31 12:40:27,4133894,4340.000,958.000,1317.000,1965.000,-557.000,220.000,0.000,0.000,0
2026-01-31 12:40:27,4133934,5763.000,3144.000,2648.000,4104.000,-1090.000,-81.000,0.000,0.000,0
2026-01-31 12:40:27,4133974,5465.000,3245.000,3165.000,681.000,-1600.000,122.000,0.000,0.000,0
2026-01-31 12:40:27,4134014,6931.000,2562.000,2659.000,54.000,-2222.000,387.000,0.000,0.000,0
2026-01-31 12:40:28,4134054,10076.000,3246.000,5059.000,1360.000,-1043.000,-188.000,0.000,0.000,0
2026-01-31 12:40:28,4134094,10926.000,3605.000,6142.000,2710.000,3538.000,-2795.000,0.000,0.000,0
2026-01-31 12:40:28,4134134,10717.000,5263.000,2933.000,6417.000,3926.000,-5219.000,0.000,0.000,0
2026-01-31 12:40:28,4134174,8319.000,4181.000,1526.000,-696.000,1768.000,-1940.000,0.000,0.000,0
2026-01-31 12:40:28,4134214,6995.000,1598.000,84.000,-3301.000,1294.000,-866.000,0.000,0.000,0
2026-01-31 12:40:28,4134254,7583.000,1000.000,-982.000,-1427.000,1019.000,-18.000,0.000,0.000,0
2026-01-31 12:40:28,4134294,7352.000,1777.000,-925.000,2556.000,974.000,1305.000,0.000,0.000,0
2026-01-31 12:40:28,4134334,6839.000,2880.000,-281.000,3869.000,715.000,2455.000,0.000,0.000,0
2026-01-31 12:40:28,4134374,6511.000,2640.000,379.000,2606.000,359.000,2870.000,0.000,0.000,0
2026-01-31 12:40:28,4134414,6439.000,2387.000,746.000,2284.000,306.000,2250.000,0.000,0.000,0
2026-01-31 12:40:28,4134457,6369.000,2063.000,882.000,1590.000,894.000,2032.000,0.000,0.000,0
2026-01-31 12:40:28,4134497,6990.000,2201.000,941.000,1956.000,1159.000,2866.000,0.000,0.000,0
2026-01-31 12:40:28,4134537,7737.000,2949.000,1451.000,4070.000,747.000,3854.000,0.000,0.000,0
2026-01-31 12:40:28,4134574,8304.000,3473.000,1539.000,4362.000,634.000,3911.000,0.000,0.000,0
2026-01-31 12:40:28,4134614,9497.000,3335.000,1240.000,3455.000,721.000,4354.000,0.000,0.000,0
2026-01-31 12:40:28,4134654,9374.000,2696.000,940.000,3574.000,1113.000,4177.000,0.000,0.000,0
2026-01-31 12:40:28,4134694,11393.000,3081.000,681.000,4568.000,1329.000,4005.000,0.000,0.000,0
2026-01-31 12:40:28,4134737,9611.000,1930.000,2031.000,7239.000,1452.000,4492.000,0.000,0.000,0
2026-01-31 12:40:28,4134776,8104.000,1410.000,2495.000,7272.000,1427.000,3133.000,0.000,0.000,0
2026-01-31 12:40:28,4134814,7055.000,698.000,2128.000,5034.000,1728.000,-288.000,0.000,0.000,0
2026-01-31 12:40:28,4134854,6501.000,-462.000,1142.000,3310.000,2610.000,-1589.000,0.000,0.000,0
2026-01-31 12:40:28,4134894,5476.000,-415.000,752.000,5156.000,2916.000,-1657.000,0.000,0.000,0
2026-01-31 12:40:28,4134934,4694.000,1424.000,1604.000,8003.000,2785.000,-754.000,0.000,0.000,0
2026-01-31 12:40:28,4134974,4462.000,1998.000,2168.000,7047.000,2352.000,-3.000,0.000,0.000,0
2026-01-31 12:40:28,4135014,4758.000,2051.000,2843.000,5466.000,999.000,842.000,0.000,0.000,0
2026-01-31 12:40:29,4135054,5395.000,1938.000,3595.000,3915.000,-701.000,1662.000,0.000,0.000,0
2026-01-31 12:40:29,4135094,6526.000,2135.000,3890.000,2217.000,-2128.000,2185.000,0.000,0.000,0
2026-01-31 12:40:29,4135134,7197.000,1631.000,3820.000,-84.000,-3057.000,2463.000,0.000,0.000,0
2026-01-31 12:40:29,4135174,7939.000,1444.000,3568.000,-1038.000,-3349.000,2057.000,0.000,0.000,0
2026-01-31 12:40:29,4135214,8751.000,1035.000,2981.000,-190.000,-2786.000,1296.000,0.000,0.000,0
2026-01-31 12:40:29,4135254,10702.000,1445.000,2245.000,2386.000,-1659.000,201.000,0.000,0.000,0
2026-01-31 12:40:29,4135294,11525.000,2306.000,1972.000,4388.000,-430.000,363.000,0.000,0.000,0
2026-01-31 12:40:29,4135334,8914.000,2658.000,1641.000,4341.000,2017.000,-936.000,0.000,0.000,0
2026-01-31 12:40:29,4135374,9434.000,2736.000,1065.000,2419.000,2686.000,-2074.000,0.000,0.000,0
2026-01-31 12:40:29,4135414,8960.000,1888.000,860.000,1396.000,3102.000,-2249.000,0.000,0.000,0
2026-01-31 12:40:29,4135454,7421.000,1964.000,1341.000,2042.000,3298.000,-3157.000,0.000,0.000,0
2026-01-31 12:40:29,4135494,6388.000,1766.000,1372.000,872.000,3157.000,-3856.000,0.000,0.000,0
2026-01-31 12:40:29,4135534,5730.000,1730.000,998.000,488.000,2862.000,-3654.000,0.000,0.000,0
2026-01-31 12:40:29,4135574,5380.000,2105.000,785.000,1125.000,2328.000,-2556.000,0.000,0.000,0
2026-01-31 12:40:29,4135614,6048.000,2223.000,783.000,1597.000,1976.000,-1169.000,0.000,0.000,0
2026-01-31 12:40:29,4135654,6094.000,2788.000,1092.000,1476.000,1477.000,-56.000,0.000,0.000,0
2026-01-31 12:40:29,4135694,7432.000,2659.000,1648.000,-191.000,121.000,2201.000,0.000,0.000,0
2026-01-31 12:40:29,4135734,8821.000,2752.000,2019.000,208.000,-413.000,2906.000,0.000,0.000,0
2026-01-31 12:40:29,4135774,8729.000,3124.000,2384.000,-551.000,-637.000,3072.000,0.000,0.000,0
2026-01-31 12:40:29,4135814,10109.000,2585.000,2440.000,-861.000,-824.000,3850.000,0.000,0.000,0
2026-01-31 12:40:29,4135854,10527.000,2127.000,2838.000,1995.000,-1178.000,5156.000,0.000,0.000,0
2026-01-31 12:40:29,4135894,8702.000,1193.000,3864.000,4400.000,-1143.000,4527.000,0.000,0.000,0
2026-01-31 12:40:29,4135934,8151.000,848.000,3265.000,2942.000,-100.000,1570.000,0.000,0.000,0
2026-01-31 12:40:29,4135974,8386.000,66.000,1607.000,718.000,1327.000,-567.000,0.000,0.000,0
2026-01-31 12:40:29,4136014,6593.000,-20.000,984.000,1622.000,2033.000,-1543.000,0.000,0.000,0
2026-01-31 12:40:30,4136054,5431.000,960.000,1303.000,3529.000,2055.000,-1919.000,0.000,0.000,0
2026-01-31 12:40:30,4136094,4165.000,1509.000,1370.000,4354.000,1809.000,-1463.000,0.000,0.000,0
2026-01-31 12:40:30,4136134,4316.000,2291.000,1624.000,5595.000,1038.000,-1090.000,0.000,0.000,0
2026-01-31 12:40:30,4136174,5114.000,2876.000,2404.000,4947.000,-286.000,-234.000,0.000,0.000,0
2026-01-31 12:40:30,4136214,6113.000,3209.000,3241.000,2570.000,-1378.000,715.000,0.000,0.000,0
2026-01-31 12:40:30,4136254,6740.000,2779.000,3367.000,-815.000,-2242.000,1656.000,0.000,0.000,0
2026-01-31 12:40:30,4136294,8038.000,2263.000,3186.000,-2951.000,-3098.000,2270.000,0.000,0.000,0
2026-01-31 12:40:30,4136334,8979.000,1472.000,2822.000,-3012.000,-3272.000,2773.000,0.000,0.000,0
2026-01-31 12:40:30,4136374,11149.000,1153.000,2108.000,-849.000,-2782.000,2972.000,0.000,0.000,0
2026-01-31 12:40:30,4136414,12168.000,1357.000,2195.000,1919.000,-2271.000,3444.000,0.000,0.000,0
2026-01-31 12:40:30,4136457,9774.000,2002.000,1444.000,314.000,720.000,1319.000,0.000,0.000,0
2026-01-31 12:40:30,4136496,10007.000,1780.000,437.000,-1476.000,1655.000,10.000,0.000,0.000,0
2026-01-31 12:40:30,4136534,9502.000,1734.000,426.000,-1836.000,1999.000,-372.000,0.000,0.000,0
2026-01-31 12:40:30,4136574,7636.000,1560.000,793.000,-2226.000,2448.000,-1114.000,0.000,0.000,0
2026-01-31 12:40:30,4136614,6089.000,1013.000,986.000,-2366.000,2485.000,-2082.000,0.000,0.000,0
2026-01-31 12:40:30,4136654,5474.000,1015.000,890.000,-1497.000,2391.000,-3176.000,0.000,0.000,0
2026-01-31 12:40:30,4136694,5720.000,1477.000,498.000,-778.000,2441.000,-3814.000,0.000,0.000,0
2026-01-31 12:40:30,4136734,6092.000,1719.000,83.000,-644.000,2590.000,-3838.000,0.000,0.000,0
2026-01-31 12:40:30,4136774,6392.000,1823.000,14.000,-462.000,2468.000,-3277.000,0.000,0.000,0
2026-01-31 12:40:30,4136814,7169.000,1984.000,230.000,264.000,1951.000,-2205.000,0.000,0.000,0
2026-01-31 12:40:30,4136854,8656.000,1977.000,920.000,1775.000,1042.000,-462.000,0.000,0.000,0
2026-01-31 12:40:30,4136894,8557.000,1952.000,1427.000,2651.000,600.000,133.000,0.000,0.000,0
2026-01-31 12:40:30,4136934,9498.000,2665.000,1884.000,2699.000,-273.000,1278.000,0.000,0.000,0
2026-01-31 12:40:30,4136974,10166.000,2785.000,2706.000,2375.000,-1015.000,3356.000,0.000,0.000,0
2026-01-31 12:40:30,4137014,8939.000,2130.000,3781.000,2540.000,-1615.000,4574.000,0.000,0.000,0
2026-01-31 12:40:31,4137054,7509.000,1433.000,4260.000,895.000,-1722.000,3774.000,0.000,0.000,0
2026-01-31 12:40:31,4137094,8077.000,331.000,2889.000,-1726.000,-753.000,1814.000,0.000,0.000,0
2026-01-31 12:40:31,4137134,7411.000,-764.000,1606.000,-1195.000,372.000,631.000,0.000,0.000,0
2026-01-31 12:40:31,4137174,6562.000,-7.000,1205.000,1761.000,895.000,-1.000,0.000,0.000,0
2026-01-31 12:40:31,4137214,5278.000,1172.000,1199.000,3164.000,953.000,203.000,0.000,0.000,0
2026-01-31 12:40:31,4137254,5404.000,1875.000,1181.000,3965.000,517.000,352.000,0.000,0.000,0
2026-01-31 12:40:31,4137294,5442.000,2620.000,1635.000,4456.000,-196.000,576.000,0.000,0.000,0
2026-01-31 12:40:31,4137334,5794.000,2984.000,2216.000,3575.000,-1192.000,737.000,0.000,0.000,0
2026-01-31 12:40:31,4137374,6392.000,2928.000,2600.000,1287.000,-1861.000,1045.000,0.000,0.000,0
2026-01-31 12:40:31,4137414,6641.000,2488.000,2440.000,-1464.000,-2340.000,1148.000,0.000,0.000,0
2026-01-31 12:40:31,4137454,8418.000,2406.000,2079.000,-2892.000,-2781.000,1009.000,0.000,0.000,0
2026-01-31 12:40:31,4137494,8964.000,1709.000,1947.000,-3029.000,-2698.000,1183.000,0.000,0.000,0
2026-01-31 12:40:31,4137534,9958.000,1295.000,1930.000,-1626.000,-2498.000,688.000,0.000,0.000,0
2026-01-31 12:40:31,4137574,11179.000,1690.000,2131.000,137.000,-2111.000,609.000,0.000,0.000,0
2026-01-31 12:40:31,4137614,9286.000,2415.000,2171.000,826.000,-71.000,648.000,0.000,0.000,0
2026-01-31 12:40:31,4137654,10106.000,2224.000,1060.000,-1383.000,1034.000,-940.000,0.000,0.000,0
2026-01-31 12:40:31,4137694,10382.000,1901.000,449.000,-3312.000,1941.000,-1737.000,0.000,0.000,0
2026-01-31 12:40:31,4137734,8933.000,1480.000,572.000,-4073.000,2619.000,-2448.000,0.000,0.000,0
2026-01-31 12:40:31,4137774,7147.000,805.000,855.000,-3950.000,2984.000,-3351.000,0.000,0.000,0
2026-01-31 12:40:31,4137814,5999.000,583.000,860.000,-2633.000,3171.000,-4387.000,0.000,0.000,0
2026-01-31 12:40:31,4137854,5791.000,1221.000,560.000,-1032.000,3294.000,-5057.000,0.000,0.000,0
2026-01-31 12:40:31,4137894,5914.000,1670.000,151.000,-448.000,3333.000,-4919.000,0.000,0.000,0
2026-01-31 12:40:31,4137934,5912.000,1874.000,1.000,-81.000,3102.000,-4181.000,0.000,0.000,0
2026-01-31 12:40:31,4137974,6325.000,2274.000,225.000,434.000,2423.000,-2908.000,0.000,0.000,0
2026-01-31 12:40:31,4138014,7319.000,2806.000,619.000,1689.000,771.000,-154.000,0.000,0.000,0
2026-01-31 12:40:32,4138054,7999.000,2691.000,1136.000,1853.000,-234.000,1660.000,0.000,0.000,0
2026-01-31 12:40:32,4138094,8312.000,2874.000,1539.000,2075.000,-1139.000,3215.000,0.000,0.000,0
2026-01-31 12:40:32,4138134,9678.000,3063.000,1805.000,1566.000,-2054.000,5237.000,0.000,0.000,0
2026-01-31 12:40:32,4138174,10424.000,2656.000,2325.000,1737.000,-2592.000,6914.000,0.000,0.000,0
2026-01-31 12:40:32,4138214,8414.000,2039.000,3449.000,2147.000,-2982.000,7490.000,0.000,0.000,0
2026-01-31 12:40:32,4138254,8016.000,1623.000,3567.000,481.000,-2887.000,6139.000,0.000,0.000,0
2026-01-31 12:40:32,4138294,9409.000,255.000,2019.000,-1535.000,-1779.000,3990.000,0.000,0.000,0
2026-01-31 12:40:32,4138334,7781.000,-354.000,1467.000,385.000,-593.000,2103.000,0.000,0.000,0
2026-01-31 12:40:32,4138374,5965.000,626.000,1380.000,2839.000,286.000,520.000,0.000,0.000,0
2026-01-31 12:40:32,4138414,5076.000,1158.000,1115.000,3636.000,696.000,0.000,0.000,0.000,0
2026-01-31 12:40:32,4138457,5220.000,2686.000,1208.000,3907.000,147.000,-362.000,0.000,0.000,0
2026-01-31 12:40:32,4138497,5485.000,2946.000,1758.000,2659.000,-569.000,-126.000,0.000,0.000,0
2026-01-31 12:40:32,4138534,5777.000,3027.000,2039.000,1909.000,-840.000,-124.000,0.000,0.000,0
2026-01-31 12:40:32,4138574,6450.000,2935.000,2382.000,-288.000,-1335.000,-224.000,0.000,0.000,0
2026-01-31 12:40:32,4138614,7393.000,2268.000,2083.000,-2411.000,-1676.000,-458.000,0.000,0.000,0
2026-01-31 12:40:32,4138654,8800.000,2198.000,1811.000,-3131.000,-2071.000,-573.000,0.000,0.000,0
2026-01-31 12:40:32,4138694,9798.000,1647.000,1446.000,-3287.000,-1829.000,-794.000,0.000,0.000,0
2026-01-31 12:40:32,4138734,11402.000,1956.000,1617.000,-1950.000,-1821.000,-1013.000,0.000,0.000,0
2026-01-31 12:40:32,4138774,10286.000,2294.000,2092.000,-798.000,-683.000,-305.000,0.000,0.000,0
2026-01-31 12:40:32,4138814,9623.000,2175.000,1386.000,-2129.000,479.000,-1250.000,0.000,0.000,0
2026-01-31 12:40:32,4138854,10715.000,2259.000,421.000,-4229.000,1389.000,-1843.000,0.000,0.000,0
2026-01-31 12:40:32,4138894,9728.000,1458.000,78.000,-5667.000,2298.000,-1888.000,0.000,0.000,0
2026-01-31 12:40:32,4138934,7746.000,800.000,322.000,-5211.000,3005.000,-2425.000,0.000,0.000,0
2026-01-31 12:40:32,4138974,5956.000,378.000,502.000,-3811.000,3205.000,-3303.000,0.000,0.000,0
2026-01-31 12:40:32,4139014,5435.000,953.000,485.000,-2248.000,2947.000,-4048.000,0.000,0.000,0
2026-01-31 12:40:33,4139054,5569.000,1334.000,94.000,-1325.000,2996.000,-4050.000,0.000,0.000,0
2026-01-31 12:40:33,4139094,5640.000,1655.000,-246.000,-93.000,3202.000,-3516.000,0.000,0.000,0
2026-01-31 12:40:33,4139134,6395.000,2112.000,-140.000,1202.000,2850.000,-1805.000,0.000,0.000,0
2026-01-31 12:40:33,4139174,7421.000,2359.000,81.000,1798.000,2147.000,-216.000,0.000,0.000,0
2026-01-31 12:40:33,4139214,7827.000,2076.000,693.000,2425.000,1117.000,1288.000,0.000,0.000,0
2026-01-31 12:40:33,4139254,8555.000,2247.000,1058.000,3379.000,313.000,2049.000,0.000,0.000,0
2026-01-31 12:40:33,4139294,11687.000,3330.000,1161.000,4994.000,-614.000,4279.000,0.000,0.000,0
2026-01-31 12:40:33,4139334,8280.000,1741.000,2866.000,5178.000,-1995.000,6457.000,0.000,0.000,0
2026-01-31 12:40:33,4139374,7923.000,2069.000,4099.000,5249.000,-2681.000,4706.000,0.000,0.000,0
2026-01-31 12:40:33,4139414,9381.000,2176.000,3673.000,-243.000,-2779.000,4465.000,0.000,0.000,0
2026-01-31 12:40:33,4139454,7439.000,22.000,2393.000,-1248.000,-1786.000,4252.000,0.000,0.000,0
2026-01-31 12:40:33,4139494,6516.000,774.000,1986.000,2815.000,-926.000,3192.000,0.000,0.000,0
2026-01-31 12:40:33,4139534,6504.000,1306.000,1925.000,3335.000,-802.000,3823.000,0.000,0.000,0
2026-01-31 12:40:33,4139574,7114.000,2431.000,2263.000,3332.000,-759.000,3541.000,0.000,0.000,0
2026-01-31 12:40:33,4139614,7028.000,2847.000,2732.000,2108.000,-538.000,2739.000,0.000,0.000,0
2026-01-31 12:40:33,4139654,7111.000,2581.000,2911.000,109.000,-660.000,1461.000,0.000,0.000,0
2026-01-31 12:40:33,4139694,7319.000,1772.000,2419.000,-1201.000,-663.000,298.000,0.000,0.000,0
2026-01-31 12:40:33,4139734,6753.000,1501.000,1756.000,-1046.000,-197.000,-1182.000,0.000,0.000,0
2026-01-31 12:40:33,4139774,7068.000,1446.000,1264.000,-1258.000,-298.000,-2440.000,0.000,0.000,0
2026-01-31 12:40:33,4139814,8420.000,1395.000,641.000,-1132.000,-391.000,-3202.000,0.000,0.000,0
2026-01-31 12:40:33,4139854,12514.000,2715.000,-371.000,-532.000,-286.000,-4031.000,0.000,0.000,0
2026-01-31 12:40:33,4139894,9628.000,2276.000,461.000,-2169.000,368.000,-3588.000,0.000,0.000,0
2026-01-31 12:40:33,4139934,7786.000,1390.000,1099.000,-3033.000,-163.000,-4526.000,0.000,0.000,0
2026-01-31 12:40:33,4139974,8096.000,2022.000,915.000,-2846.000,-222.000,-5174.000,0.000,0.000,0
2026-01-31 12:40:33,4140014,8646.000,2591.000,-55.000,-3858.000,309.000,-4888.000,0.000,0.000,0
2026-01-31 12:40:34,4140054,8240.000,1936.000,-717.000,-5118.000,659.000,-4193.000,0.000,0.000,0
2026-01-31 12:40:34,4140094,7936.000,1353.000,-720.000,-4866.000,701.000,-3815.000,0.000,0.000,0
2026-01-31 12:40:34,4140134,7899.000,1205.000,-445.000,-3590.000,757.000,-3171.000,0.000,0.000,0
2026-01-31 12:40:34,4140174,7545.000,1316.000,-344.000,-1864.000,886.000,-2546.000,0.000,0.000,0
2026-01-31 12:40:34,4140214,7494.000,1734.000,-325.000,-406.000,936.000,-1986.000,0.000,0.000,0
2026-01-31 12:40:34,4140254,7527.000,2040.000,-263.000,-107.000,872.000,-1024.000,0.000,0.000,0
2026-01-31 12:40:34,4140294,9049.000,2447.000,-333.000,309.000,535.000,839.000,0.000,0.000,0
2026-01-31 12:40:34,4140334,8638.000,2348.000,338.000,1194.000,-243.000,2638.000,0.000,0.000,0
2026-01-31 12:40:34,4140374,6699.000,2048.000,1308.000,1645.000,-1300.000,3470.000,0.000,0.000,0
2026-01-31 12:40:34,4140414,6901.000,2299.000,1630.000,1120.000,-2131.000,3744.000,0.000,0.000,0
2026-01-31 12:40:34,4140457,8336.000,2521.000,1416.000,-56.000,-1644.000,4425.000,0.000,0.000,0
2026-01-31 12:40:34,4140497,8209.000,2308.000,1090.000,-187.000,-1136.000,4561.000,0.000,0.000,0
2026-01-31 12:40:34,4140534,8079.000,2105.000,1215.000,-393.000,-1261.000,4559.000,0.000,0.000,0
2026-01-31 12:40:34,4140574,8807.000,1709.000,1540.000,-317.000,-1339.000,4441.000,0.000,0.000,0
2026-01-31 12:40:34,4140614,8747.000,1789.000,1737.000,831.000,-592.000,4251.000,0.000,0.000,0
2026-01-31 12:40:34,4140654,7898.000,1863.000,1900.000,1704.000,196.000,2279.000,0.000,0.000,0
2026-01-31 12:40:34,4140694,8885.000,2071.000,1548.000,900.000,822.000,1013.000,0.000,0.000,0
2026-01-31 12:40:34,4140737,8196.000,1725.000,1738.000,599.000,1413.000,-284.000,0.000,0.000,0
2026-01-31 12:40:34,4140774,7864.000,1626.000,1999.000,726.000,1503.000,-718.000,0.000,0.000,0
2026-01-31 12:40:34,4140814,7663.000,1450.000,2063.000,567.000,1839.000,-1817.000,0.000,0.000,0
2026-01-31 12:40:34,4140854,8454.000,1467.000,1892.000,376.000,2126.000,-2712.000,0.000,0.000,0
2026-01-31 12:40:34,4140894,8115.000,1482.000,2395.000,280.000,2385.000,-2682.000,0.000,0.000,0
2026-01-31 12:40:34,4140934,7682.000,963.000,2559.000,-64.000,2422.000,-2492.000,0.000,0.000,0
2026-01-31 12:40:34,4140974,7908.000,443.000,2581.000,858.000,2252.000,-2053.000,0.000,0.000,0
2026-01-31 12:40:34,4141014,7688.000,1131.000,2772.000,2374.000,2087.000,-1623.000,0.000,0.000,0
2026-01-31 12:40:35,4141054,7179.000,1563.000,2914.000,446.000,1354.000,-542.000,0.000,0.000,0
2026-01-31 12:40:35,4141094,6792.000,1375.000,2719.000,20.000,944.000,495.000,0.000,0.000,0
2026-01-31 12:40:35,4141134,6663.000,1671.000,2736.000,686.000,211.000,1571.000,0.000,0.000,0
2026-01-31 12:40:35,4141174,6695.000,1420.000,2690.000,548.000,-447.000,2448.000,0.000,0.000,0
2026-01-31 12:40:35,4141214,6891.000,1193.000,2336.000,905.000,-669.000,2785.000,0.000,0.000,0
2026-01-31 12:40:35,4141254,7151.000,1228.000,2223.000,1168.000,-932.000,2849.000,0.000,0.000,0
2026-01-31 12:40:35,4141294,7246.000,913.000,2284.000,1123.000,-1176.000,2709.000,0.000,0.000,0
2026-01-31 12:40:35,4141334,7115.000,1026.000,2305.000,1588.000,-1367.000,2262.000,0.000,0.000,0
2026-01-31 12:40:35,4141374,7004.000,1240.000,2401.000,1817.000,-1677.000,1961.000,0.000,0.000,0
2026-01-31 12:40:35,4141414,7457.000,1513.000,2431.000,1664.000,-1967.000,1795.000,0.000,0.000,0
2026-01-31 12:40:35,4141454,8424.000,1766.000,2473.000,1592.000,-2448.000,2039.000,0.000,0.000,0
2026-01-31 12:40:35,4141494,8870.000,1909.000,2657.000,1575.000,-2889.000,2214.000,0.000,0.000,0
2026-01-31 12:40:35,4141534,10643.000,2209.000,2316.000,906.000,-3341.000,2146.000,0.000,0.000,0
2026-01-31 12:40:35,4141574,12420.000,2202.000,1728.000,68.000,-3345.000,1774.000,0.000,0.000,0
2026-01-31 12:40:35,4141614,12157.000,2065.000,1648.000,-1184.000,-3030.000,791.000,0.000,0.000,0
2026-01-31 12:40:35,4141654,9275.000,1689.000,1936.000,-3396.000,-2467.000,-499.000,0.000,0.000,0
2026-01-31 12:40:35,4141694,8436.000,1737.000,1250.000,-5266.000,-1624.000,-2054.000,0.000,0.000,0
2026-01-31 12:40:35,4141734,8995.000,2168.000,495.000,-6323.000,-604.000,-2694.000,0.000,0.000,0
2026-01-31 12:40:35,4141774,8704.000,2050.000,261.000,-6871.000,572.000,-2493.000,0.000,0.000,0
2026-01-31 12:40:35,4141814,8886.000,1769.000,-204.000,-6361.000,2494.000,-2242.000,0.000,0.000,0
2026-01-31 12:40:35,4141854,7915.000,1111.000,-390.000,-4776.000,3255.000,-2030.000,0.000,0.000,0
2026-01-31 12:40:35,4141894,6285.000,851.000,-162.000,-2553.000,3451.000,-2559.000,0.000,0.000,0
2026-01-31 12:40:35,4141934,5283.000,1121.000,3.000,-1761.000,3137.000,-3389.000,0.000,0.000,0
2026-01-31 12:40:35,4141974,4836.000,1420.000,-65.000,-2363.000,2558.000,-3915.000,0.000,0.000,0
2026-01-31 12:40:35,4142014,4934.000,1711.000,-254.000,-2973.000,1901.000,-3801.000,0.000,0.000,0
2026-01-31 12:40:36,4142054,5278.000,1933.000,-451.000,-2415.000,1305.000,-3022.000,0.000,0.000,0
2026-01-31 12:40:36,4142094,6082.000,2250.000,-508.000,-1040.000,723.000,-1661.000,0.000,0.000,0
2026-01-31 12:40:36,4142134,7433.000,2424.000,-276.000,194.000,82.000,-205.000,0.000,0.000,0
2026-01-31 12:40:36,4142174,10607.000,2662.000,536.000,294.000,-1009.000,1074.000,0.000,0.000,0
2026-01-31 12:40:36,4142214,13004.000,1934.000,872.000,-2001.000,-3171.000,2373.000,0.000,0.000,0
2026-01-31 12:40:36,4142254,13357.000,1264.000,790.000,-2645.000,-3746.000,2212.000,0.000,0.000,0
2026-01-31 12:40:36,4142294,13090.000,151.000,18.000,-1921.000,-3980.000,3313.000,0.000,0.000,0
2026-01-31 12:40:36,4142334,10820.000,-17.000,387.000,495.000,-4744.000,5533.000,0.000,0.000,0
2026-01-31 12:40:36,4142374,8070.000,-1822.000,747.000,1596.000,-4250.000,6337.000,0.000,0.000,0
2026-01-31 12:40:36,4142414,7517.000,-2482.000,419.000,3241.000,-1982.000,5409.000,0.000,0.000,0
2026-01-31 12:40:36,4142457,7157.000,-1373.000,639.000,4269.000,149.000,3369.000,0.000,0.000,0
2026-01-31 12:40:36,4142499,6981.000,-714.000,1219.000,3081.000,409.000,1553.000,0.000,0.000,0
2026-01-31 12:40:36,4142534,6970.000,-477.000,1189.000,2600.000,773.000,759.000,0.000,0.000,0
2026-01-31 12:40:36,4142574,5235.000,-162.000,906.000,4392.000,1754.000,-69.000,0.000,0.000,0
2026-01-31 12:40:36,4142614,3979.000,778.000,963.000,6875.000,1892.000,-530.000,0.000,0.000,0
2026-01-31 12:40:36,4142654,3718.000,1896.000,976.000,6852.000,1660.000,-765.000,0.000,0.000,0
2026-01-31 12:40:36,4142694,4074.000,1958.000,683.000,4897.000,1463.000,-635.000,0.000,0.000,0
2026-01-31 12:40:36,4142737,5396.000,1712.000,943.000,4950.000,1157.000,-340.000,0.000,0.000,0
2026-01-31 12:40:36,4142774,5749.000,1888.000,1617.000,4988.000,604.000,-312.000,0.000,0.000,0
2026-01-31 12:40:36,4142814,7390.000,2745.000,3355.000,2947.000,-1465.000,-451.000,0.000,0.000,0
2026-01-31 12:40:36,4142854,10145.000,2761.000,4038.000,-1705.000,-2385.000,-317.000,0.000,0.000,0
2026-01-31 12:40:36,4142894,11013.000,2268.000,3175.000,-3831.000,-2272.000,-348.000,0.000,0.000,0
2026-01-31 12:40:36,4142934,11315.000,901.000,1973.000,-3340.000,-1952.000,-1102.000,0.000,0.000,0
2026-01-31 12:40:36,4142974,13753.000,1184.000,1432.000,-852.000,-1240.000,-2051.000,0.000,0.000,0
2026-01-31 12:40:36,4143014,11193.000,1329.000,1942.000,-1607.000,-481.000,-1894.000,0.000,0.000,0
2026-01-31 12:40:37,4143054,8716.000,1372.000,1707.000,-3077.000,701.000,-3525.000,0.000,0.000,0
2026-01-31 12:40:37,4143094,9003.000,2025.000,707.000,-4162.000,1550.000,-4417.000,0.000,0.000,0
2026-01-31 12:40:37,4143134,8591.000,2189.000,31.000,-4832.000,2220.000,-3714.000,0.000,0.000,0
2026-01-31 12:40:37,4143174,7853.000,2058.000,-284.000,-3777.000,2972.000,-2840.000,0.000,0.000,0
2026-01-31 12:40:37,4143214,6718.000,1608.000,-364.000,-2248.000,3121.000,-2209.000,0.000,0.000,0
2026-01-31 12:40:37,4143254,5222.000,1358.000,-71.000,-1082.000,2595.000,-2196.000,0.000,0.000,0
2026-01-31 12:40:37,4143294,4268.000,1428.000,170.000,-1555.000,1829.000,-2570.000,0.000,0.000,0
2026-01-31 12:40:37,4143334,4128.000,1490.000,-275.000,-3253.000,922.000,-3037.000,0.000,0.000,0
2026-01-31 12:40:37,4143374,4559.000,1687.000,-596.000,-3346.000,404.000,-2814.000,0.000,0.000,0
2026-01-31 12:40:37,4143414,5564.000,2009.000,-733.000,-2212.000,-162.000,-1757.000,0.000,0.000,0
2026-01-31 12:40:37,4143454,7175.000,2421.000,-676.000,-223.000,-876.000,-25.000,0.000,0.000,0
2026-01-31 12:40:37,4143494,9030.000,2511.000,-136.000,1365.000,-1867.000,1623.000,0.000,0.000,0
2026-01-31 12:40:37,4143534,11510.000,2632.000,802.000,1060.000,-3422.000,2600.000,0.000,0.000,0
2026-01-31 12:40:37,4143574,14177.000,1968.000,1634.000,-1349.000,-5084.000,2851.000,0.000,0.000,0
2026-01-31 12:40:37,4143614,15460.000,3022.000,1561.000,-5179.000,-6288.000,2128.000,0.000,0.000,0
2026-01-31 12:40:37,4143654,14438.000,3213.000,889.000,-12897.000,-7361.000,1860.000,0.000,0.000,0
2026-01-31 12:40:37,4143694,10054.000,-612.000,962.000,-13631.000,-6797.000,2466.000,0.000,0.000,0
2026-01-31 12:40:37,4143734,6141.000,-2928.000,1231.000,-153.000,-4440.000,1599.000,0.000,0.000,0
2026-01-31 12:40:37,4143774,7132.000,-822.000,785.000,6680.000,-1475.000,2255.000,0.000,0.000,0
2026-01-31 12:40:37,4143814,7181.000,767.000,-5.000,7166.000,1517.000,3048.000,0.000,0.000,0
2026-01-31 12:40:37,4143854,6720.000,683.000,-403.000,5260.000,3294.000,2524.000,0.000,0.000,0
2026-01-31 12:40:37,4143894,6177.000,507.000,-184.000,4824.000,4070.000,1382.000,0.000,0.000,0
2026-01-31 12:40:37,4143934,5051.000,127.000,232.000,6171.000,4725.000,335.000,0.000,0.000,0
2026-01-31 12:40:37,4143974,3877.000,447.000,463.000,9369.000,5353.000,-1277.000,0.000,0.000,0
2026-01-31 12:40:37,4144014,3377.000,1300.000,478.000,11380.000,5064.000,-2769.000,0.000,0.000,0
2026-01-31 12:40:38,4144054,3570.000,2010.000,516.000,10598.000,4029.000,-3398.000,0.000,0.000,0
2026-01-31 12:40:38,4144094,4773.000,2931.000,986.000,7803.000,1651.000,-2633.000,0.000,0.000,0
2026-01-31 12:40:38,4144134,6288.000,3302.000,2510.000,2331.000,-834.000,-979.000,0.000,0.000,0
2026-01-31 12:40:38,4144174,8368.000,4368.000,4147.000,-2802.000,-4299.000,434.000,0.000,0.000,0
2026-01-31 12:40:38,4144214,10459.000,2843.000,3924.000,-8968.000,-5917.000,1579.000,0.000,0.000,0
2026-01-31 12:40:38,4144254,11092.000,2145.000,2505.000,-10329.000,-6060.000,1980.000,0.000,0.000,0
2026-01-31 12:40:38,4144294,12918.000,2348.000,1181.000,-7704.000,-5531.000,2076.000,0.000,0.000,0
2026-01-31 12:40:38,4144334,13302.000,1261.000,581.000,-4674.000,-4413.000,3749.000,0.000,0.000,0
2026-01-31 12:40:38,4144374,9759.000,-473.000,794.000,-1266.000,-1306.000,3375.000,0.000,0.000,0
2026-01-31 12:40:38,4144417,9191.000,963.000,250.000,1622.000,2134.000,963.000,0.000,0.000,0
2026-01-31 12:40:38,4144457,8298.000,1954.000,-353.000,1457.000,2883.000,626.000,0.000,0.000,0
2026-01-31 12:40:38,4144495,7977.000,2087.000,-304.000,1871.000,3434.000,19.000,0.000,0.000,0
2026-01-31 12:40:38,4144534,6753.000,1794.000,21.000,1848.000,3550.000,-1553.000,0.000,0.000,0
2026-01-31 12:40:38,4144574,4923.000,1543.000,537.000,1425.000,3253.000,-3171.000,0.000,0.000,0
2026-01-31 12:40:38,4144614,3884.000,1691.000,611.000,-237.000,2618.000,-4389.000,0.000,0.000,0
2026-01-31 12:40:38,4144654,3745.000,1870.000,119.000,-2702.000,1979.000,-5087.000,0.000,0.000,0
2026-01-31 12:40:38,4144694,4104.000,1828.000,-408.000,-4368.000,1407.000,-5127.000,0.000,0.000,0
2026-01-31 12:40:38,4144737,6771.000,1124.000,-685.000,-2706.000,912.000,-3206.000,0.000,0.000,0
2026-01-31 12:40:38,4144774,8213.000,1324.000,-689.000,-951.000,538.000,-2135.000,0.000,0.000,0
2026-01-31 12:40:38,4144814,11313.000,2355.000,-5.000,1699.000,-91.000,-71.000,0.000,0.000,0
2026-01-31 12:40:38,4144854,14265.000,1641.000,818.000,1044.000,-1033.000,1372.000,0.000,0.000,0
2026-01-31 12:40:38,4144894,14658.000,1520.000,1051.000,-326.000,-2745.000,2271.000,0.000,0.000,0
2026-01-31 12:40:38,4144934,12590.000,784.000,1403.000,-2567.000,-3611.000,2893.000,0.000,0.000,0
2026-01-31 12:40:38,4144974,8682.000,-405.000,1833.000,-2966.000,-3077.000,2220.000,0.000,0.000,0
2026-01-31 12:40:38,4145014,7265.000,-1247.000,1225.000,-1751.000,-1264.000,1247.000,0.000,0.000,0
2026-01-31 12:40:39,4145054,7419.000,-2399.000,401.000,1269.000,93.000,2149.000,0.000,0.000,0
2026-01-31 12:40:39,4145094,7474.000,-1635.000,636.000,5858.000,786.000,2861.000,0.000,0.000,0
2026-01-31 12:40:39,4145134,7125.000,80.000,1391.000,7134.000,1425.000,2514.000,0.000,0.000,0
2026-01-31 12:40:39,4145174,6000.000,659.000,1717.000,5365.000,1859.000,2154.000,0.000,0.000,0
2026-01-31 12:40:39,4145214,4321.000,590.000,1703.000,4791.000,2086.000,1618.000,0.000,0.000,0
2026-01-31 12:40:39,4145254,3520.000,1109.000,1169.000,4902.000,2240.000,473.000,0.000,0.000,0
2026-01-31 12:40:39,4145294,3437.000,1342.000,879.000,4157.000,1708.000,428.000,0.000,0.000,0
2026-01-31 12:40:39,4145334,4732.000,1728.000,1180.000,3328.000,756.000,672.000,0.000,0.000,0
2026-01-31 12:40:39,4145374,6388.000,1750.000,1843.000,2432.000,-219.000,1135.000,0.000,0.000,0
2026-01-31 12:40:39,4145414,7553.000,2001.000,2227.000,1950.000,-1254.000,1506.000,0.000,0.000,0
2026-01-31 12:40:39,4145454,9034.000,2106.000,2398.000,1167.000,-2348.000,1946.000,0.000,0.000,0
2026-01-31 12:40:39,4145494,10138.000,1681.000,2462.000,378.000,-3401.000,2199.000,0.000,0.000,0
2026-01-31 12:40:39,4145534,11871.000,1598.000,2033.000,64.000,-3704.000,1503.000,0.000,0.000,0
2026-01-31 12:40:39,4145574,13758.000,2022.000,1803.000,-246.000,-3830.000,1168.000,0.000,0.000,0
2026-01-31 12:40:39,4145614,9114.000,1155.000,2199.000,-2033.000,-3039.000,530.000,0.000,0.000,0
2026-01-31 12:40:39,4145654,8587.000,753.000,1108.000,-5711.000,-969.000,-2837.000,0.000,0.000,0
2026-01-31 12:40:39,4145694,8176.000,904.000,153.000,-6102.000,551.000,-3447.000,0.000,0.000,0
2026-01-31 12:40:39,4145734,7288.000,1039.000,-153.000,-4664.000,1914.000,-3098.000,0.000,0.000,0
2026-01-31 12:40:39,4145774,7245.000,1346.000,-135.000,-2980.000,2974.000,-2371.000,0.000,0.000,0
2026-01-31 12:40:39,4145814,7183.000,1287.000,-58.000,-1542.000,3788.000,-1729.000,0.000,0.000,0
2026-01-31 12:40:39,4145854,6760.000,1237.000,81.000,7.000,4376.000,-1958.000,0.000,0.000,0
2026-01-31 12:40:39,4145894,6546.000,1398.000,234.000,570.000,4006.000,-2567.000,0.000,0.000,0
2026-01-31 12:40:39,4145934,6180.000,2057.000,696.000,-1175.000,2700.000,-2894.000,0.000,0.000,0
2026-01-31 12:40:39,4145974,5973.000,2060.000,516.000,-4809.000,1425.000,-3110.000,0.000,0.000,0
2026-01-31 12:40:39,4146014,6385.000,1910.000,370.000,-6263.000,-351.000,-2117.000,0.000,0.000,0
2026-01-31 12:40:40,4146054,6179.000,1963.000,713.000,-4890.000,-1395.000,-1164.000,0.000,0.000,0
2026-01-31 12:40:40,4146094,6863.000,2241.000,764.000,-3888.000,-2202.000,-344.000,0.000,0.000,0
2026-01-31 12:40:40,4146134,8337.000,2759.000,944.000,-3694.000,-2963.000,739.000,0.000,0.000,0
2026-01-31 12:40:40,4146174,9921.000,2741.000,1263.000,-3792.000,-3399.000,1663.000,0.000,0.000,0
2026-01-31 12:40:40,4146214,10548.000,2208.000,1334.000,-3779.000,-3125.000,1500.000,0.000,0.000,0
2026-01-31 12:40:40,4146254,11613.000,1982.000,942.000,-3545.000,-2755.000,1016.000,0.000,0.000,0
2026-01-31 12:40:40,4146294,12408.000,1626.000,694.000,-2867.000,-2615.000,1095.000,0.000,0.000,0
2026-01-31 12:40:40,4146334,11288.000,612.000,765.000,-1306.000,-1998.000,718.000,0.000,0.000,0
2026-01-31 12:40:40,4146374,8715.000,25.000,490.000,-192.000,-520.000,-1252.000,0.000,0.000,0
2026-01-31 12:40:40,4146414,7833.000,56.000,385.000,1137.000,1637.000,-3249.000,0.000,0.000,0
2026-01-31 12:40:40,4146459,7746.000,686.000,803.000,2532.000,3450.000,-3569.000,0.000,0.000,0
2026-01-31 12:40:40,4146494,7449.000,755.000,1055.000,2556.000,3909.000,-3732.000,0.000,0.000,0
2026-01-31 12:40:40,4146534,6635.000,1041.000,1535.000,2475.000,4478.000,-4048.000,0.000,0.000,0
2026-01-31 12:40:40,4146574,5549.000,1214.000,1800.000,2568.000,4394.000,-3642.000,0.000,0.000,0
2026-01-31 12:40:40,4146614,5053.000,1857.000,2046.000,3148.000,4191.000,-3219.000,0.000,0.000,0
2026-01-31 12:40:40,4146654,4323.000,2077.000,2070.000,3770.000,3812.000,-3660.000,0.000,0.000,0
2026-01-31 12:40:40,4146694,3503.000,2217.000,1763.000,3661.000,3363.000,-3539.000,0.000,0.000,0
2026-01-31 12:40:40,4146737,4080.000,3700.000,2511.000,4476.000,3264.000,-3365.000,0.000,0.000,0
2026-01-31 12:40:40,4146774,3793.000,4382.000,2515.000,4710.000,3518.000,-2712.000,0.000,0.000,0
2026-01-31 12:40:40,4146814,4143.000,5384.000,3197.000,5802.000,3279.000,-1841.000,0.000,0.000,0
2026-01-31 12:40:40,4146854,4525.000,6934.000,4285.000,5480.000,2673.000,-2230.000,0.000,0.000,0
2026-01-31 12:40:40,4146894,4895.000,7358.000,4460.000,4068.000,1606.000,-2558.000,0.000,0.000,0
2026-01-31 12:40:40,4146934,5711.000,10191.000,4879.000,2884.000,435.000,-3180.000,0.000,0.000,0
2026-01-31 12:40:40,4146974,4666.000,8030.000,4494.000,-1030.000,-101.000,-3640.000,0.000,0.000,0
2026-01-31 12:40:40,4147014,4512.000,9370.000,3569.000,159.000,-544.000,-3648.000,0.000,0.000,0
2026-01-31 12:40:41,4147054,5795.000,11250.000,2429.000,387.000,-1038.000,-2196.000,0.000,0.000,0
2026-01-31 12:40:41,4147094,5523.000,9300.000,1984.000,407.000,-1273.000,-2146.000,0.000,0.000,0
2026-01-31 12:40:41,4147134,3909.000,7282.000,2096.000,-801.000,-2016.000,-3644.000,0.000,0.000,0
2026-01-31 12:40:41,4147174,2940.000,6502.000,895.000,-1400.000,-2653.000,-2907.000,0.000,0.000,0
2026-01-31 12:40:41,4147214,2630.000,6994.000,411.000,-198.000,-2391.000,-2321.000,0.000,0.000,0
2026-01-31 12:40:41,4147254,2365.000,6793.000,252.000,-1377.000,-2278.000,-1747.000,0.000,0.000,0
2026-01-31 12:40:41,4147294,2190.000,6056.000,389.000,-2956.000,-2117.000,-1193.000,0.000,0.000,0
2026-01-31 12:40:41,4147334,2021.000,5465.000,730.000,-2700.000,-2142.000,-1337.000,0.000,0.000,0
2026-01-31 12:40:41,4147374,2114.000,4967.000,937.000,-2615.000,-2286.000,-1446.000,0.000,0.000,0
2026-01-31 12:40:41,4147414,2270.000,4819.000,1010.000,-2420.000,-2352.000,-1775.000,0.000,0.000,0
2026-01-31 12:40:41,4147454,2329.000,4858.000,1283.000,-2044.000,-2208.000,-1692.000,0.000,0.000,0
2026-01-31 12:40:41,4147494,2425.000,5543.000,1569.000,-876.000,-1961.000,-1081.000,0.000,0.000,0
2026-01-31 12:40:41,4147534,3269.000,8020.000,2091.000,62.000,-1807.000,312.000,0.000,0.000,0
2026-01-31 12:40:41,4147574,3832.000,8835.000,2467.000,124.000,-2034.000,1336.000,0.000,0.000,0
2026-01-31 12:40:41,4147614,5021.000,10004.000,2980.000,35.000,-2333.000,1910.000,0.000,0.000,0
2026-01-31 12:40:41,4147654,6705.000,10776.000,2785.000,-373.000,-2250.000,2732.000,0.000,0.000,0
2026-01-31 12:40:41,4147694,7687.000,10429.000,1955.000,934.000,-1778.000,3662.000,0.000,0.000,0
2026-01-31 12:40:41,4147734,7292.000,9979.000,1602.000,2693.000,-947.000,3992.000,0.000,0.000,0
2026-01-31 12:40:41,4147774,5976.000,6995.000,1405.000,2002.000,-376.000,3463.000,0.000,0.000,0
2026-01-31 12:40:41,4147814,5338.000,4642.000,785.000,832.000,448.000,2602.000,0.000,0.000,0
2026-01-31 12:40:41,4147854,5360.000,3872.000,208.000,236.000,2051.000,2446.000,0.000,0.000,0
2026-01-31 12:40:41,4147894,5562.000,4584.000,-40.000,1134.000,3788.000,2458.000,0.000,0.000,0
2026-01-31 12:40:41,4147934,4214.000,5182.000,1322.000,2981.000,4780.000,1263.000,0.000,0.000,0
2026-01-31 12:40:41,4147974,3258.000,5084.000,2028.000,2581.000,4708.000,1071.000,0.000,0.000,0
2026-01-31 12:40:41,4148014,2239.000,4614.000,2203.000,2923.000,4167.000,377.000,0.000,0.000,0
2026-01-31 12:40:42,4148054,1475.000,4424.000,2069.000,2783.000,3187.000,-444.000,0.000,0.000,0
2026-01-31 12:40:42,4148094,1374.000,4166.000,2194.000,1847.000,2341.000,-1120.000,0.000,0.000,0
2026-01-31 12:40:42,4148134,1380.000,3926.000,2119.000,1850.000,1755.000,-1456.000,0.000,0.000,0
2026-01-31 12:40:42,4148174,2104.000,5738.000,2381.000,2714.000,1306.000,-1859.000,0.000,0.000,0
2026-01-31 12:40:42,4148214,3060.000,6857.000,2732.000,1778.000,920.000,-1185.000,0.000,0.000,0
2026-01-31 12:40:42,4148254,4057.000,8675.000,2747.000,1825.000,451.000,-835.000,0.000,0.000,0
2026-01-31 12:40:42,4148294,5384.000,10627.000,3317.000,572.000,-15.000,-1771.000,0.000,0.000,0
2026-01-31 12:40:42,4148334,5015.000,10844.000,3462.000,-1441.000,-549.000,-2208.000,0.000,0.000,0
2026-01-31 12:40:42,4148374,4685.000,11273.000,3350.000,-1639.000,-1107.000,-1682.000,0.000,0.000,0
2026-01-31 12:40:42,4148417,3457.000,7543.000,2600.000,-3172.000,-2283.000,-914.000,0.000,0.000,0
2026-01-31 12:40:42,4148456,3118.000,7090.000,2237.000,-3689.000,-2530.000,-639.000,0.000,0.000,0
2026-01-31 12:40:42,4148497,3985.000,8222.000,1231.000,-4795.000,-2672.000,1334.000,0.000,0.000,0
2026-01-31 12:40:42,4148534,4358.000,8196.000,1149.000,-4813.000,-2436.000,1297.000,0.000,0.000,0
2026-01-31 12:40:42,4148574,4524.000,7898.000,1163.000,-4471.000,-1898.000,252.000,0.000,0.000,0
2026-01-31 12:40:42,4148614,3638.000,5895.000,1212.000,-5500.000,-1539.000,-807.000,0.000,0.000,0
2026-01-31 12:40:42,4148654,2398.000,3825.000,1143.000,-3702.000,-1429.000,-1626.000,0.000,0.000,0
2026-01-31 12:40:42,4148694,1578.000,3920.000,1138.000,-51.000,-1600.000,-2528.000,0.000,0.000,0
2026-01-31 12:40:42,4148740,1298.000,4331.000,1142.000,114.000,-2068.000,-2894.000,0.000,0.000,0
2026-01-31 12:40:42,4148774,1445.000,4954.000,1409.000,466.000,-2294.000,-2714.000,0.000,0.000,0
2026-01-31 12:40:42,4148814,1946.000,7058.000,2174.000,1458.000,-2943.000,-1798.000,0.000,0.000,0
2026-01-31 12:40:42,4148854,2952.000,8887.000,2381.000,1687.000,-3737.000,-681.000,0.000,0.000,0
2026-01-31 12:40:42,4148894,4243.000,9903.000,2525.000,1518.000,-4340.000,-66.000,0.000,0.000,0
2026-01-31 12:40:42,4148934,5951.000,10492.000,2740.000,1134.000,-4574.000,312.000,0.000,0.000,0
2026-01-31 12:40:42,4148974,7425.000,10516.000,2306.000,497.000,-3582.000,594.000,0.000,0.000,0
2026-01-31 12:40:42,4149014,7822.000,10277.000,1531.000,462.000,-1925.000,1817.000,0.000,0.000,0
2026-01-31 12:40:43,4149054,7390.000,8868.000,1140.000,728.000,-404.000,2562.000,0.000,0.000,0
2026-01-31 12:40:43,4149094,6791.000,5816.000,688.000,-4579.000,1856.000,1506.000,0.000,0.000,0
2026-01-31 12:40:43,4149134,6262.000,3868.000,629.000,-5444.000,3715.000,1770.000,0.000,0.000,0
2026-01-31 12:40:43,4149174,5605.000,3641.000,1036.000,-2930.000,4722.000,2983.000,0.000,0.000,0
2026-01-31 12:40:43,4149214,5296.000,3982.000,1929.000,-336.000,5089.000,4019.000,0.000,0.000,0
2026-01-31 12:40:43,4149254,4048.000,4133.000,2526.000,-100.000,4889.000,4410.000,0.000,0.000,0
2026-01-31 12:40:43,4149294,2854.000,3333.000,2739.000,-308.000,4198.000,4438.000,0.000,0.000,0
2026-01-31 12:40:43,4149334,1831.000,2467.000,2475.000,417.000,3555.000,3967.000,0.000,0.000,0
2026-01-31 12:40:43,4149374,1530.000,2928.000,2447.000,2074.000,3054.000,3245.000,0.000,0.000,0
2026-01-31 12:40:43,4149414,1705.000,3839.000,2655.000,2806.000,2647.000,2507.000,0.000,0.000,0
2026-01-31 12:40:43,4149454,2298.000,4852.000,3943.000,3753.000,1944.000,731.000,0.000,0.000,0
2026-01-31 12:40:43,4149494,3162.000,6931.000,5041.000,4021.000,1693.000,-21.000,0.000,0.000,0
2026-01-31 12:40:43,4149534,3762.000,8248.000,5646.000,2144.000,1365.000,-583.000,0.000,0.000,0
2026-01-31 12:40:43,4149574,4867.000,8260.000,6263.000,122.000,772.000,-1493.000,0.000,0.000,0
2026-01-31 12:40:43,4149614,5121.000,7347.000,6363.000,-1006.000,253.000,-2498.000,0.000,0.000,0
2026-01-31 12:40:43,4149654,4682.000,7908.000,6447.000,838.000,-558.000,-2433.000,0.000,0.000,0
2026-01-31 12:40:43,4149694,5288.000,11592.000,6781.000,1572.000,-1386.000,-2637.000,0.000,0.000,0
2026-01-31 12:40:43,4149734,4252.000,8598.000,5075.000,-2927.000,-1706.000,-4320.000,0.000,0.000,0
2026-01-31 12:40:43,4149774,3071.000,5935.000,3896.000,-3817.000,-2299.000,-5354.000,0.000,0.000,0
2026-01-31 12:40:43,4149814,2868.000,7252.000,3643.000,-2848.000,-2835.000,-4929.000,0.000,0.000,0
2026-01-31 12:40:43,4149854,2829.000,7060.000,2980.000,-4015.000,-2539.000,-4162.000,0.000,0.000,0
2026-01-31 12:40:43,4149894,2548.000,5492.000,2313.000,-4405.000,-2063.000,-3499.000,0.000,0.000,0
2026-01-31 12:40:43,4149934,2377.000,4308.000,1944.000,-3174.000,-1649.000,-2699.000,0.000,0.000,0
2026-01-31 12:40:43,4149974,2132.000,3849.000,1762.000,-1606.000,-1115.000,-2194.000,0.000,0.000,0
2026-01-31 12:40:43,4150014,1888.000,3672.000,1717.000,-247.000,-848.000,-1827.000,0.000,0.000,0
2026-01-31 12:40:44,4150054,1647.000,4000.000,2083.000,1116.000,-1145.000,-1351.000,0.000,0.000,0
2026-01-31 12:40:44,4150094,1866.000,5622.000,3086.000,2341.000,-1846.000,-760.000,0.000,0.000,0
2026-01-31 12:40:44,4150134,2295.000,7385.000,4088.000,2392.000,-2634.000,-170.000,0.000,0.000,0
2026-01-31 12:40:44,4150174,2406.000,8348.000,4494.000,1231.000,-3432.000,-110.000,0.000,0.000,0
2026-01-31 12:40:44,4150214,3578.000,9642.000,5272.000,-668.000,-4830.000,174.000,0.000,0.000,0
2026-01-31 12:40:44,4150254,5120.000,9927.000,5596.000,-2012.000,-4840.000,474.000,0.000,0.000,0
2026-01-31 12:40:44,4150294,6781.000,8705.000,4665.000,-2470.000,-4038.000,720.000,0.000,0.000,0
2026-01-31 12:40:44,4150334,7468.000,8482.000,4125.000,-207.000,-3162.000,1859.000,0.000,0.000,0
2026-01-31 12:40:44,4150374,7447.000,8637.000,3760.000,452.000,-1922.000,2942.000,0.000,0.000,0
2026-01-31 12:40:44,4150417,7078.000,4369.000,1899.000,-1190.000,611.000,1923.000,0.000,0.000,0
2026-01-31 12:40:44,4150456,6868.000,3176.000,1184.000,983.000,2405.000,2302.000,0.000,0.000,0
2026-01-31 12:40:44,4150495,6813.000,3539.000,1145.000,2551.000,3206.000,2732.000,0.000,0.000,0
2026-01-31 12:40:44,4150534,6422.000,4162.000,1212.000,4503.000,4563.000,3246.000,0.000,0.000,0
2026-01-31 12:40:44,4150574,5028.000,4022.000,1875.000,4649.000,5387.000,3404.000,0.000,0.000,0
2026-01-31 12:40:44,4150614,3094.000,3189.000,2017.000,3535.000,5063.000,3638.000,0.000,0.000,0
2026-01-31 12:40:44,4150654,2651.000,2503.000,1916.000,3064.000,4690.000,3858.000,0.000,0.000,0
2026-01-31 12:40:44,4150694,2516.000,2623.000,2177.000,3184.000,4551.000,4224.000,0.000,0.000,0
2026-01-31 12:40:44,4150738,2927.000,3222.000,2537.000,3190.000,4909.000,5290.000,0.000,0.000,0
2026-01-31 12:40:44,4150774,3119.000,3972.000,2749.000,3603.000,4730.000,5865.000,0.000,0.000,0
2026-01-31 12:40:44,4150814,4010.000,6372.000,4578.000,4049.000,3960.000,6365.000,0.000,0.000,0
2026-01-31 12:40:44,4150854,4370.000,7034.000,5512.000,2749.000,2881.000,5893.000,0.000,0.000,0
2026-01-31 12:40:44,4150894,5069.000,7471.000,6041.000,2623.000,1241.000,4457.000,0.000,0.000,0
2026-01-31 12:40:44,4150934,5187.000,8874.000,6193.000,3193.000,-118.000,1516.000,0.000,0.000,0
2026-01-31 12:40:44,4150974,4687.000,10678.000,5639.000,2425.000,-1799.000,-2389.000,0.000,0.000,0
2026-01-31 12:40:44,4151014,5106.000,10497.000,5422.000,-863.000,-2536.000,-3932.000,0.000,0.000,0
2026-01-31 12:40:45,4151054,4126.000,8266.000,4456.000,-3449.000,-2750.000,-6863.000,0.000,0.000,0
2026-01-31 12:40:45,4151094,3760.000,7362.000,3494.000,-4900.000,-3237.000,-8239.000,0.000,0.000,0
2026-01-31 12:40:45,4151134,4180.000,8129.000,3158.000,-5221.000,-3445.000,-8260.000,0.000,0.000,0
2026-01-31 12:40:45,4151174,4563.000,8335.000,2778.000,-6653.000,-2992.000,-8023.000,0.000,0.000,0
2026-01-31 12:40:45,4151214,4392.000,6722.000,2173.000,-7837.000,-2156.000,-7551.000,0.000,0.000,0
2026-01-31 12:40:45,4151254,3894.000,5191.000,1818.000,-6657.000,-1389.000,-6846.000,0.000,0.000,0
2026-01-31 12:40:45,4151294,3476.000,3907.000,1399.000,-4790.000,-678.000,-5873.000,0.000,0.000,0
2026-01-31 12:40:45,4151334,2915.000,2746.000,973.000,-2597.000,-66.000,-4851.000,0.000,0.000,0
2026-01-31 12:40:45,4151374,2155.000,2321.000,760.000,917.000,88.000,-2962.000,0.000,0.000,0
2026-01-31 12:40:45,4151414,1827.000,2760.000,835.000,2685.000,-509.000,-859.000,0.000,0.000,0
2026-01-31 12:40:45,4151454,1960.000,4197.000,1194.000,4746.000,-1706.000,2375.000,0.000,0.000,0
2026-01-31 12:40:45,4151494,3810.000,7896.000,2503.000,6821.000,-2753.000,5148.000,0.000,0.000,0
2026-01-31 12:40:45,4151534,5278.000,10009.000,3453.000,5107.000,-3888.000,6632.000,0.000,0.000,0
2026-01-31 12:40:45,4151574,7699.000,12769.000,4990.000,183.000,-4419.000,6645.000,0.000,0.000,0
2026-01-31 12:40:45,4151614,9221.000,13199.000,6105.000,-10028.000,-4680.000,3979.000,0.000,0.000,0
2026-01-31 12:40:45,4151654,8736.000,5335.000,6025.000,-10797.000,-5716.000,2322.000,0.000,0.000,0
2026-01-31 12:40:45,4151694,9206.000,5899.000,5394.000,1423.000,-5499.000,1135.000,0.000,0.000,0
2026-01-31 12:40:45,4151734,6016.000,5102.000,2568.000,5242.000,-3360.000,-247.000,0.000,0.000,0
2026-01-31 12:40:45,4151774,5424.000,4595.000,1779.000,3948.000,-10.000,304.000,0.000,0.000,0
2026-01-31 12:40:45,4151814,5318.000,4737.000,1761.000,3396.000,2189.000,1827.000,0.000,0.000,0
2026-01-31 12:40:45,4151854,5332.000,4587.000,2189.000,4230.000,3751.000,2234.000,0.000,0.000,0
2026-01-31 12:40:45,4151894,5061.000,4244.000,2747.000,3190.000,4531.000,2336.000,0.000,0.000,0
2026-01-31 12:40:45,4151934,4209.000,3571.000,3378.000,2046.000,4509.000,2273.000,0.000,0.000,0
2026-01-31 12:40:45,4151974,3159.000,3124.000,3791.000,1750.000,4373.000,1697.000,0.000,0.000,0
2026-01-31 12:40:45,4152014,2048.000,3065.000,4098.000,801.000,4191.000,1206.000,0.000,0.000,0
2026-01-31 12:40:46,4152054,1626.000,2930.000,4610.000,-617.000,4343.000,717.000,0.000,0.000,0
2026-01-31 12:40:46,4152094,1253.000,3670.000,4853.000,-1432.000,4234.000,434.000,0.000,0.000,0
2026-01-31 12:40:46,4152134,1967.000,6336.000,7032.000,-2460.000,3442.000,-194.000,0.000,0.000,0
2026-01-31 12:40:46,4152174,3746.000,5974.000,7315.000,-5520.000,2695.000,455.000,0.000,0.000,0
2026-01-31 12:40:46,4152214,5324.000,6720.000,7861.000,-3653.000,2664.000,236.000,0.000,0.000,0
2026-01-31 12:40:46,4152254,6973.000,7921.000,8044.000,-5649.000,2154.000,-1198.000,0.000,0.000,0
2026-01-31 12:40:46,4152294,6789.000,5562.000,6897.000,-6643.000,2468.000,-2592.000,0.000,0.000,0
2026-01-31 12:40:46,4152334,6830.000,5800.000,6968.000,-3929.000,2257.000,-2145.000,0.000,0.000,0
2026-01-31 12:40:46,4152374,6483.000,5122.000,7409.000,-2891.000,838.000,-971.000,0.000,0.000,0
2026-01-31 12:40:46,4152414,5060.000,5020.000,6782.000,-3162.000,-613.000,-993.000,0.000,0.000,0
2026-01-31 12:40:46,4152454,4468.000,4467.000,5401.000,-5216.000,-1424.000,-791.000,0.000,0.000,0
2026-01-31 12:40:46,4152494,4394.000,3053.000,4603.000,-6086.000,-2222.000,172.000,0.000,0.000,0
2026-01-31 12:40:46,4152534,4299.000,2473.000,4299.000,-3917.000,-2585.000,1277.000,0.000,0.000,0
2026-01-31 12:40:46,4152574,3592.000,2248.000,4221.000,-2153.000,-2957.000,1867.000,0.000,0.000,0
2026-01-31 12:40:46,4152614,3130.000,1708.000,4277.000,-2379.000,-3260.000,1738.000,0.000,0.000,0
2026-01-31 12:40:46,4152654,2364.000,1479.000,4400.000,-3292.000,-3328.000,1277.000,0.000,0.000,0
2026-01-31 12:40:46,4152694,2559.000,1669.000,4365.000,-5052.000,-3223.000,1184.000,0.000,0.000,0
2026-01-31 12:40:46,4152737,3797.000,-683.000,3804.000,-5658.000,-2822.000,799.000,0.000,0.000,0
2026-01-31 12:40:46,4152774,4206.000,456.000,4083.000,-4290.000,-2979.000,906.000,0.000,0.000,0
2026-01-31 12:40:46,4152814,4017.000,237.000,5355.000,-3584.000,-3214.000,1794.000,0.000,0.000,0
2026-01-31 12:40:46,4152854,7691.000,-1482.000,5786.000,-3220.000,-3606.000,1134.000,0.000,0.000,0
2026-01-31 12:40:46,4152894,8017.000,-2634.000,5464.000,-5385.000,-2493.000,-73.000,0.000,0.000,0
2026-01-31 12:40:46,4152934,9804.000,-2017.000,6282.000,-3032.000,-3884.000,1186.000,0.000,0.000,0
2026-01-31 12:40:46,4152974,10828.000,-2449.000,5875.000,-1655.000,-4067.000,2499.000,0.000,0.000,0
2026-01-31 12:40:46,4153014,12250.000,-2612.000,5733.000,2887.000,-3398.000,1867.000,0.000,0.000,0
2026-01-31 12:40:47,4153054,9108.000,-3602.000,4070.000,-146.000,-2175.000,2092.000,0.000,0.000,0
2026-01-31 12:40:47,4153094,8625.000,-5564.000,1671.000,2294.000,-872.000,2055.000,0.000,0.000,0
2026-01-31 12:40:47,4153134,8822.000,-4138.000,767.000,9229.000,459.000,2016.000,0.000,0.000,0
2026-01-31 12:40:47,4153174,7177.000,-3772.000,1170.000,10784.000,1690.000,1535.000,0.000,0.000,0
2026-01-31 12:40:47,4153214,6260.000,-4395.000,877.000,13622.000,2655.000,997.000,0.000,0.000,0
2026-01-31 12:40:47,4153254,8082.000,-1901.000,2160.000,18508.000,3465.000,1575.000,0.000,0.000,0
2026-01-31 12:40:47,4153294,5028.000,-1004.000,1522.000,16916.000,6573.000,2751.000,0.000,0.000,0
2026-01-31 12:40:47,4153334,4351.000,411.000,-933.000,22645.000,8446.000,3714.000,0.000,0.000,0
2026-01-31 12:40:47,4153374,1568.000,6194.000,-571.000,25943.000,8407.000,2230.000,0.000,0.000,0
2026-01-31 12:40:47,4153414,2762.000,5596.000,-632.000,21287.000,8214.000,-1094.000,0.000,0.000,0
2026-01-31 12:40:47,4153454,1614.000,5839.000,-391.000,20602.000,5700.000,-3755.000,0.000,0.000,0
2026-01-31 12:40:47,4153494,2939.000,12175.000,2362.000,17019.000,1318.000,-4923.000,0.000,0.000,0
2026-01-31 12:40:47,4153534,2740.000,9303.000,1910.000,3604.000,583.000,-3777.000,0.000,0.000,0
2026-01-31 12:40:47,4153574,2506.000,8538.000,933.000,867.000,-754.000,-1850.000,0.000,0.000,0
2026-01-31 12:40:47,4153614,1017.000,9746.000,-5.000,2299.000,-1159.000,414.000,0.000,0.000,0
2026-01-31 12:40:47,4153654,4040.000,11841.000,-1413.000,4295.000,-1220.000,1198.000,0.000,0.000,0
2026-01-31 12:40:47,4153694,4082.000,11326.000,-1191.000,3856.000,-1625.000,1793.000,0.000,0.000,0
2026-01-31 12:40:47,4153734,4581.000,9748.000,-710.000,2942.000,-2252.000,1386.000,0.000,0.000,0
2026-01-31 12:40:47,4153774,5865.000,7301.000,-1477.000,1425.000,-1833.000,1646.000,0.000,0.000,0
2026-01-31 12:40:47,4153814,6125.000,7442.000,-469.000,1840.000,-2275.000,2016.000,0.000,0.000,0
2026-01-31 12:40:47,4153854,6575.000,6513.000,975.000,-1530.000,-3225.000,2649.000,0.000,0.000,0
2026-01-31 12:40:47,4153894,6370.000,4400.000,1316.000,-3810.000,-3469.000,3286.000,0.000,0.000,0
2026-01-31 12:40:47,4153934,4278.000,4720.000,1580.000,-2288.000,-3185.000,3043.000,0.000,0.000,0
2026-01-31 12:40:47,4153974,3002.000,5130.000,2422.000,-5444.000,-2455.000,2387.000,0.000,0.000,0
2026-01-31 12:40:47,4154014,2038.000,3284.000,659.000,-8721.000,-1077.000,2368.000,0.000,0.000,0
2026-01-31 12:40:48,4154054,3037.000,2989.000,-588.000,-6627.000,-1009.000,3593.000,0.000,0.000,0
2026-01-31 12:40:48,4154094,2688.000,3821.000,555.000,-4979.000,-147.000,2814.000,0.000,0.000,0
2026-01-31 12:40:48,4154134,6373.000,4582.000,1322.000,-5541.000,-603.000,4241.000,0.000,0.000,0
2026-01-31 12:40:48,4154174,6856.000,2260.000,955.000,-7659.000,-812.000,3732.000,0.000,0.000,0
2026-01-31 12:40:48,4154214,8916.000,3805.000,2514.000,-2255.000,-1150.000,3859.000,0.000,0.000,0
2026-01-31 12:40:48,4154254,10677.000,6337.000,2711.000,-2352.000,-1159.000,4853.000,0.000,0.000,0
2026-01-31 12:40:48,4154294,10286.000,2971.000,2564.000,-6273.000,-1919.000,4452.000,0.000,0.000,0
2026-01-31 12:40:48,4154334,12860.000,3942.000,2421.000,-5420.000,-2859.000,4168.000,0.000,0.000,0
2026-01-31 12:40:48,4154374,12763.000,5825.000,1270.000,-10800.000,-5230.000,4782.000,0.000,0.000,0
2026-01-31 12:40:48,4154414,8508.000,401.000,1521.000,-19192.000,-8079.000,2422.000,0.000,0.000,0
2026-01-31 12:40:48,4154454,10574.000,-657.000,1237.000,-17258.000,-5015.000,-1427.000,0.000,0.000,0
2026-01-31 12:40:48,4154495,8843.000,-1385.000,1117.000,-8109.000,-627.000,-2638.000,0.000,0.000,0
2026-01-31 12:40:48,4154534,7756.000,-3586.000,1266.000,3388.000,1926.000,-2768.000,0.000,0.000,0
2026-01-31 12:40:48,4154574,6165.000,-383.000,3144.000,15897.000,3091.000,-2000.000,0.000,0.000,0
2026-01-31 12:40:48,4154614,5365.000,3316.000,4389.000,14421.000,3414.000,-1527.000,0.000,0.000,0
2026-01-31 12:40:48,4154654,3850.000,1634.000,3881.000,8234.000,3682.000,-561.000,0.000,0.000,0
2026-01-31 12:40:48,4154694,3048.000,1896.000,3032.000,3621.000,3571.000,585.000,0.000,0.000,0
2026-01-31 12:40:48,4154737,3647.000,454.000,486.000,1472.000,3568.000,2049.000,0.000,0.000,0
2026-01-31 12:40:48,4154774,3878.000,115.000,-355.000,3154.000,3244.000,2418.000,0.000,0.000,0
2026-01-31 12:40:48,4154814,6029.000,3438.000,196.000,6390.000,2115.000,1928.000,0.000,0.000,0
2026-01-31 12:40:48,4154854,7744.000,2695.000,1118.000,3131.000,-137.000,3693.000,0.000,0.000,0
2026-01-31 12:40:48,4154894,9576.000,2662.000,1778.000,3190.000,-3198.000,5334.000,0.000,0.000,0
2026-01-31 12:40:48,4154934,10724.000,2651.000,2339.000,5210.000,-5416.000,5519.000,0.000,0.000,0
2026-01-31 12:40:48,4154974,13149.000,4497.000,2316.000,4583.000,-6003.000,4939.000,0.000,0.000,0
2026-01-31 12:40:48,4155014,13138.000,3991.000,1481.000,-939.000,-5184.000,5372.000,0.000,0.000,0
2026-01-31 12:40:49,4155054,8584.000,2503.000,1728.000,-5394.000,-4732.000,3570.000,0.000,0.000,0
2026-01-31 12:40:49,4155094,9092.000,2383.000,908.000,-8836.000,-3467.000,-90.000,0.000,0.000,0
2026-01-31 12:40:49,4155134,9192.000,621.000,-315.000,-10333.000,-1669.000,-1211.000,0.000,0.000,0
2026-01-31 12:40:49,4155174,7900.000,1111.000,269.000,-6785.000,-123.000,-1844.000,0.000,0.000,0
2026-01-31 12:40:49,4155214,6859.000,1514.000,603.000,-4485.000,1712.000,-1600.000,0.000,0.000,0
2026-01-31 12:40:49,4155254,5253.000,1208.000,741.000,-4350.000,2575.000,-1853.000,0.000,0.000,0
2026-01-31 12:40:49,4155294,4521.000,940.000,373.000,-3514.000,2925.000,-3067.000,0.000,0.000,0
2026-01-31 12:40:49,4155334,4871.000,1465.000,-638.000,-2664.000,2903.000,-3815.000,0.000,0.000,0
2026-01-31 12:40:49,4155374,4972.000,1510.000,-1559.000,-2756.000,2474.000,-3707.000,0.000,0.000,0
2026-01-31 12:40:49,4155414,6703.000,1512.000,-2216.000,-1418.000,1868.000,-2969.000,0.000,0.000,0
2026-01-31 12:40:49,4155454,8859.000,2149.000,-1734.000,1223.000,1300.000,-1591.000,0.000,0.000,0
2026-01-31 12:40:49,4155494,10367.000,2542.000,-667.000,2264.000,712.000,-368.000,0.000,0.000,0
2026-01-31 12:40:49,4155534,11773.000,2780.000,126.000,1160.000,-498.000,818.000,0.000,0.000,0
2026-01-31 12:40:49,4155574,13198.000,1575.000,509.000,-1271.000,-2203.000,2364.000,0.000,0.000,0
2026-01-31 12:40:49,4155614,11600.000,1547.000,1187.000,-1728.000,-2447.000,2549.000,0.000,0.000,0
2026-01-31 12:40:49,4155654,8973.000,834.000,1765.000,-3884.000,-1835.000,2428.000,0.000,0.000,0
2026-01-31 12:40:49,4155694,7636.000,-2067.000,525.000,-4184.000,328.000,1634.000,0.000,0.000,0
2026-01-31 12:40:49,4155734,8105.000,-2572.000,-308.000,1056.000,1769.000,1048.000,0.000,0.000,0
2026-01-31 12:40:49,4155774,7930.000,-1665.000,44.000,4763.000,2238.000,1301.000,0.000,0.000,0
2026-01-31 12:40:49,4155814,6943.000,-309.000,812.000,5104.000,2442.000,1259.000,0.000,0.000,0
2026-01-31 12:40:49,4155854,6041.000,403.000,1224.000,4554.000,2571.000,1187.000,0.000,0.000,0
2026-01-31 12:40:49,4155894,4430.000,535.000,1354.000,5154.000,2873.000,905.000,0.000,0.000,0
2026-01-31 12:40:49,4155934,3338.000,958.000,823.000,6298.000,2973.000,313.000,0.000,0.000,0
2026-01-31 12:40:49,4155974,2984.000,1283.000,542.000,5276.000,2189.000,482.000,0.000,0.000,0
2026-01-31 12:40:49,4156014,4064.000,1908.000,585.000,4153.000,1166.000,1026.000,0.000,0.000,0
2026-01-31 12:40:50,4156054,6392.000,2464.000,967.000,2987.000,-143.000,2105.000,0.000,0.000,0
2026-01-31 12:40:50,4156094,8260.000,2136.000,1414.000,2649.000,-1689.000,3518.000,0.000,0.000,0
2026-01-31 12:40:50,4156134,10139.000,1961.000,2153.000,3037.000,-3645.000,3931.000,0.000,0.000,0
2026-01-31 12:40:50,4156174,11913.000,2202.000,2740.000,1735.000,-5154.000,3359.000,0.000,0.000,0
2026-01-31 12:40:50,4156214,13332.000,2443.000,2384.000,-1277.000,-5153.000,2939.000,0.000,0.000,0
2026-01-31 12:40:50,4156254,11492.000,2232.000,1898.000,-4338.000,-4496.000,2277.000,0.000,0.000,0
2026-01-31 12:40:50,4156294,8454.000,1461.000,1527.000,-7509.000,-3650.000,122.000,0.000,0.000,0
2026-01-31 12:40:50,4156334,9368.000,577.000,-637.000,-8681.000,-1025.000,-2417.000,0.000,0.000,0
2026-01-31 12:40:50,4156374,8753.000,719.000,-767.000,-5725.000,471.000,-2081.000,0.000,0.000,0
2026-01-31 12:40:50,4156417,7444.000,1098.000,-51.000,-2480.000,2181.000,-1225.000,0.000,0.000,0
2026-01-31 12:40:50,4156457,5847.000,877.000,420.000,-1510.000,2836.000,-1794.000,0.000,0.000,0
2026-01-31 12:40:50,4156494,5203.000,742.000,514.000,-1143.000,2885.000,-2363.000,0.000,0.000,0
2026-01-31 12:40:50,4156534,4622.000,986.000,339.000,-569.000,2679.000,-3417.000,0.000,0.000,0
2026-01-31 12:40:50,4156574,4555.000,1387.000,-370.000,-1109.000,2489.000,-3961.000,0.000,0.000,0
2026-01-31 12:40:50,4156614,5481.000,1414.000,-1381.000,-1627.000,2189.000,-3784.000,0.000,0.000,0
2026-01-31 12:40:50,4156654,7128.000,1752.000,-1559.000,-981.000,1924.000,-2949.000,0.000,0.000,0
2026-01-31 12:40:50,4156694,9695.000,2203.000,-1081.000,15.000,1654.000,-1362.000,0.000,0.000,0
2026-01-31 12:40:50,4156734,11570.000,2513.000,4.000,557.000,386.000,836.000,0.000,0.000,0
2026-01-31 12:40:50,4156774,12763.000,2184.000,551.000,-810.000,-1175.000,2102.000,0.000,0.000,0
2026-01-31 12:40:50,4156814,13094.000,1723.000,379.000,-1823.000,-2110.000,2708.000,0.000,0.000,0
2026-01-31 12:40:50,4156854,11245.000,908.000,1126.000,-2830.000,-2368.000,3234.000,0.000,0.000,0
2026-01-31 12:40:50,4156894,8101.000,-621.000,1274.000,-4046.000,-1720.000,2735.000,0.000,0.000,0
2026-01-31 12:40:50,4156934,7136.000,-3158.000,3.000,-3132.000,176.000,1687.000,0.000,0.000,0
2026-01-31 12:40:50,4156974,7817.000,-3043.000,-495.000,2132.000,1302.000,1792.000,0.000,0.000,0
2026-01-31 12:40:50,4157014,7664.000,-1611.000,151.000,4886.000,1899.000,1605.000,0.000,0.000,0
2026-01-31 12:40:51,4157054,6871.000,-392.000,957.000,4292.000,2119.000,1033.000,0.000,0.000,0
2026-01-31 12:40:51,4157094,5242.000,665.000,1600.000,3309.000,2361.000,872.000,0.000,0.000,0
2026-01-31 12:40:51,4157134,4078.000,884.000,1534.000,4249.000,2390.000,385.000,0.000,0.000,0
2026-01-31 12:40:51,4157174,3546.000,1297.000,1183.000,4316.000,2179.000,137.000,0.000,0.000,0
2026-01-31 12:40:51,4157214,3583.000,1404.000,1409.000,3066.000,1446.000,236.000,0.000,0.000,0
2026-01-31 12:40:51,4157254,4474.000,1642.000,1842.000,1750.000,523.000,321.000,0.000,0.000,0
2026-01-31 12:40:51,4157294,6088.000,1616.000,2954.000,675.000,-384.000,651.000,0.000,0.000,0
2026-01-31 12:40:51,4157334,7285.000,1658.000,3744.000,-485.000,-706.000,607.000,0.000,0.000,0
2026-01-31 12:40:51,4157374,8466.000,1373.000,3268.000,-562.000,-1276.000,472.000,0.000,0.000,0
2026-01-31 12:40:51,4157414,9088.000,772.000,2731.000,183.000,-1972.000,689.000,0.000,0.000,0
2026-01-31 12:40:51,4157454,9745.000,1321.000,1904.000,2174.000,-2385.000,711.000,0.000,0.000,0
2026-01-31 12:40:51,4157494,13334.000,2637.000,1778.000,3196.000,-2791.000,1358.000,0.000,0.000,0
2026-01-31 12:40:51,4157534,9897.000,2013.000,2439.000,1766.000,-2106.000,914.000,0.000,0.000,0
2026-01-31 12:40:51,4157574,8015.000,2024.000,1780.000,-1350.000,-1286.000,-1406.000,0.000,0.000,0
2026-01-31 12:40:51,4157614,8849.000,1910.000,382.000,-5381.000,-948.000,-2540.000,0.000,0.000,0
2026-01-31 12:40:51,4157654,8425.000,1477.000,-256.000,-6763.000,-151.000,-2847.000,0.000,0.000,0
2026-01-31 12:40:51,4157694,8155.000,1168.000,-304.000,-5478.000,923.000,-3146.000,0.000,0.000,0
2026-01-31 12:40:51,4157734,7635.000,1047.000,-220.000,-3316.000,1547.000,-3012.000,0.000,0.000,0
2026-01-31 12:40:51,4157774,6668.000,1159.000,41.000,-1123.000,1531.000,-2953.000,0.000,0.000,0
2026-01-31 12:40:51,4157814,5992.000,1568.000,283.000,192.000,1180.000,-2990.000,0.000,0.000,0
2026-01-31 12:40:51,4157854,5350.000,1975.000,412.000,-774.000,225.000,-2863.000,0.000,0.000,0
2026-01-31 12:40:51,4157894,5612.000,2164.000,217.000,-2394.000,-407.000,-2529.000,0.000,0.000,0
2026-01-31 12:40:51,4157934,6114.000,2153.000,-7.000,-3584.000,-851.000,-1745.000,0.000,0.000,0
2026-01-31 12:40:51,4157974,6702.000,1800.000,-91.000,-3656.000,-1109.000,-816.000,0.000,0.000,0
2026-01-31 12:40:51,4158014,7149.000,1502.000,-2.000,-2956.000,-1371.000,-98.000,0.000,0.000,0
2026-01-31 12:40:52,4158054,8002.000,1549.000,219.000,-2430.000,-1653.000,368.000,0.000,0.000,0
2026-01-31 12:40:52,4158094,8852.000,1656.000,366.000,-1924.000,-1979.000,953.000,0.000,0.000,0
2026-01-31 12:40:52,4158134,9748.000,1531.000,515.000,-980.000,-2277.000,1732.000,0.000,0.000,0
2026-01-31 12:40:52,4158174,10866.000,1681.000,448.000,240.000,-2218.000,2211.000,0.000,0.000,0
2026-01-31 12:40:52,4158214,12503.000,2277.000,98.000,452.000,-2002.000,2970.000,0.000,0.000,0
2026-01-31 12:40:52,4158254,12922.000,1446.000,-110.000,1154.000,-2159.000,4874.000,0.000,0.000,0
2026-01-31 12:40:52,4158294,10376.000,331.000,366.000,1658.000,-2075.000,4373.000,0.000,0.000,0
2026-01-31 12:40:52,4158334,7965.000,-1056.000,8.000,1741.000,-1259.000,3001.000,0.000,0.000,0
2026-01-31 12:40:52,4158374,7791.000,-1229.000,-799.000,2538.000,-9.000,2185.000,0.000,0.000,0
2026-01-31 12:40:52,4158414,7722.000,-1188.000,-1053.000,3913.000,1194.000,1605.000,0.000,0.000,0
2026-01-31 12:40:52,4158454,7138.000,-1539.000,-509.000,4560.000,1964.000,513.000,0.000,0.000,0
2026-01-31 12:40:52,4158494,6778.000,-1266.000,100.000,5384.000,2510.000,107.000,0.000,0.000,0
2026-01-31 12:40:52,4158534,5884.000,-169.000,665.000,6426.000,2583.000,373.000,0.000,0.000,0
2026-01-31 12:40:52,4158574,4657.000,148.000,1030.000,6398.000,2330.000,559.000,0.000,0.000,0
2026-01-31 12:40:52,4158614,3843.000,630.000,808.000,5800.000,2119.000,761.000,0.000,0.000,0
2026-01-31 12:40:52,4158654,4382.000,1322.000,1147.000,3751.000,1532.000,952.000,0.000,0.000,0
2026-01-31 12:40:52,4158694,5055.000,1654.000,1905.000,997.000,596.000,1238.000,0.000,0.000,0
2026-01-31 12:40:52,4158737,7205.000,922.000,2586.000,-508.000,-716.000,1147.000,0.000,0.000,0
2026-01-31 12:40:52,4158774,7561.000,1202.000,2821.000,-271.000,-1117.000,1032.000,0.000,0.000,0
2026-01-31 12:40:52,4158814,8595.000,1280.000,2666.000,-164.000,-1478.000,703.000,0.000,0.000,0
2026-01-31 12:40:52,4158854,8661.000,946.000,2050.000,-257.000,-1599.000,63.000,0.000,0.000,0
2026-01-31 12:40:52,4158894,10852.000,1440.000,1171.000,575.000,-1956.000,-734.000,0.000,0.000,0
2026-01-31 12:40:52,4158934,13138.000,2256.000,1156.000,843.000,-2261.000,-476.000,0.000,0.000,0
2026-01-31 12:40:52,4158974,10030.000,1293.000,1857.000,-618.000,-1470.000,-1138.000,0.000,0.000,0
2026-01-31 12:40:52,4159014,9283.000,1727.000,769.000,-3424.000,-328.000,-4527.000,0.000,0.000,0
2026-01-31 12:40:53,4159054,9009.000,1761.000,-8.000,-6124.000,313.000,-4893.000,0.000,0.000,0
2026-01-31 12:40:53,4159094,8606.000,1365.000,-303.000,-6242.000,1323.000,-5009.000,0.000,0.000,0
2026-01-31 12:40:53,4159134,8371.000,1566.000,-309.000,-4661.000,2112.000,-4627.000,0.000,0.000,0
2026-01-31 12:40:53,4159174,7483.000,1551.000,-126.000,-2918.000,2163.000,-3834.000,0.000,0.000,0
2026-01-31 12:40:53,4159214,6481.000,1661.000,65.000,-1081.000,1963.000,-3300.000,0.000,0.000,0
2026-01-31 12:40:53,4159254,5745.000,1872.000,98.000,-457.000,1588.000,-2983.000,0.000,0.000,0
2026-01-31 12:40:53,4159294,5276.000,2006.000,53.000,-1446.000,872.000,-2581.000,0.000,0.000,0
2026-01-31 12:40:53,4159334,5195.000,2023.000,-91.000,-3215.000,147.000,-2161.000,0.000,0.000,0
2026-01-31 12:40:53,4159374,6089.000,1960.000,-394.000,-4374.000,-414.000,-1540.000,0.000,0.000,0
2026-01-31 12:40:53,4159414,6600.000,1913.000,-364.000,-3336.000,-1163.000,181.000,0.000,0.000,0
2026-01-31 12:40:53,4159454,7782.000,1859.000,-158.000,-1729.000,-1487.000,1275.000,0.000,0.000,0
2026-01-31 12:40:53,4159494,8857.000,1916.000,212.000,579.000,-1484.000,2459.000,0.000,0.000,0
2026-01-31 12:40:53,4159534,10098.000,2224.000,569.000,2136.000,-1779.000,3216.000,0.000,0.000,0
2026-01-31 12:40:53,4159574,11388.000,1966.000,1032.000,2141.000,-1981.000,3607.000,0.000,0.000,0
2026-01-31 12:40:53,4159614,12408.000,2037.000,1212.000,982.000,-1735.000,3275.000,0.000,0.000,0
2026-01-31 12:40:53,4159654,13348.000,1759.000,932.000,-48.000,-1251.000,2926.000,0.000,0.000,0
2026-01-31 12:40:53,4159694,12069.000,1132.000,1621.000,-512.000,-1009.000,3187.000,0.000,0.000,0
2026-01-31 12:40:53,4159734,8579.000,-37.000,2760.000,-88.000,-273.000,2829.000,0.000,0.000,0
2026-01-31 12:40:53,4159774,7996.000,-637.000,1400.000,-159.000,1683.000,1184.000,0.000,0.000,0
2026-01-31 12:40:53,4159814,8137.000,-1601.000,429.000,463.000,2281.000,1292.000,0.000,0.000,0
2026-01-31 12:40:53,4159854,7652.000,-925.000,584.000,1825.000,2801.000,851.000,0.000,0.000,0
2026-01-31 12:40:53,4159894,7281.000,-1044.000,678.000,1460.000,2995.000,815.000,0.000,0.000,0
2026-01-31 12:40:53,4159934,6557.000,-1187.000,822.000,2543.000,3118.000,1096.000,0.000,0.000,0
2026-01-31 12:40:53,4159974,6070.000,-792.000,935.000,4884.000,2884.000,796.000,0.000,0.000,0
2026-01-31 12:40:53,4160014,5665.000,-382.000,894.000,6293.000,2655.000,914.000,0.000,0.000,0
2026-01-31 12:40:54,4160054,4957.000,271.000,991.000,5684.000,2176.000,1229.000,0.000,0.000,0
2026-01-31 12:40:54,4160094,4895.000,636.000,1085.000,3525.000,1347.000,1439.000,0.000,0.000,0
2026-01-31 12:40:54,4160134,5507.000,357.000,1254.000,1511.000,533.000,1960.000,0.000,0.000,0
2026-01-31 12:40:54,4160174,6056.000,578.000,1631.000,1662.000,-492.000,1979.000,0.000,0.000,0
2026-01-31 12:40:54,4160214,6732.000,1224.000,2262.000,1861.000,-1273.000,1866.000,0.000,0.000,0
2026-01-31 12:40:54,4160254,7101.000,1337.000,3011.000,689.000,-1911.000,1889.000,0.000,0.000,0
2026-01-31 12:40:54,4160294,6931.000,1014.000,3380.000,79.000,-2302.000,1796.000,0.000,0.000,0
2026-01-31 12:40:54,4160334,6701.000,298.000,3476.000,391.000,-2532.000,1946.000,0.000,0.000,0
2026-01-31 12:40:54,4160374,6636.000,462.000,3596.000,1316.000,-2632.000,1976.000,0.000,0.000,0
2026-01-31 12:40:54,4160414,7160.000,469.000,3619.000,1270.000,-2452.000,1886.000,0.000,0.000,0
2026-01-31 12:40:54,4160457,7810.000,634.000,3171.000,358.000,-1872.000,923.000,0.000,0.000,0
2026-01-31 12:40:54,4160497,8339.000,497.000,2742.000,-171.000,-1594.000,410.000,0.000,0.000,0
2026-01-31 12:40:54,4160534,7890.000,526.000,2657.000,516.000,-1168.000,-334.000,0.000,0.000,0
2026-01-31 12:40:54,4160574,9446.000,1049.000,1795.000,1217.000,-976.000,-1230.000,0.000,0.000,0
2026-01-31 12:40:54,4160614,12446.000,1377.000,794.000,1891.000,-879.000,-1706.000,0.000,0.000,0
2026-01-31 12:40:54,4160654,11718.000,1041.000,1236.000,1980.000,-719.000,-2745.000,0.000,0.000,0
2026-01-31 12:40:54,4160694,9350.000,778.000,1778.000,-64.000,-891.000,-4825.000,0.000,0.000,0
2026-01-31 12:40:54,4160739,8998.000,123.000,-208.000,-1698.000,-172.000,-5743.000,0.000,0.000,0
2026-01-31 12:40:54,4160774,8756.000,-177.000,-672.000,-880.000,81.000,-5172.000,0.000,0.000,0
2026-01-31 12:40:54,4160814,8259.000,-212.000,-924.000,1462.000,485.000,-4006.000,0.000,0.000,0
2026-01-31 12:40:54,4160854,8160.000,21.000,-883.000,2274.000,720.000,-3515.000,0.000,0.000,0
2026-01-31 12:40:54,4160894,7602.000,142.000,-63.000,1110.000,446.000,-2598.000,0.000,0.000,0
2026-01-31 12:40:54,4160934,6096.000,414.000,313.000,-1958.000,-361.000,-1338.000,0.000,0.000,0
2026-01-31 12:40:54,4160974,5517.000,274.000,37.000,-3408.000,-774.000,-646.000,0.000,0.000,0
2026-01-31 12:40:54,4161014,5523.000,632.000,-351.000,-3511.000,-1124.000,88.000,0.000,0.000,0
2026-01-31 12:40:55,4161054,5965.000,1078.000,-567.000,-3207.000,-1260.000,1047.000,0.000,0.000,0
2026-01-31 12:40:55,4161094,6805.000,1393.000,-616.000,-2551.000,-1243.000,2048.000,0.000,0.000,0
2026-01-31 12:40:55,4161134,7759.000,1621.000,-298.000,-1869.000,-1301.000,2724.000,0.000,0.000,0
2026-01-31 12:40:55,4161174,8271.000,1652.000,315.000,-1739.000,-1514.000,2821.000,0.000,0.000,0
2026-01-31 12:40:55,4161214,8319.000,1477.000,828.000,-1867.000,-1664.000,2423.000,0.000,0.000,0
2026-01-31 12:40:55,4161254,8103.000,1515.000,1067.000,-1817.000,-1504.000,1820.000,0.000,0.000,0
2026-01-31 12:40:55,4161294,7899.000,1848.000,1087.000,-1777.000,-902.000,1296.000,0.000,0.000,0
2026-01-31 12:40:55,4161334,8107.000,1613.000,852.000,-1282.000,-418.000,1278.000,0.000,0.000,0
2026-01-31 12:40:55,4161374,8360.000,1648.000,863.000,-229.000,50.000,1328.000,0.000,0.000,0
2026-01-31 12:40:55,4161414,8770.000,1765.000,955.000,-119.000,399.000,1295.000,0.000,0.000,0
2026-01-31 12:40:55,4161454,8761.000,1360.000,868.000,-580.000,688.000,1027.000,0.000,0.000,0
2026-01-31 12:40:55,4161494,9770.000,1367.000,485.000,-879.000,651.000,485.000,0.000,0.000,0
2026-01-31 12:40:55,4161534,10765.000,1519.000,562.000,-1281.000,393.000,741.000,0.000,0.000,0
2026-01-31 12:40:55,4161574,10590.000,289.000,509.000,-2149.000,648.000,459.000,0.000,0.000,0
2026-01-31 12:40:55,4161614,9470.000,-1185.000,-320.000,-1353.000,1576.000,-859.000,0.000,0.000,0
2026-01-31 12:40:55,4161654,7786.000,-1344.000,-581.000,426.000,1877.000,-1304.000,0.000,0.000,0
2026-01-31 12:40:55,4161694,6764.000,-1708.000,-437.000,2027.000,1839.000,-875.000,0.000,0.000,0
2026-01-31 12:40:55,4161734,6672.000,-1442.000,-191.000,3533.000,2045.000,-773.000,0.000,0.000,0
2026-01-31 12:40:55,4161774,6403.000,-1169.000,381.000,3776.000,1807.000,-722.000,0.000,0.000,0
2026-01-31 12:40:55,4161814,6121.000,-992.000,753.000,3457.000,1457.000,-335.000,0.000,0.000,0
2026-01-31 12:40:55,4161854,5682.000,-392.000,904.000,3312.000,1180.000,319.000,0.000,0.000,0
2026-01-31 12:40:55,4161894,5559.000,250.000,999.000,3250.000,829.000,1013.000,0.000,0.000,0
2026-01-31 12:40:55,4161934,5594.000,923.000,1288.000,3025.000,330.000,1838.000,0.000,0.000,0
2026-01-31 12:40:55,4161974,5915.000,1464.000,1642.000,2513.000,-308.000,2568.000,0.000,0.000,0
2026-01-31 12:40:55,4162014,6680.000,1640.000,1917.000,1919.000,-935.000,2948.000,0.000,0.000,0
2026-01-31 12:40:56,4162054,7338.000,1447.000,2158.000,1257.000,-1569.000,2490.000,0.000,0.000,0
2026-01-31 12:40:56,4162094,7327.000,993.000,2294.000,189.000,-1723.000,1614.000,0.000,0.000,0
2026-01-31 12:40:56,4162134,6899.000,941.000,2463.000,-5.000,-1781.000,705.000,0.000,0.000,0
2026-01-31 12:40:56,4162174,6734.000,799.000,2278.000,244.000,-1440.000,-156.000,0.000,0.000,0
2026-01-31 12:40:56,4162214,7544.000,951.000,1876.000,1606.000,-892.000,-698.000,0.000,0.000,0
2026-01-31 12:40:56,4162254,8063.000,1315.000,1764.000,2660.000,-612.000,-1134.000,0.000,0.000,0
2026-01-31 12:40:56,4162294,9592.000,1855.000,1363.000,2561.000,-662.000,-1678.000,0.000,0.000,0
2026-01-31 12:40:56,4162334,10706.000,2273.000,931.000,2057.000,-512.000,-1766.000,0.000,0.000,0
2026-01-31 12:40:56,4162374,10625.000,2408.000,1085.000,1464.000,-274.000,-1983.000,0.000,0.000,0
2026-01-31 12:40:56,4162414,9109.000,1705.000,1171.000,-698.000,228.000,-3250.000,0.000,0.000,0
2026-01-31 12:40:56,4162456,9288.000,1380.000,-33.000,-3544.000,1069.000,-5449.000,0.000,0.000,0
2026-01-31 12:40:56,4162495,8946.000,1941.000,-142.000,-3917.000,1412.000,-5300.000,0.000,0.000,0
2026-01-31 12:40:56,4162537,7006.000,1729.000,430.000,-3308.000,1278.000,-4050.000,0.000,0.000,0
2026-01-31 12:40:56,4162574,6873.000,1857.000,495.000,-2837.000,1098.000,-3724.000,0.000,0.000,0
2026-01-31 12:40:56,4162614,6854.000,2173.000,369.000,-2492.000,1022.000,-2937.000,0.000,0.000,0
2026-01-31 12:40:56,4162654,6810.000,2276.000,-46.000,-3012.000,1055.000,-2001.000,0.000,0.000,0
2026-01-31 12:40:56,4162694,6975.000,2107.000,-143.000,-3412.000,778.000,-942.000,0.000,0.000,0
2026-01-31 12:40:56,4162737,7540.000,1995.000,300.000,-2889.000,25.000,638.000,0.000,0.000,0
2026-01-31 12:40:56,4162776,7652.000,1962.000,526.000,-2621.000,-302.000,1075.000,0.000,0.000,0
2026-01-31 12:40:56,4162814,8542.000,1821.000,923.000,-2571.000,-959.000,1472.000,0.000,0.000,0
2026-01-31 12:40:56,4162854,9238.000,1835.000,1034.000,-3486.000,-1584.000,1599.000,0.000,0.000,0
2026-01-31 12:40:56,4162894,9644.000,1681.000,1004.000,-4157.000,-1831.000,1981.000,0.000,0.000,0
2026-01-31 12:40:56,4162934,9667.000,1205.000,904.000,-3183.000,-1568.000,2411.000,0.000,0.000,0
2026-01-31 12:40:56,4162974,10865.000,1254.000,807.000,-985.000,-1485.000,2745.000,0.000,0.000,0
2026-01-31 12:40:56,4163014,10418.000,1157.000,1449.000,1080.000,-1185.000,3201.000,0.000,0.000,0
2026-01-31 12:40:57,4163054,9587.000,1178.000,1810.000,2016.000,-761.000,3106.000,0.000,0.000,0
2026-01-31 12:40:57,4163094,7051.000,185.000,1849.000,1349.000,-98.000,1667.000,0.000,0.000,0
2026-01-31 12:40:57,4163134,6137.000,54.000,1011.000,701.000,655.000,-679.000,0.000,0.000,0
2026-01-31 12:40:57,4163174,6327.000,539.000,130.000,541.000,1385.000,-1368.000,0.000,0.000,0
2026-01-31 12:40:57,4163214,4478.000,-57.000,159.000,3684.000,1694.000,-1384.000,0.000,0.000,0
2026-01-31 12:40:57,4163254,4155.000,1095.000,775.000,6164.000,1082.000,-1719.000,0.000,0.000,0
2026-01-31 12:40:57,4163294,4449.000,1872.000,1071.000,5612.000,454.000,-1392.000,0.000,0.000,0
2026-01-31 12:40:57,4163334,4547.000,2151.000,1357.000,4401.000,-450.000,-802.000,0.000,0.000,0
2026-01-31 12:40:57,4163374,5601.000,2770.000,1772.000,3010.000,-1752.000,81.000,0.000,0.000,0
2026-01-31 12:40:57,4163414,6856.000,2563.000,2055.000,350.000,-2847.000,1136.000,0.000,0.000,0
2026-01-31 12:40:57,4163454,8261.000,2023.000,2101.000,-1977.000,-3505.000,1434.000,0.000,0.000,0
2026-01-31 12:40:57,4163494,9346.000,1558.000,2081.000,-3201.000,-3540.000,1119.000,0.000,0.000,0
2026-01-31 12:40:57,4163534,9289.000,1413.000,2003.000,-3289.000,-3094.000,968.000,0.000,0.000,0
2026-01-31 12:40:57,4163574,11128.000,1315.000,1569.000,-1945.000,-2808.000,1275.000,0.000,0.000,0
2026-01-31 12:40:57,4163614,11853.000,2433.000,1546.000,2398.000,-1172.000,2821.000,0.000,0.000,0
2026-01-31 12:40:57,4163654,9896.000,2504.000,1580.000,1324.000,315.000,2186.000,0.000,0.000,0
2026-01-31 12:40:57,4163694,10576.000,1967.000,57.000,-1932.000,1555.000,238.000,0.000,0.000,0
2026-01-31 12:40:57,4163734,9970.000,1719.000,-821.000,-3444.000,2772.000,-324.000,0.000,0.000,0
2026-01-31 12:40:57,4163774,7822.000,1176.000,-629.000,-3011.000,2949.000,-905.000,0.000,0.000,0
2026-01-31 12:40:57,4163814,6262.000,1121.000,127.000,-1634.000,2480.000,-1761.000,0.000,0.000,0
2026-01-31 12:40:57,4163854,5164.000,1442.000,540.000,-1001.000,2354.000,-2456.000,0.000,0.000,0
2026-01-31 12:40:57,4163894,5211.000,1927.000,-153.000,-1130.000,2473.000,-2918.000,0.000,0.000,0
2026-01-31 12:40:57,4163934,5643.000,1742.000,-1080.000,-1446.000,2739.000,-2773.000,0.000,0.000,0
2026-01-31 12:40:57,4163974,6265.000,1273.000,-1081.000,-477.000,2597.000,-2357.000,0.000,0.000,0
2026-01-31 12:40:57,4164014,7660.000,1540.000,-647.000,726.000,1934.000,-1898.000,0.000,0.000,0
2026-01-31 12:40:58,4164054,9002.000,1860.000,49.000,1799.000,1002.000,-1029.000,0.000,0.000,0
2026-01-31 12:40:58,4164094,9387.000,2016.000,1115.000,1740.000,-114.000,-531.000,0.000,0.000,0
2026-01-31 12:40:58,4164134,9525.000,2371.000,1792.000,126.000,-1290.000,-67.000,0.000,0.000,0
2026-01-31 12:40:58,4164174,10912.000,2759.000,2373.000,-1705.000,-1355.000,1221.000,0.000,0.000,0
2026-01-31 12:40:58,4164214,9728.000,2299.000,2864.000,-2628.000,-967.000,2377.000,0.000,0.000,0
2026-01-31 12:40:58,4164254,7890.000,420.000,3170.000,-3583.000,-1591.000,2154.000,0.000,0.000,0
2026-01-31 12:40:58,4164294,8656.000,-888.000,1968.000,-2952.000,-705.000,776.000,0.000,0.000,0
2026-01-31 12:40:58,4164334,8003.000,-1169.000,710.000,-149.000,662.000,755.000,0.000,0.000,0
2026-01-31 12:40:58,4164374,6295.000,537.000,936.000,5189.000,924.000,711.000,0.000,0.000,0
2026-01-31 12:40:58,4164414,5287.000,1504.000,1154.000,5734.000,956.000,907.000,0.000,0.000,0
2026-01-31 12:40:58,4164457,4861.000,2313.000,1284.000,5621.000,479.000,730.000,0.000,0.000,0
2026-01-31 12:40:58,4164497,5279.000,2753.000,1816.000,4226.000,-469.000,1089.000,0.000,0.000,0
2026-01-31 12:40:58,4164534,5442.000,2853.000,2142.000,2931.000,-1002.000,1383.000,0.000,0.000,0
2026-01-31 12:40:58,4164574,6471.000,2531.000,2381.000,-232.000,-1961.000,1850.000,0.000,0.000,0
2026-01-31 12:40:58,4164614,6816.000,1837.000,2382.000,-2556.000,-2443.000,1790.000,0.000,0.000,0
2026-01-31 12:40:58,4164654,7908.000,1670.000,2064.000,-3154.000,-2467.000,1208.000,0.000,0.000,0
2026-01-31 12:40:58,4164694,9017.000,1296.000,1700.000,-2647.000,-2223.000,1119.000,0.000,0.000,0
2026-01-31 12:40:58,4164734,10570.000,991.000,1824.000,156.000,-2014.000,833.000,0.000,0.000,0
2026-01-31 12:40:58,4164774,11608.000,2133.000,2064.000,2086.000,-1385.000,1127.000,0.000,0.000,0
2026-01-31 12:40:58,4164814,10463.000,2291.000,2197.000,1950.000,-314.000,1053.000,0.000,0.000,0
2026-01-31 12:40:58,4164854,8840.000,1787.000,1555.000,-246.000,912.000,-675.000,0.000,0.000,0
2026-01-31 12:40:58,4164894,10293.000,1242.000,-149.000,-2875.000,1943.000,-2493.000,0.000,0.000,0
2026-01-31 12:40:58,4164934,10034.000,544.000,-570.000,-3419.000,2979.000,-3307.000,0.000,0.000,0
2026-01-31 12:40:58,4164974,8050.000,363.000,47.000,-2498.000,3586.000,-4439.000,0.000,0.000,0
2026-01-31 12:40:58,4165014,6764.000,207.000,448.000,-1411.000,3200.000,-5558.000,0.000,0.000,0
2026-01-31 12:40:59,4165054,6039.000,982.000,605.000,820.000,2863.000,-5987.000,0.000,0.000,0
2026-01-31 12:40:59,4165094,5710.000,1905.000,37.000,1985.000,2800.000,-5716.000,0.000,0.000,0
2026-01-31 12:40:59,4165134,5238.000,2294.000,-83.000,1750.000,2188.000,-3559.000,0.000,0.000,0
2026-01-31 12:40:59,4165174,5359.000,2637.000,324.000,1153.000,1334.000,-1200.000,0.000,0.000,0
2026-01-31 12:40:59,4165214,6239.000,2771.000,969.000,479.000,250.000,1324.000,0.000,0.000,0
2026-01-31 12:40:59,4165254,7779.000,2599.000,1288.000,7.000,-716.000,3564.000,0.000,0.000,0
2026-01-31 12:40:59,4165294,8707.000,2323.000,1518.000,-356.000,-1657.000,5259.000,0.000,0.000,0
2026-01-31 12:40:59,4165334,9940.000,2369.000,1678.000,-835.000,-2499.000,6491.000,0.000,0.000,0
2026-01-31 12:40:59,4165374,11726.000,2164.000,1632.000,-299.000,-2767.000,7747.000,0.000,0.000,0
2026-01-31 12:40:59,4165414,11228.000,1331.000,2385.000,1088.000,-2576.000,7960.000,0.000,0.000,0
2026-01-31 12:40:59,4165454,8460.000,425.000,3182.000,1247.000,-1753.000,5726.000,0.000,0.000,0
2026-01-31 12:40:59,4165494,8084.000,-744.000,1082.000,-614.000,636.000,1342.000,0.000,0.000,0
2026-01-31 12:40:59,4165534,6755.000,-811.000,276.000,2107.000,1540.000,72.000,0.000,0.000,0
2026-01-31 12:40:59,4165574,6227.000,405.000,338.000,5613.000,1944.000,-748.000,0.000,0.000,0
2026-01-31 12:40:59,4165614,5180.000,1478.000,736.000,6578.000,1861.000,-883.000,0.000,0.000,0
2026-01-31 12:40:59,4165654,4814.000,2237.000,1317.000,6434.000,1189.000,-1291.000,0.000,0.000,0
2026-01-31 12:40:59,4165694,5080.000,2809.000,2147.000,5610.000,155.000,-1558.000,0.000,0.000,0
2026-01-31 12:40:59,4165734,5504.000,2870.000,2751.000,3570.000,-487.000,-1555.000,0.000,0.000,0
2026-01-31 12:40:59,4165774,5984.000,2285.000,2701.000,530.000,-846.000,-1453.000,0.000,0.000,0
2026-01-31 12:40:59,4165814,6673.000,2092.000,2676.000,-2294.000,-1622.000,-1366.000,0.000,0.000,0
2026-01-31 12:40:59,4165854,8001.000,1340.000,2413.000,-4000.000,-2013.000,-1238.000,0.000,0.000,0
2026-01-31 12:40:59,4165894,9536.000,1023.000,1890.000,-998.000,-1517.000,-549.000,0.000,0.000,0
2026-01-31 12:40:59,4165934,11265.000,1686.000,2163.000,1838.000,-1686.000,712.000,0.000,0.000,0
2026-01-31 12:40:59,4165974,11643.000,2176.000,2425.000,3111.000,-1238.000,1611.000,0.000,0.000,0
2026-01-31 12:40:59,4166014,10500.000,2513.000,2515.000,2166.000,-267.000,1197.000,0.000,0.000,0
2026-01-31 12:41:00,4166054,8963.000,1893.000,1465.000,-1623.000,679.000,-32.000,0.000,0.000,0
2026-01-31 12:41:00,4166094,9069.000,1571.000,74.000,-3523.000,1480.000,-848.000,0.000,0.000,0
2026-01-31 12:41:00,4166134,7963.000,1516.000,36.000,-3342.000,1868.000,-503.000,0.000,0.000,0
2026-01-31 12:41:00,4166174,6709.000,1184.000,426.000,-1889.000,1785.000,-438.000,0.000,0.000,0
2026-01-31 12:41:00,4166214,6229.000,1357.000,622.000,-575.000,1449.000,-842.000,0.000,0.000,0
2026-01-31 12:41:00,4166254,6109.000,1581.000,13.000,-263.000,1623.000,-1402.000,0.000,0.000,0
2026-01-31 12:41:00,4166294,6027.000,1458.000,-514.000,-412.000,1885.000,-1523.000,0.000,0.000,0
2026-01-31 12:41:00,4166334,6365.000,1703.000,-437.000,-58.000,1669.000,-1275.000,0.000,0.000,0
2026-01-31 12:41:00,4166374,6958.000,1741.000,109.000,975.000,868.000,-312.000,0.000,0.000,0
2026-01-31 12:41:00,4166414,7655.000,3229.000,1318.000,1484.000,-68.000,254.000,0.000,0.000,0
2026-01-31 12:41:00,4166454,8397.000,2805.000,1299.000,-1255.000,-796.000,1277.000,0.000,0.000,0
2026-01-31 12:41:00,4166494,8691.000,2425.000,919.000,-2607.000,-2105.000,2185.000,0.000,0.000,0
2026-01-31 12:41:00,4166534,9762.000,2392.000,1442.000,-2914.000,-3344.000,3379.000,0.000,0.000,0
2026-01-31 12:41:00,4166574,10030.000,1471.000,2160.000,-2411.000,-3190.000,4291.000,0.000,0.000,0
2026-01-31 12:41:00,4166614,8656.000,977.000,3208.000,-556.000,-2406.000,3312.000,0.000,0.000,0
2026-01-31 12:41:00,4166654,8623.000,322.000,2384.000,-4236.000,-1004.000,105.000,0.000,0.000,0
2026-01-31 12:41:00,4166694,8216.000,-611.000,1054.000,-2939.000,701.000,-1534.000,0.000,0.000,0
2026-01-31 12:41:00,4166737,6494.000,684.000,1126.000,725.000,1763.000,-2736.000,0.000,0.000,0
2026-01-31 12:41:00,4166774,6010.000,848.000,1156.000,735.000,1867.000,-2880.000,0.000,0.000,0
2026-01-31 12:41:00,4166814,5120.000,1297.000,1169.000,848.000,1890.000,-3155.000,0.000,0.000,0
2026-01-31 12:41:00,4166854,4920.000,1714.000,1231.000,1400.000,1453.000,-3222.000,0.000,0.000,0
2026-01-31 12:41:00,4166894,5764.000,2081.000,1142.000,1686.000,761.000,-2932.000,0.000,0.000,0
2026-01-31 12:41:00,4166934,6562.000,2437.000,1292.000,763.000,91.000,-2308.000,0.000,0.000,0
2026-01-31 12:41:00,4166974,6947.000,2150.000,1598.000,-1081.000,-821.000,-1280.000,0.000,0.000,0
2026-01-31 12:41:00,4167014,7675.000,1820.000,1656.000,-1913.000,-1545.000,-518.000,0.000,0.000,0
2026-01-31 12:41:01,4167054,8759.000,2066.000,1494.000,-1483.000,-1942.000,859.000,0.000,0.000,0
2026-01-31 12:41:01,4167094,10893.000,1824.000,1486.000,-1113.000,-2486.000,1723.000,0.000,0.000,0
2026-01-31 12:41:01,4167134,11593.000,2551.000,2084.000,650.000,-2764.000,2739.000,0.000,0.000,0
2026-01-31 12:41:01,4167174,10178.000,2906.000,2395.000,-200.000,-2154.000,3847.000,0.000,0.000,0
2026-01-31 12:41:01,4167214,9261.000,1913.000,1395.000,-2691.000,-899.000,2677.000,0.000,0.000,0
2026-01-31 12:41:01,4167254,10022.000,1549.000,-177.000,-4262.000,422.000,1173.000,0.000,0.000,0
2026-01-31 12:41:01,4167294,8717.000,989.000,-459.000,-4957.000,1122.000,669.000,0.000,0.000,0
2026-01-31 12:41:01,4167334,7149.000,319.000,123.000,-3922.000,1434.000,-305.000,0.000,0.000,0
2026-01-31 12:41:01,4167374,6085.000,634.000,650.000,-2039.000,1426.000,-1292.000,0.000,0.000,0
2026-01-31 12:41:01,4167414,5584.000,1360.000,52.000,28.000,2213.000,-2250.000,0.000,0.000,0
2026-01-31 12:41:01,4167454,5851.000,1527.000,-584.000,938.000,2476.000,-2524.000,0.000,0.000,0
2026-01-31 12:41:01,4167494,6127.000,1821.000,-366.000,1406.000,2090.000,-2217.000,0.000,0.000,0
2026-01-31 12:41:01,4167534,6690.000,2109.000,266.000,785.000,1215.000,-1561.000,0.000,0.000,0
2026-01-31 12:41:01,4167574,8276.000,2389.000,602.000,63.000,478.000,-638.000,0.000,0.000,0
2026-01-31 12:41:01,4167614,9031.000,2031.000,936.000,437.000,139.000,516.000,0.000,0.000,0
2026-01-31 12:41:01,4167654,9181.000,2578.000,1636.000,783.000,-585.000,1235.000,0.000,0.000,0
2026-01-31 12:41:01,4167694,9942.000,2833.000,2415.000,-908.000,-1557.000,2649.000,0.000,0.000,0
2026-01-31 12:41:01,4167734,9402.000,2024.000,3138.000,-2105.000,-1775.000,3548.000,0.000,0.000,0
2026-01-31 12:41:01,4167774,8328.000,607.000,2749.000,-2744.000,-1590.000,2348.000,0.000,0.000,0
2026-01-31 12:41:01,4167814,8797.000,-772.000,1289.000,-4074.000,-45.000,-640.000,0.000,0.000,0
2026-01-31 12:41:01,4167854,7862.000,-1139.000,551.000,-1040.000,1082.000,-1646.000,0.000,0.000,0
2026-01-31 12:41:01,4167894,6482.000,-41.000,1007.000,2564.000,1262.000,-1734.000,0.000,0.000,0
2026-01-31 12:41:01,4167934,4975.000,838.000,1527.000,3886.000,956.000,-1422.000,0.000,0.000,0
2026-01-31 12:41:01,4167974,4670.000,1356.000,1701.000,4878.000,981.000,-1747.000,0.000,0.000,0
2026-01-31 12:41:01,4168014,4431.000,2320.000,1898.000,4851.000,658.000,-2077.000,0.000,0.000,0
2026-01-31 12:41:02,4168054,5041.000,2819.000,2063.000,2333.000,-382.000,-1314.000,0.000,0.000,0
2026-01-31 12:41:02,4168094,5894.000,2556.000,2274.000,-391.000,-1375.000,102.000,0.000,0.000,0
2026-01-31 12:41:02,4168134,6745.000,2102.000,2203.000,-1711.000,-2105.000,958.000,0.000,0.000,0
2026-01-31 12:41:02,4168174,8781.000,1593.000,1980.000,-1813.000,-2741.000,1879.000,0.000,0.000,0
2026-01-31 12:41:02,4168214,10422.000,1746.000,1875.000,-1115.000,-2843.000,2248.000,0.000,0.000,0
2026-01-31 12:41:02,4168254,12643.000,1686.000,1656.000,709.000,-2687.000,2595.000,0.000,0.000,0
2026-01-31 12:41:02,4168294,10680.000,2523.000,2010.000,910.000,-1389.000,2893.000,0.000,0.000,0
2026-01-31 12:41:02,4168334,10320.000,1527.000,869.000,-1564.000,-161.000,1296.000,0.000,0.000,0
2026-01-31 12:41:02,4168374,10943.000,1309.000,-339.000,-2381.000,1219.000,-147.000,0.000,0.000,0
2026-01-31 12:41:02,4168414,9320.000,965.000,-121.000,-2769.000,1981.000,-1094.000,0.000,0.000,0
2026-01-31 12:41:02,4168457,6316.000,194.000,904.000,-2222.000,1980.000,-3307.000,0.000,0.000,0
2026-01-31 12:41:02,4168497,5459.000,972.000,760.000,-964.000,2139.000,-4278.000,0.000,0.000,0
2026-01-31 12:41:02,4168534,5281.000,1322.000,93.000,-503.000,2328.000,-4400.000,0.000,0.000,0
2026-01-31 12:41:02,4168574,5366.000,1581.000,-377.000,1159.000,2621.000,-3976.000,0.000,0.000,0
2026-01-31 12:41:02,4168614,5846.000,1991.000,-73.000,1802.000,2316.000,-3189.000,0.000,0.000,0
2026-01-31 12:41:02,4168654,6610.000,2413.000,606.000,1152.000,1392.000,-1632.000,0.000,0.000,0
2026-01-31 12:41:02,4168694,8263.000,2452.000,1269.000,460.000,186.000,242.000,0.000,0.000,0
2026-01-31 12:41:02,4168737,8764.000,2408.000,2003.000,100.000,-936.000,1977.000,0.000,0.000,0
2026-01-31 12:41:02,4168774,8780.000,2639.000,2013.000,-522.000,-1212.000,2678.000,0.000,0.000,0
2026-01-31 12:41:02,4168814,10030.000,2735.000,1962.000,-1342.000,-1599.000,4808.000,0.000,0.000,0
2026-01-31 12:41:02,4168854,10141.000,1717.000,2421.000,-616.000,-1856.000,6262.000,0.000,0.000,0
2026-01-31 12:41:02,4168894,8694.000,298.000,2930.000,-182.000,-1739.000,4910.000,0.000,0.000,0
2026-01-31 12:41:02,4168934,9006.000,-898.000,780.000,-991.000,672.000,1165.000,0.000,0.000,0
2026-01-31 12:41:02,4168974,7494.000,-966.000,154.000,1935.000,1440.000,184.000,0.000,0.000,0
2026-01-31 12:41:02,4169014,5916.000,218.000,642.000,5647.000,1656.000,-409.000,0.000,0.000,0
2026-01-31 12:41:03,4169054,4504.000,1157.000,982.000,6904.000,1529.000,-624.000,0.000,0.000,0
2026-01-31 12:41:03,4169094,4298.000,1865.000,1195.000,7541.000,1319.000,-1100.000,0.000,0.000,0
2026-01-31 12:41:03,4169134,4617.000,2752.000,1913.000,6668.000,500.000,-1270.000,0.000,0.000,0
2026-01-31 12:41:03,4169174,5977.000,2979.000,2894.000,3250.000,-334.000,-933.000,0.000,0.000,0
2026-01-31 12:41:03,4169214,7093.000,2819.000,3404.000,-1091.000,-1055.000,-250.000,0.000,0.000,0
2026-01-31 12:41:03,4169254,7466.000,2037.000,3317.000,-4153.000,-1703.000,507.000,0.000,0.000,0
2026-01-31 12:41:03,4169294,8335.000,1099.000,2790.000,-3681.000,-1887.000,1255.000,0.000,0.000,0
2026-01-31 12:41:03,4169334,10614.000,1232.000,2105.000,1428.000,-1522.000,2346.000,0.000,0.000,0
2026-01-31 12:41:03,4169374,11617.000,2057.000,2348.000,4004.000,-1492.000,3124.000,0.000,0.000,0
2026-01-31 12:41:03,4169414,10147.000,2309.000,2393.000,3535.000,-208.000,2903.000,0.000,0.000,0
2026-01-31 12:41:03,4169454,10204.000,2051.000,1216.000,1233.000,958.000,626.000,0.000,0.000,0
2026-01-31 12:41:03,4169494,10301.000,1973.000,349.000,-1218.000,1581.000,-595.000,0.000,0.000,0
2026-01-31 12:41:03,4169534,8765.000,1121.000,358.000,-2498.000,2061.000,-1541.000,0.000,0.000,0
2026-01-31 12:41:03,4169574,6745.000,801.000,970.000,-2173.000,1989.000,-2848.000,0.000,0.000,0
2026-01-31 12:41:03,4169614,5778.000,830.000,1137.000,-1699.000,1742.000,-3802.000,0.000,0.000,0
2026-01-31 12:41:03,4169654,5417.000,1310.000,834.000,-1023.000,1924.000,-4382.000,0.000,0.000,0
2026-01-31 12:41:03,4169694,5580.000,1654.000,323.000,-708.000,2180.000,-4120.000,0.000,0.000,0
2026-01-31 12:41:03,4169734,5939.000,1871.000,520.000,-763.000,1953.000,-3105.000,0.000,0.000,0
2026-01-31 12:41:03,4169774,6601.000,1857.000,999.000,-701.000,1448.000,-1537.000,0.000,0.000,0
2026-01-31 12:41:03,4169814,8260.000,2181.000,1577.000,160.000,663.000,349.000,0.000,0.000,0
2026-01-31 12:41:03,4169854,8742.000,2113.000,2250.000,227.000,32.000,1656.000,0.000,0.000,0
2026-01-31 12:41:03,4169894,9156.000,2565.000,2478.000,-497.000,-627.000,2692.000,0.000,0.000,0
2026-01-31 12:41:03,4169934,10274.000,2062.000,2527.000,-932.000,-1139.000,4498.000,0.000,0.000,0
2026-01-31 12:41:03,4169974,9437.000,1059.000,3090.000,543.000,-1461.000,5045.000,0.000,0.000,0
2026-01-31 12:41:03,4170014,8383.000,166.000,3246.000,888.000,-1488.000,3616.000,0.000,0.000,0
2026-01-31 12:41:04,4170054,8731.000,-254.000,1889.000,-32.000,-490.000,1325.000,0.000,0.000,0
2026-01-31 12:41:04,4170094,7281.000,-349.000,659.000,2426.000,442.000,155.000,0.000,0.000,0
2026-01-31 12:41:04,4170134,5945.000,902.000,1161.000,5130.000,529.000,-171.000,0.000,0.000,0
2026-01-31 12:41:04,4170174,4659.000,1494.000,1557.000,5288.000,183.000,-65.000,0.000,0.000,0
2026-01-31 12:41:04,4170214,4333.000,1972.000,1777.000,5274.000,-252.000,-157.000,0.000,0.000,0
2026-01-31 12:41:04,4170254,4581.000,2856.000,2200.000,4187.000,-1072.000,243.000,0.000,0.000,0
2026-01-31 12:41:04,4170294,5452.000,2949.000,2650.000,1182.000,-2223.000,1257.000,0.000,0.000,0
2026-01-31 12:41:04,4170334,6473.000,2450.000,2854.000,-1761.000,-3053.000,1770.000,0.000,0.000,0
