datetime_local,uptime_ms,acc_x,acc_y,acc_z,gyro_x,gyro_y,gyro_z,speed_mps,turn_rate_deg_s,gps_valid
2026-01-31 04:14:24,19494,-853.000,3827.000,7361.000,-871.000,735.000,2.000,0.000,0.000,0
2026-01-31 04:14:24,19534,-843.000,3998.000,7317.000,-96.000,-694.000,-238.000,0.000,0.000,0
2026-01-31 04:14:24,19574,-798.000,3961.000,7035.000,-372.000,-148.000,-86.000,0.000,0.000,0
2026-01-31 04:14:24,19615,-848.000,3895.000,7520.000,-459.000,384.000,-46.000,0.000,0.000,0
2026-01-31 04:14:24,19654,-846.000,3890.000,7456.000,32.000,-213.000,-9.000,0.000,0.000,0
2026-01-31 04:14:24,19694,-816.000,3896.000,7269.000,34.000,-256.000,-20.000,0.000,0.000,0
2026-01-31 04:14:24,19734,-811.000,3889.000,7326.000,-29.000,61.000,-13.000,0.000,0.000,0
2026-01-31 04:14:24,19774,-830.000,3876.000,7423.000,-41.000,85.000,4.000,0.000,0.000,0
2026-01-31 04:14:24,19814,-833.000,3847.000,7450.000,-43.000,-57.000,-32.000,0.000,0.000,0
2026-01-31 04:14:24,19854,-813.000,3916.000,7356.000,-25.000,-229.000,-64.000,0.000,0.000,0
2026-01-31 04:14:24,19894,-798.000,3800.000,7397.000,54.000,-237.000,4.000,0.000,0.000,0
2026-01-31 04:14:24,19934,-760.000,3944.000,7264.000,-166.000,-233.000,-96.000,0.000,0.000,0
2026-01-31 04:14:24,19974,-762.000,3878.000,7302.000,-166.000,20.000,49.000,0.000,0.000,0
2026-01-31 04:14:24,20014,-783.000,3836.000,7299.000,-91.000,260.000,146.000,0.000,0.000,0
2026-01-31 04:14:24,20054,-803.000,3865.000,7153.000,-377.000,673.000,91.000,0.000,0.000,0
2026-01-31 04:14:24,20094,-883.000,3799.000,7304.000,-1295.000,1289.000,213.000,0.000,0.000,0
2026-01-31 04:14:24,20134,-1073.000,3248.000,7887.000,-2558.000,1460.000,174.000,0.000,0.000,0
2026-01-31 04:14:24,20174,-1255.000,2678.000,6145.000,-5885.000,2340.000,-434.000,0.000,0.000,0
2026-01-31 04:14:24,20214,-1573.000,2506.000,7712.000,-6827.000,3645.000,-381.000,0.000,0.000,0
2026-01-31 04:14:24,20254,-2026.000,1379.000,5786.000,-6634.000,4913.000,-499.000,0.000,0.000,0
2026-01-31 04:14:24,20294,-2658.000,3457.000,9188.000,4702.000,3621.000,-2777.000,0.000,0.000,0
2026-01-31 04:14:24,20334,-2973.000,2204.000,9181.000,408.000,1274.000,-82.000,0.000,0.000,0
2026-01-31 04:14:24,20374,-2891.000,1190.000,7205.000,-726.000,-468.000,92.000,0.000,0.000,0
2026-01-31 04:14:24,20414,-2884.000,1537.000,7297.000,219.000,615.000,-910.000,0.000,0.000,0
2026-01-31 04:14:25,20454,-2927.000,2338.000,7896.000,171.000,497.000,-662.000,0.000,0.000,0
2026-01-31 04:14:25,20494,-2987.000,1795.000,7706.000,-37.000,200.000,-222.000,0.000,0.000,0
2026-01-31 04:14:25,20534,-2969.000,1914.000,7485.000,-17.000,106.000,-267.000,0.000,0.000,0
2026-01-31 04:14:25,20574,-3022.000,1950.000,7774.000,117.000,-326.000,650.000,0.000,0.000,0
2026-01-31 04:14:25,20614,-2965.000,1333.000,7344.000,-192.000,-297.000,463.000,0.000,0.000,0
2026-01-31 04:14:25,20654,-2960.000,2004.000,7776.000,217.000,234.000,-408.000,0.000,0.000,0
2026-01-31 04:14:25,20694,-2975.000,1969.000,7662.000,-84.000,-61.000,54.000,0.000,0.000,0
2026-01-31 04:14:25,20734,-2962.000,1710.000,7568.000,-14.000,-77.000,206.000,0.000,0.000,0
2026-01-31 04:14:25,20774,-2958.000,1782.000,7607.000,62.000,40.000,-8.000,0.000,0.000,0
2026-01-31 04:14:25,20814,-2958.000,1904.000,7649.000,52.000,38.000,-44.000,0.000,0.000,0
2026-01-31 04:14:25,20854,-2964.000,1835.000,7619.000,-21.000,-27.000,48.000,0.000,0.000,0
2026-01-31 04:14:25,20894,-2961.000,1785.000,7574.000,-5.000,-1.000,-2.000,0.000,0.000,0
2026-01-31 04:14:25,20934,-2969.000,1865.000,7637.000,34.000,46.000,-75.000,0.000,0.000,0
2026-01-31 04:14:25,20974,-2969.000,1891.000,7630.000,-2.000,1.000,-4.000,0.000,0.000,0
2026-01-31 04:14:25,21014,-2975.000,1830.000,7613.000,-7.000,-22.000,58.000,0.000,0.000,0
2026-01-31 04:14:25,21054,-2961.000,1842.000,7616.000,21.000,11.000,6.000,0.000,0.000,0
2026-01-31 04:14:25,21094,-2972.000,1857.000,7614.000,14.000,2.000,9.000,0.000,0.000,0
2026-01-31 04:14:25,21134,-2968.000,1838.000,7610.000,3.000,-4.000,16.000,0.000,0.000,0
2026-01-31 04:14:25,21174,-2969.000,1840.000,7600.000,16.000,13.000,-14.000,0.000,0.000,0
2026-01-31 04:14:25,21214,-2971.000,1860.000,7621.000,12.000,10.000,-18.000,0.000,0.000,0
2026-01-31 04:14:25,21254,-2970.000,1856.000,7613.000,-5.000,-6.000,6.000,0.000,0.000,0
2026-01-31 04:14:25,21297,-2973.000,1847.000,7614.000,4.000,0.000,7.000,0.000,0.000,0
2026-01-31 04:14:25,21337,-2969.000,1862.000,7611.000,11.000,-3.000,19.000,0.000,0.000,0
2026-01-31 04:14:25,21374,-2971.000,1856.000,7612.000,6.000,-5.000,23.000,0.000,0.000,0
2026-01-31 04:14:25,21414,-2973.000,1833.000,7608.000,1.000,-2.000,11.000,0.000,0.000,0
2026-01-31 04:14:26,21454,-2976.000,1847.000,7612.000,4.000,7.000,-14.000,0.000,0.000,0
2026-01-31 04:14:26,21494,-2977.000,1864.000,7619.000,3.000,10.000,-16.000,0.000,0.000,0
2026-01-31 04:14:26,21534,-2978.000,1859.000,7609.000,1.000,-1.000,7.000,0.000,0.000,0
2026-01-31 04:14:26,21574,-2978.000,1848.000,7609.000,3.000,-3.000,10.000,0.000,0.000,0
2026-01-31 04:14:26,21614,-2979.000,1848.000,7613.000,7.000,0.000,11.000,0.000,0.000,0
2026-01-31 04:14:26,21654,-2974.000,1849.000,7601.000,2.000,-3.000,7.000,0.000,0.000,0
2026-01-31 04:14:26,21694,-2973.000,1855.000,7609.000,11.000,3.000,0.000,0.000,0.000,0
2026-01-31 04:14:26,21734,-2980.000,1852.000,7613.000,4.000,0.000,0.000,0.000,0.000,0
2026-01-31 04:14:26,21774,-2980.000,1850.000,7614.000,7.000,3.000,-1.000,0.000,0.000,0
2026-01-31 04:14:26,21814,-2975.000,1852.000,7609.000,5.000,-3.000,4.000,0.000,0.000,0
2026-01-31 04:14:26,21854,-2977.000,1857.000,7607.000,7.000,-2.000,4.000,0.000,0.000,0
2026-01-31 04:14:26,21894,-2984.000,1848.000,7605.000,4.000,-4.000,11.000,0.000,0.000,0
2026-01-31 04:14:26,21934,-2978.000,1848.000,7611.000,6.000,0.000,10.000,0.000,0.000,0
2026-01-31 04:14:26,21974,-2977.000,1850.000,7605.000,2.000,-2.000,3.000,0.000,0.000,0
2026-01-31 04:14:26,22014,-2978.000,1848.000,7609.000,4.000,1.000,2.000,0.000,0.000,0
2026-01-31 04:14:26,22054,-2985.000,1857.000,7610.000,4.000,-1.000,3.000,0.000,0.000,0
2026-01-31 04:14:26,22094,-2983.000,1854.000,7609.000,3.000,-1.000,7.000,0.000,0.000,0
2026-01-31 04:14:26,22134,-2977.000,1853.000,7605.000,5.000,-3.000,8.000,0.000,0.000,0
2026-01-31 04:14:26,22174,-2979.000,1849.000,7604.000,3.000,-4.000,7.000,0.000,0.000,0
2026-01-31 04:14:26,22214,-2979.000,1850.000,7612.000,10.000,4.000,3.000,0.000,0.000,0
2026-01-31 04:14:26,22254,-2981.000,1853.000,7606.000,1.000,-1.000,5.000,0.000,0.000,0
2026-01-31 04:14:26,22294,-2987.000,1851.000,7610.000,4.000,2.000,2.000,0.000,0.000,0
2026-01-31 04:14:26,22334,-2981.000,1861.000,7609.000,3.000,-1.000,0.000,0.000,0.000,0
2026-01-31 04:14:26,22374,-2979.000,1849.000,7607.000,-2.000,-3.000,6.000,0.000,0.000,0
2026-01-31 04:14:26,22414,-2982.000,1855.000,7610.000,3.000,1.000,5.000,0.000,0.000,0
2026-01-31 04:14:27,22454,-2981.000,1854.000,7607.000,5.000,-1.000,6.000,0.000,0.000,0
2026-01-31 04:14:27,22494,-2983.000,1851.000,7608.000,4.000,-1.000,7.000,0.000,0.000,0
2026-01-31 04:14:27,22534,-2980.000,1857.000,7597.000,4.000,-2.000,7.000,0.000,0.000,0
2026-01-31 04:14:27,22574,-2980.000,1849.000,7601.000,4.000,-1.000,2.000,0.000,0.000,0
2026-01-31 04:14:27,22614,-2979.000,1863.000,7616.000,6.000,-3.000,5.000,0.000,0.000,0
2026-01-31 04:14:27,22654,-2984.000,1853.000,7604.000,2.000,-8.000,10.000,0.000,0.000,0
2026-01-31 04:14:27,22694,-2985.000,1856.000,7611.000,4.000,-2.000,5.000,0.000,0.000,0
2026-01-31 04:14:27,22734,-2990.000,1854.000,7603.000,5.000,-6.000,10.000,0.000,0.000,0
2026-01-31 04:14:27,22774,-2984.000,1852.000,7608.000,4.000,-3.000,5.000,0.000,0.000,0
2026-01-31 04:14:27,22814,-2987.000,1856.000,7609.000,2.000,-3.000,4.000,0.000,0.000,0
2026-01-31 04:14:27,22854,-2986.000,1849.000,7605.000,1.000,-1.000,3.000,0.000,0.000,0
2026-01-31 04:14:27,22894,-2985.000,1854.000,7603.000,3.000,0.000,3.000,0.000,0.000,0
2026-01-31 04:14:27,22934,-2983.000,1856.000,7597.000,3.000,-4.000,7.000,0.000,0.000,0
2026-01-31 04:14:27,22974,-2985.000,1858.000,7607.000,6.000,-4.000,8.000,0.000,0.000,0
2026-01-31 04:14:27,23014,-2987.000,1852.000,7613.000,2.000,-9.000,9.000,0.000,0.000,0
2026-01-31 04:14:27,23054,-2984.000,1853.000,7604.000,5.000,-2.000,5.000,0.000,0.000,0
2026-01-31 04:14:27,23094,-2990.000,1858.000,7600.000,2.000,-4.000,5.000,0.000,0.000,0
2026-01-31 04:14:27,23134,-2984.000,1859.000,7608.000,5.000,-2.000,2.000,0.000,0.000,0
2026-01-31 04:14:27,23174,-2986.000,1855.000,7602.000,3.000,-2.000,4.000,0.000,0.000,0
2026-01-31 04:14:27,23214,-2986.000,1853.000,7602.000,5.000,-2.000,5.000,0.000,0.000,0
2026-01-31 04:14:27,23254,-2981.000,1854.000,7604.000,2.000,-4.000,6.000,0.000,0.000,0
2026-01-31 04:14:27,23294,-2987.000,1858.000,7600.000,4.000,-3.000,5.000,0.000,0.000,0
2026-01-31 04:14:27,23334,-2986.000,1855.000,7594.000,-1.000,-2.000,4.000,0.000,0.000,0
2026-01-31 04:14:27,23377,-2986.000,1858.000,7607.000,2.000,-2.000,5.000,0.000,0.000,0
2026-01-31 04:14:27,23416,-2992.000,1858.000,7600.000,1.000,0.000,2.000,0.000,0.000,0
2026-01-31 04:14:28,23454,-2986.000,1860.000,7606.000,5.000,4.000,0.000,0.000,0.000,0
2026-01-31 04:14:28,23494,-2991.000,1851.000,7603.000,1.000,-6.000,8.000,0.000,0.000,0
2026-01-31 04:14:28,23534,-2990.000,1859.000,7604.000,2.000,-2.000,2.000,0.000,0.000,0
2026-01-31 04:14:28,23574,-2991.000,1852.000,7600.000,4.000,-6.000,6.000,0.000,0.000,0
2026-01-31 04:14:28,23614,-2985.000,1859.000,7596.000,4.000,-3.000,1.000,0.000,0.000,0
2026-01-31 04:14:28,23654,-2992.000,1855.000,7604.000,5.000,-3.000,3.000,0.000,0.000,0
2026-01-31 04:14:28,23694,-2986.000,1853.000,7599.000,3.000,-3.000,5.000,0.000,0.000,0
2026-01-31 04:14:28,23734,-2991.000,1860.000,7604.000,4.000,0.000,3.000,0.000,0.000,0
2026-01-31 04:14:28,23774,-2987.000,1857.000,7597.000,1.000,-5.000,5.000,0.000,0.000,0
2026-01-31 04:14:28,23814,-2987.000,1859.000,7603.000,3.000,1.000,0.000,0.000,0.000,0
2026-01-31 04:14:28,23854,-2988.000,1857.000,7598.000,4.000,-4.000,4.000,0.000,0.000,0
2026-01-31 04:14:28,23894,-2991.000,1857.000,7597.000,2.000,-2.000,4.000,0.000,0.000,0
2026-01-31 04:14:28,23934,-2994.000,1860.000,7604.000,1.000,0.000,1.000,0.000,0.000,0
2026-01-31 04:14:28,23974,-2991.000,1858.000,7595.000,1.000,-3.000,3.000,0.000,0.000,0
2026-01-31 04:14:28,24014,-2995.000,1860.000,7604.000,4.000,-3.000,4.000,0.000,0.000,0
2026-01-31 04:14:28,24054,-2989.000,1859.000,7599.000,5.000,-2.000,4.000,0.000,0.000,0
2026-01-31 04:14:28,24094,-2989.000,1857.000,7600.000,4.000,-4.000,6.000,0.000,0.000,0
2026-01-31 04:14:28,24134,-2991.000,1856.000,7604.000,4.000,-4.000,6.000,0.000,0.000,0
2026-01-31 04:14:28,24174,-2990.000,1863.000,7611.000,3.000,-3.000,6.000,0.000,0.000,0
2026-01-31 04:14:28,24214,-2997.000,1854.000,7604.000,0.000,-5.000,9.000,0.000,0.000,0
2026-01-31 04:14:28,24254,-2991.000,1859.000,7605.000,7.000,-1.000,4.000,0.000,0.000,0
2026-01-31 04:14:28,24294,-2988.000,1855.000,7599.000,4.000,-4.000,8.000,0.000,0.000,0
2026-01-31 04:14:28,24334,-2990.000,1863.000,7599.000,0.000,0.000,-2.000,0.000,0.000,0
2026-01-31 04:14:28,24374,-2992.000,1862.000,7603.000,7.000,-4.000,9.000,0.000,0.000,0
2026-01-31 04:14:28,24414,-2989.000,1859.000,7597.000,1.000,-3.000,4.000,0.000,0.000,0
2026-01-31 04:14:29,24454,-2992.000,1864.000,7604.000,6.000,-3.000,6.000,0.000,0.000,0
2026-01-31 04:14:29,24494,-2996.000,1858.000,7599.000,-1.000,-3.000,2.000,0.000,0.000,0
2026-01-31 04:14:29,24534,-2990.000,1858.000,7606.000,3.000,-4.000,2.000,0.000,0.000,0
2026-01-31 04:14:29,24574,-2991.000,1852.000,7600.000,2.000,-1.000,4.000,0.000,0.000,0
2026-01-31 04:14:29,24614,-2995.000,1859.000,7597.000,2.000,-3.000,3.000,0.000,0.000,0
2026-01-31 04:14:29,24654,-2997.000,1857.000,7600.000,5.000,-2.000,4.000,0.000,0.000,0
2026-01-31 04:14:29,24694,-2994.000,1858.000,7594.000,1.000,-4.000,2.000,0.000,0.000,0
2026-01-31 04:14:29,24734,-2992.000,1861.000,7599.000,5.000,-1.000,2.000,0.000,0.000,0
2026-01-31 04:14:29,24774,-2996.000,1860.000,7600.000,-1.000,-1.000,1.000,0.000,0.000,0
2026-01-31 04:14:29,24814,-2991.000,1867.000,7606.000,4.000,-2.000,1.000,0.000,0.000,0
2026-01-31 04:14:29,24854,-2994.000,1860.000,7593.000,3.000,-1.000,4.000,0.000,0.000,0
2026-01-31 04:14:29,24894,-2994.000,1858.000,7602.000,6.000,-6.000,7.000,0.000,0.000,0
2026-01-31 04:14:29,24934,-2997.000,1860.000,7593.000,-1.000,-4.000,5.000,0.000,0.000,0
2026-01-31 04:14:29,24974,-2994.000,1858.000,7601.000,6.000,-2.000,4.000,0.000,0.000,0
2026-01-31 04:14:29,25014,-2989.000,1862.000,7603.000,1.000,-8.000,6.000,0.000,0.000,0
2026-01-31 04:14:29,25054,-2998.000,1864.000,7602.000,3.000,-4.000,6.000,0.000,0.000,0
2026-01-31 04:14:29,25094,-2989.000,1860.000,7595.000,6.000,-7.000,8.000,0.000,0.000,0
2026-01-31 04:14:29,25134,-2997.000,1858.000,7599.000,1.000,-4.000,3.000,0.000,0.000,0
2026-01-31 04:14:29,25174,-2995.000,1859.000,7601.000,5.000,-3.000,6.000,0.000,0.000,0
2026-01-31 04:14:29,25214,-2989.000,1861.000,7598.000,1.000,-7.000,5.000,0.000,0.000,0
2026-01-31 04:14:29,25254,-3001.000,1852.000,7601.000,4.000,-4.000,7.000,0.000,0.000,0
2026-01-31 04:14:29,25294,-2995.000,1857.000,7599.000,2.000,-6.000,5.000,0.000,0.000,0
2026-01-31 04:14:29,25334,-2996.000,1854.000,7597.000,8.000,-4.000,8.000,0.000,0.000,0
2026-01-31 04:14:29,25377,-2993.000,1864.000,7602.000,2.000,-5.000,4.000,0.000,0.000,0
2026-01-31 04:14:29,25419,-2996.000,1860.000,7601.000,3.000,0.000,4.000,0.000,0.000,0
2026-01-31 04:14:30,25454,-2995.000,1859.000,7603.000,1.000,1.000,4.000,0.000,0.000,0
2026-01-31 04:14:30,25497,-2995.000,1860.000,7595.000,2.000,1.000,2.000,0.000,0.000,0
2026-01-31 04:14:30,25534,-2997.000,1856.000,7600.000,3.000,-2.000,5.000,0.000,0.000,0
2026-01-31 04:14:30,25574,-2995.000,1859.000,7603.000,3.000,-4.000,4.000,0.000,0.000,0
2026-01-31 04:14:30,25614,-2997.000,1867.000,7604.000,2.000,-4.000,3.000,0.000,0.000,0
2026-01-31 04:14:30,25654,-2997.000,1858.000,7598.000,2.000,-6.000,4.000,0.000,0.000,0
2026-01-31 04:14:30,25694,-2995.000,1862.000,7604.000,3.000,-6.000,5.000,0.000,0.000,0
2026-01-31 04:14:30,25734,-2999.000,1860.000,7602.000,3.000,-4.000,7.000,0.000,0.000,0
2026-01-31 04:14:30,25774,-2998.000,1856.000,7596.000,5.000,-6.000,8.000,0.000,0.000,0
2026-01-31 04:14:30,25814,-2989.000,1860.000,7600.000,5.000,-5.000,7.000,0.000,0.000,0
2026-01-31 04:14:30,25854,-3001.000,1863.000,7601.000,5.000,-2.000,5.000,0.000,0.000,0
2026-01-31 04:14:30,25894,-2996.000,1860.000,7595.000,5.000,-5.000,11.000,0.000,0.000,0
2026-01-31 04:14:30,25934,-2993.000,1861.000,7597.000,4.000,-2.000,7.000,0.000,0.000,0
2026-01-31 04:14:30,25974,-2993.000,1856.000,7604.000,3.000,-7.000,4.000,0.000,0.000,0
2026-01-31 04:14:30,26014,-3000.000,1860.000,7603.000,5.000,-2.000,6.000,0.000,0.000,0
2026-01-31 04:14:30,26054,-2995.000,1863.000,7600.000,3.000,-4.000,4.000,0.000,0.000,0
2026-01-31 04:14:30,26094,-2988.000,1860.000,7599.000,3.000,-1.000,4.000,0.000,0.000,0
2026-01-31 04:14:30,26134,-2991.000,1866.000,7599.000,1.000,-5.000,4.000,0.000,0.000,0
2026-01-31 04:14:30,26174,-2994.000,1860.000,7597.000,4.000,-4.000,5.000,0.000,0.000,0
2026-01-31 04:14:30,26214,-2996.000,1859.000,7599.000,3.000,-1.000,3.000,0.000,0.000,0
2026-01-31 04:14:30,26254,-3002.000,1859.000,7599.000,4.000,-2.000,5.000,0.000,0.000,0
2026-01-31 04:14:30,26294,-2999.000,1859.000,7597.000,3.000,-2.000,3.000,0.000,0.000,0
2026-01-31 04:14:30,26334,-2996.000,1860.000,7595.000,4.000,-4.000,5.000,0.000,0.000,0
2026-01-31 04:14:30,26374,-3002.000,1857.000,7596.000,3.000,-4.000,7.000,0.000,0.000,0
2026-01-31 04:14:30,26414,-2997.000,1856.000,7598.000,2.000,-4.000,3.000,0.000,0.000,0
2026-01-31 04:14:31,26454,-2998.000,1859.000,7595.000,3.000,0.000,3.000,0.000,0.000,0
2026-01-31 04:14:31,26494,-3000.000,1861.000,7598.000,4.000,-1.000,5.000,0.000,0.000,0
2026-01-31 04:14:31,26534,-2999.000,1859.000,7601.000,3.000,-2.000,3.000,0.000,0.000,0
2026-01-31 04:14:31,26574,-2995.000,1859.000,7603.000,1.000,-4.000,6.000,0.000,0.000,0
2026-01-31 04:14:31,26614,-2999.000,1858.000,7597.000,1.000,-2.000,3.000,0.000,0.000,0
2026-01-31 04:14:31,26654,-2999.000,1859.000,7598.000,1.000,-3.000,5.000,0.000,0.000,0
2026-01-31 04:14:31,26694,-2993.000,1860.000,7599.000,3.000,-4.000,3.000,0.000,0.000,0
2026-01-31 04:14:31,26734,-2994.000,1858.000,7605.000,2.000,-3.000,4.000,0.000,0.000,0
2026-01-31 04:14:31,26774,-3000.000,1860.000,7598.000,3.000,-3.000,7.000,0.000,0.000,0
2026-01-31 04:14:31,26814,-2996.000,1862.000,7596.000,2.000,-4.000,3.000,0.000,0.000,0
2026-01-31 04:14:31,26854,-3001.000,1865.000,7603.000,2.000,-4.000,4.000,0.000,0.000,0
2026-01-31 04:14:31,26894,-2993.000,1858.000,7595.000,3.000,-3.000,1.000,0.000,0.000,0
2026-01-31 04:14:31,26934,-2998.000,1859.000,7599.000,3.000,-3.000,4.000,0.000,0.000,0
2026-01-31 04:14:31,26974,-3002.000,1860.000,7603.000,2.000,-3.000,2.000,0.000,0.000,0
2026-01-31 04:14:31,27014,-2993.000,1861.000,7601.000,1.000,-6.000,3.000,0.000,0.000,0
2026-01-31 04:14:31,27054,-3001.000,1860.000,7601.000,0.000,-4.000,5.000,0.000,0.000,0
2026-01-31 04:14:31,27094,-3002.000,1861.000,7597.000,2.000,-3.000,3.000,0.000,0.000,0
2026-01-31 04:14:31,27134,-2996.000,1859.000,7597.000,3.000,-1.000,2.000,0.000,0.000,0
2026-01-31 04:14:31,27174,-2994.000,1856.000,7599.000,5.000,-4.000,7.000,0.000,0.000,0
2026-01-31 04:14:31,27214,-2992.000,1860.000,7604.000,4.000,-4.000,5.000,0.000,0.000,0
2026-01-31 04:14:31,27254,-2998.000,1862.000,7593.000,3.000,-8.000,7.000,0.000,0.000,0
2026-01-31 04:14:31,27294,-3002.000,1866.000,7597.000,2.000,-2.000,1.000,0.000,0.000,0
2026-01-31 04:14:31,27334,-2993.000,1862.000,7597.000,4.000,-3.000,3.000,0.000,0.000,0
2026-01-31 04:14:31,27377,-2997.000,1857.000,7599.000,1.000,-4.000,4.000,0.000,0.000,0
2026-01-31 04:14:31,27416,-3001.000,1863.000,7595.000,5.000,-5.000,4.000,0.000,0.000,0
2026-01-31 04:14:32,27454,-2997.000,1858.000,7599.000,2.000,-3.000,7.000,0.000,0.000,0
2026-01-31 04:14:32,27494,-2997.000,1860.000,7597.000,4.000,-2.000,4.000,0.000,0.000,0
2026-01-31 04:14:32,27534,-2999.000,1858.000,7594.000,7.000,-2.000,5.000,0.000,0.000,0
2026-01-31 04:14:32,27574,-3003.000,1860.000,7594.000,5.000,-6.000,5.000,0.000,0.000,0
2026-01-31 04:14:32,27614,-2998.000,1860.000,7593.000,3.000,-5.000,5.000,0.000,0.000,0
2026-01-31 04:14:32,27654,-2997.000,1857.000,7596.000,1.000,-5.000,6.000,0.000,0.000,0
2026-01-31 04:14:32,27694,-2995.000,1857.000,7594.000,5.000,-5.000,8.000,0.000,0.000,0
2026-01-31 04:14:32,27734,-2998.000,1864.000,7600.000,5.000,-4.000,5.000,0.000,0.000,0
2026-01-31 04:14:32,27774,-3001.000,1861.000,7598.000,5.000,-6.000,4.000,0.000,0.000,0
2026-01-31 04:14:32,27814,-2995.000,1857.000,7596.000,0.000,-4.000,2.000,0.000,0.000,0
2026-01-31 04:14:32,27854,-2998.000,1864.000,7600.000,4.000,-2.000,6.000,0.000,0.000,0
2026-01-31 04:14:32,27894,-3001.000,1864.000,7589.000,3.000,-2.000,3.000,0.000,0.000,0
2026-01-31 04:14:32,27934,-2996.000,1857.000,7595.000,4.000,-4.000,5.000,0.000,0.000,0
2026-01-31 04:14:32,27974,-2999.000,1860.000,7597.000,4.000,-5.000,2.000,0.000,0.000,0
2026-01-31 04:14:32,28014,-3004.000,1862.000,7595.000,5.000,-1.000,5.000,0.000,0.000,0
2026-01-31 04:14:32,28054,-2999.000,1859.000,7594.000,6.000,-6.000,8.000,0.000,0.000,0
2026-01-31 04:14:32,28094,-2998.000,1860.000,7596.000,4.000,-5.000,8.000,0.000,0.000,0
2026-01-31 04:14:32,28134,-2994.000,1865.000,7594.000,2.000,-6.000,5.000,0.000,0.000,0
2026-01-31 04:14:32,28174,-2994.000,1861.000,7594.000,5.000,-8.000,6.000,0.000,0.000,0
2026-01-31 04:14:32,28214,-2997.000,1863.000,7593.000,4.000,-4.000,7.000,0.000,0.000,0
2026-01-31 04:14:32,28254,-3001.000,1862.000,7593.000,4.000,-4.000,6.000,0.000,0.000,0
2026-01-31 04:14:32,28294,-3001.000,1864.000,7595.000,4.000,-6.000,6.000,0.000,0.000,0
2026-01-31 04:14:32,28334,-3003.000,1860.000,7599.000,5.000,-5.000,6.000,0.000,0.000,0
2026-01-31 04:14:32,28374,-3003.000,1863.000,7598.000,4.000,-4.000,6.000,0.000,0.000,0
2026-01-31 04:14:32,28414,-2994.000,1861.000,7598.000,4.000,-7.000,6.000,0.000,0.000,0
2026-01-31 04:14:33,28454,-2998.000,1861.000,7595.000,5.000,-6.000,8.000,0.000,0.000,0
2026-01-31 04:14:33,28494,-3003.000,1864.000,7597.000,1.000,-5.000,3.000,0.000,0.000,0
2026-01-31 04:14:33,28534,-2991.000,1859.000,7595.000,4.000,-7.000,8.000,0.000,0.000,0
2026-01-31 04:14:33,28574,-2999.000,1863.000,7601.000,3.000,-2.000,3.000,0.000,0.000,0
2026-01-31 04:14:33,28614,-2999.000,1863.000,7596.000,2.000,-4.000,5.000,0.000,0.000,0
2026-01-31 04:14:33,28654,-3007.000,1862.000,7595.000,1.000,-3.000,3.000,0.000,0.000,0
2026-01-31 04:14:33,28694,-2997.000,1855.000,7598.000,3.000,-7.000,6.000,0.000,0.000,0
2026-01-31 04:14:33,28734,-3002.000,1861.000,7594.000,-3.000,-5.000,4.000,0.000,0.000,0
2026-01-31 04:14:33,28774,-2999.000,1864.000,7595.000,4.000,-1.000,4.000,0.000,0.000,0
2026-01-31 04:14:33,28814,-2997.000,1855.000,7593.000,0.000,-5.000,2.000,0.000,0.000,0
2026-01-31 04:14:33,28854,-3000.000,1859.000,7599.000,3.000,-5.000,3.000,0.000,0.000,0
2026-01-31 04:14:33,28894,-3001.000,1862.000,7599.000,3.000,-5.000,6.000,0.000,0.000,0
2026-01-31 04:14:33,28934,-3001.000,1859.000,7595.000,-1.000,-5.000,4.000,0.000,0.000,0
2026-01-31 04:14:33,28974,-3000.000,1866.000,7595.000,2.000,-4.000,5.000,0.000,0.000,0
2026-01-31 04:14:33,29014,-3003.000,1857.000,7591.000,1.000,-5.000,3.000,0.000,0.000,0
2026-01-31 04:14:33,29054,-3003.000,1863.000,7594.000,5.000,-5.000,3.000,0.000,0.000,0
2026-01-31 04:14:33,29094,-3004.000,1855.000,7593.000,-1.000,-6.000,5.000,0.000,0.000,0
2026-01-31 04:14:33,29134,-2993.000,1861.000,7594.000,2.000,-1.000,3.000,0.000,0.000,0
2026-01-31 04:14:33,29174,-2998.000,1858.000,7601.000,4.000,-2.000,4.000,0.000,0.000,0
2026-01-31 04:14:33,29214,-2993.000,1862.000,7598.000,3.000,-1.000,2.000,0.000,0.000,0
2026-01-31 04:14:33,29254,-2996.000,1862.000,7594.000,3.000,-5.000,5.000,0.000,0.000,0
2026-01-31 04:14:33,29294,-3003.000,1856.000,7594.000,-2.000,-4.000,3.000,0.000,0.000,0
2026-01-31 04:14:33,29334,-3004.000,1863.000,7599.000,6.000,-4.000,4.000,0.000,0.000,0
2026-01-31 04:14:33,29374,-3000.000,1857.000,7595.000,1.000,-6.000,6.000,0.000,0.000,0
2026-01-31 04:14:33,29414,-3005.000,1856.000,7593.000,1.000,-1.000,1.000,0.000,0.000,0
2026-01-31 04:14:34,29454,-3000.000,1864.000,7593.000,0.000,-2.000,3.000,0.000,0.000,0
2026-01-31 04:14:34,29499,-3004.000,1865.000,7595.000,3.000,-2.000,5.000,0.000,0.000,0
2026-01-31 04:14:34,29534,-3002.000,1859.000,7590.000,3.000,-2.000,6.000,0.000,0.000,0
2026-01-31 04:14:34,29574,-2998.000,1860.000,7590.000,1.000,-6.000,4.000,0.000,0.000,0
2026-01-31 04:14:34,29614,-3000.000,1859.000,7590.000,3.000,0.000,3.000,0.000,0.000,0
2026-01-31 04:14:34,29654,-2998.000,1857.000,7596.000,1.000,-5.000,6.000,0.000,0.000,0
2026-01-31 04:14:34,29694,-3000.000,1862.000,7592.000,3.000,-3.000,2.000,0.000,0.000,0
2026-01-31 04:14:34,29734,-3006.000,1864.000,7586.000,3.000,-5.000,4.000,0.000,0.000,0
2026-01-31 04:14:34,29774,-3002.000,1866.000,7592.000,2.000,-3.000,6.000,0.000,0.000,0
2026-01-31 04:14:34,29814,-2997.000,1861.000,7593.000,1.000,-1.000,2.000,0.000,0.000,0
2026-01-31 04:14:34,29854,-2999.000,1861.000,7594.000,3.000,-1.000,1.000,0.000,0.000,0
2026-01-31 04:14:34,29894,-3000.000,1860.000,7592.000,6.000,-2.000,4.000,0.000,0.000,0
2026-01-31 04:14:34,29934,-2995.000,1864.000,7595.000,2.000,-5.000,2.000,0.000,0.000,0
2026-01-31 04:14:34,29974,-2998.000,1863.000,7587.000,0.000,-4.000,5.000,0.000,0.000,0
2026-01-31 04:14:34,30014,-3000.000,1860.000,7592.000,2.000,-5.000,5.000,0.000,0.000,0
2026-01-31 04:14:34,30054,-3000.000,1863.000,7587.000,3.000,-3.000,4.000,0.000,0.000,0
2026-01-31 04:14:34,30094,-3007.000,1857.000,7598.000,4.000,-3.000,4.000,0.000,0.000,0
2026-01-31 04:14:34,30134,-3005.000,1859.000,7592.000,3.000,-1.000,2.000,0.000,0.000,0
2026-01-31 04:14:34,30174,-2998.000,1859.000,7597.000,0.000,-4.000,5.000,0.000,0.000,0
2026-01-31 04:14:34,30214,-3001.000,1860.000,7591.000,2.000,-6.000,4.000,0.000,0.000,0
2026-01-31 04:14:34,30254,-2991.000,1859.000,7587.000,2.000,-3.000,4.000,0.000,0.000,0
2026-01-31 04:14:34,30294,-3003.000,1861.000,7597.000,3.000,-3.000,1.000,0.000,0.000,0
2026-01-31 04:14:34,30334,-3003.000,1863.000,7597.000,3.000,-3.000,3.000,0.000,0.000,0
2026-01-31 04:14:34,30374,-3001.000,1859.000,7595.000,2.000,0.000,3.000,0.000,0.000,0
2026-01-31 04:14:34,30414,-3001.000,1857.000,7590.000,2.000,-4.000,5.000,0.000,0.000,0
2026-01-31 04:14:35,30454,-3005.000,1859.000,7591.000,2.000,-4.000,5.000,0.000,0.000,0
2026-01-31 04:14:35,30494,-3002.000,1857.000,7598.000,2.000,-4.000,7.000,0.000,0.000,0
2026-01-31 04:14:35,30534,-3000.000,1864.000,7594.000,2.000,1.000,6.000,0.000,0.000,0
2026-01-31 04:14:35,30574,-3003.000,1861.000,7600.000,4.000,-5.000,3.000,0.000,0.000,0
2026-01-31 04:14:35,30614,-3002.000,1863.000,7597.000,1.000,-6.000,3.000,0.000,0.000,0
2026-01-31 04:14:35,30654,-3002.000,1858.000,7592.000,2.000,-3.000,5.000,0.000,0.000,0
2026-01-31 04:14:35,30694,-3006.000,1866.000,7598.000,2.000,-5.000,4.000,0.000,0.000,0
2026-01-31 04:14:35,30734,-3003.000,1860.000,7593.000,3.000,-1.000,2.000,0.000,0.000,0
2026-01-31 04:14:35,30774,-3007.000,1861.000,7597.000,3.000,-3.000,3.000,0.000,0.000,0
2026-01-31 04:14:35,30814,-3000.000,1862.000,7588.000,1.000,1.000,-1.000,0.000,0.000,0
2026-01-31 04:14:35,30854,-3005.000,1859.000,7584.000,2.000,-3.000,3.000,0.000,0.000,0
2026-01-31 04:14:35,30894,-3007.000,1866.000,7592.000,0.000,-4.000,5.000,0.000,0.000,0
2026-01-31 04:14:35,30934,-3003.000,1861.000,7588.000,4.000,-3.000,4.000,0.000,0.000,0
2026-01-31 04:14:35,30974,-3001.000,1861.000,7596.000,2.000,-3.000,6.000,0.000,0.000,0
2026-01-31 04:14:35,31014,-3002.000,1863.000,7584.000,1.000,-2.000,2.000,0.000,0.000,0
2026-01-31 04:14:35,31054,-2999.000,1857.000,7594.000,2.000,-7.000,6.000,0.000,0.000,0
2026-01-31 04:14:35,31094,-3006.000,1861.000,7586.000,-1.000,-5.000,6.000,0.000,0.000,0
2026-01-31 04:14:35,31134,-3005.000,1857.000,7591.000,2.000,0.000,2.000,0.000,0.000,0
2026-01-31 04:14:35,31174,-3004.000,1862.000,7595.000,3.000,-5.000,6.000,0.000,0.000,0
2026-01-31 04:14:35,31214,-3004.000,1865.000,7598.000,4.000,-5.000,4.000,0.000,0.000,0
2026-01-31 04:14:35,31254,-3006.000,1863.000,7587.000,5.000,-3.000,5.000,0.000,0.000,0
2026-01-31 04:14:35,31294,-2997.000,1864.000,7594.000,1.000,-3.000,4.000,0.000,0.000,0
2026-01-31 04:14:35,31334,-3007.000,1861.000,7594.000,1.000,-2.000,3.000,0.000,0.000,0
2026-01-31 04:14:35,31374,-3005.000,1861.000,7587.000,-1.000,1.000,0.000,0.000,0.000,0
2026-01-31 04:14:35,31415,-3012.000,1862.000,7587.000,3.000,1.000,4.000,0.000,0.000,0
2026-01-31 04:14:36,31454,-3003.000,1863.000,7591.000,-1.000,-3.000,0.000,0.000,0.000,0
2026-01-31 04:14:36,31497,-3006.000,1865.000,7582.000,0.000,0.000,4.000,0.000,0.000,0
2026-01-31 04:14:36,31534,-3003.000,1862.000,7593.000,1.000,-1.000,2.000,0.000,0.000,0
2026-01-31 04:14:36,31574,-2997.000,1864.000,7594.000,4.000,-4.000,5.000,0.000,0.000,0
2026-01-31 04:14:36,31614,-3001.000,1859.000,7594.000,3.000,-2.000,2.000,0.000,0.000,0
2026-01-31 04:14:36,31654,-3006.000,1858.000,7595.000,3.000,-4.000,2.000,0.000,0.000,0
2026-01-31 04:14:36,31694,-3007.000,1865.000,7588.000,3.000,-3.000,4.000,0.000,0.000,0
2026-01-31 04:14:36,31734,-2995.000,1862.000,7592.000,0.000,-5.000,1.000,0.000,0.000,0
2026-01-31 04:14:36,31774,-3005.000,1864.000,7591.000,3.000,-3.000,4.000,0.000,0.000,0
2026-01-31 04:14:36,31814,-3004.000,1862.000,7592.000,0.000,-6.000,1.000,0.000,0.000,0
2026-01-31 04:14:36,31854,-3002.000,1857.000,7591.000,6.000,-3.000,5.000,0.000,0.000,0
2026-01-31 04:14:36,31894,-2998.000,1863.000,7595.000,-1.000,-3.000,2.000,0.000,0.000,0
2026-01-31 04:14:36,31934,-2996.000,1859.000,7589.000,1.000,-2.000,2.000,0.000,0.000,0
2026-01-31 04:14:36,31974,-3002.000,1867.000,7597.000,3.000,-3.000,3.000,0.000,0.000,0
2026-01-31 04:14:36,32014,-3004.000,1863.000,7589.000,-1.000,-3.000,4.000,0.000,0.000,0
2026-01-31 04:14:36,32054,-3007.000,1861.000,7592.000,5.000,-2.000,4.000,0.000,0.000,0
2026-01-31 04:14:36,32094,-3002.000,1863.000,7592.000,3.000,-4.000,4.000,0.000,0.000,0
2026-01-31 04:14:36,32134,-3006.000,1856.000,7598.000,2.000,-1.000,2.000,0.000,0.000,0
2026-01-31 04:14:36,32174,-3007.000,1859.000,7594.000,-1.000,-5.000,5.000,0.000,0.000,0
2026-01-31 04:14:36,32214,-3002.000,1863.000,7597.000,4.000,-6.000,4.000,0.000,0.000,0
2026-01-31 04:14:36,32254,-3004.000,1859.000,7593.000,2.000,-2.000,5.000,0.000,0.000,0
2026-01-31 04:14:36,32294,-3006.000,1863.000,7590.000,5.000,-3.000,3.000,0.000,0.000,0
2026-01-31 04:14:36,32334,-3007.000,1861.000,7592.000,1.000,-4.000,3.000,0.000,0.000,0
2026-01-31 04:14:36,32374,-3007.000,1857.000,7593.000,2.000,-2.000,4.000,0.000,0.000,0
2026-01-31 04:14:36,32414,-3000.000,1860.000,7586.000,2.000,-6.000,6.000,0.000,0.000,0
2026-01-31 04:14:37,32454,-3009.000,1861.000,7591.000,1.000,-2.000,4.000,0.000,0.000,0
2026-01-31 04:14:37,32494,-3005.000,1864.000,7597.000,1.000,-3.000,5.000,0.000,0.000,0
2026-01-31 04:14:37,32534,-3002.000,1865.000,7587.000,2.000,-3.000,3.000,0.000,0.000,0
2026-01-31 04:14:37,32574,-3003.000,1860.000,7593.000,5.000,-4.000,4.000,0.000,0.000,0
2026-01-31 04:14:37,32614,-3002.000,1861.000,7585.000,2.000,-4.000,3.000,0.000,0.000,0
2026-01-31 04:14:37,32654,-3004.000,1866.000,7594.000,3.000,-3.000,4.000,0.000,0.000,0
2026-01-31 04:14:37,32694,-3001.000,1861.000,7590.000,0.000,-5.000,2.000,0.000,0.000,0
2026-01-31 04:14:37,32734,-2999.000,1857.000,7584.000,1.000,-4.000,4.000,0.000,0.000,0
2026-01-31 04:14:37,32774,-3005.000,1862.000,7588.000,5.000,-3.000,3.000,0.000,0.000,0
2026-01-31 04:14:37,32814,-3001.000,1865.000,7588.000,3.000,-2.000,4.000,0.000,0.000,0
2026-01-31 04:14:37,32854,-3003.000,1863.000,7588.000,-1.000,-6.000,2.000,0.000,0.000,0
2026-01-31 04:14:37,32894,-3008.000,1862.000,7592.000,3.000,-3.000,2.000,0.000,0.000,0
2026-01-31 04:14:37,32934,-3003.000,1864.000,7586.000,2.000,-2.000,3.000,0.000,0.000,0
2026-01-31 04:14:37,32974,-3009.000,1863.000,7594.000,9.000,-3.000,5.000,0.000,0.000,0
2026-01-31 04:14:37,33014,-3001.000,1865.000,7588.000,3.000,-7.000,6.000,0.000,0.000,0
2026-01-31 04:14:37,33054,-3003.000,1865.000,7591.000,2.000,-6.000,8.000,0.000,0.000,0
2026-01-31 04:14:37,33094,-3007.000,1865.000,7591.000,3.000,-4.000,6.000,0.000,0.000,0
2026-01-31 04:14:37,33134,-3009.000,1868.000,7589.000,3.000,-7.000,5.000,0.000,0.000,0
2026-01-31 04:14:37,33174,-3008.000,1864.000,7593.000,6.000,-5.000,6.000,0.000,0.000,0
2026-01-31 04:14:37,33214,-3005.000,1861.000,7598.000,6.000,-3.000,5.000,0.000,0.000,0
2026-01-31 04:14:37,33254,-3009.000,1861.000,7585.000,4.000,-6.000,8.000,0.000,0.000,0
2026-01-31 04:14:37,33294,-3004.000,1867.000,7587.000,2.000,-5.000,4.000,0.000,0.000,0
2026-01-31 04:14:37,33334,-3008.000,1859.000,7594.000,3.000,-1.000,4.000,0.000,0.000,0
2026-01-31 04:14:37,33377,-3005.000,1860.000,7585.000,0.000,-1.000,3.000,0.000,0.000,0
2026-01-31 04:14:37,33416,-3004.000,1864.000,7586.000,4.000,-2.000,3.000,0.000,0.000,0
2026-01-31 04:14:38,33454,-3000.000,1863.000,7589.000,1.000,-4.000,1.000,0.000,0.000,0
2026-01-31 04:14:38,33494,-3003.000,1863.000,7592.000,2.000,-5.000,3.000,0.000,0.000,0
2026-01-31 04:14:38,33534,-3007.000,1860.000,7587.000,0.000,-5.000,4.000,0.000,0.000,0
2026-01-31 04:14:38,33574,-3002.000,1868.000,7593.000,2.000,-6.000,5.000,0.000,0.000,0
2026-01-31 04:14:38,33614,-3007.000,1867.000,7585.000,2.000,-2.000,4.000,0.000,0.000,0
2026-01-31 04:14:38,33654,-3004.000,1859.000,7587.000,4.000,-1.000,4.000,0.000,0.000,0
2026-01-31 04:14:38,33694,-3008.000,1863.000,7591.000,0.000,-2.000,3.000,0.000,0.000,0
2026-01-31 04:14:38,33734,-3010.000,1862.000,7592.000,0.000,-5.000,4.000,0.000,0.000,0
2026-01-31 04:14:38,33774,-3005.000,1864.000,7598.000,2.000,-2.000,4.000,0.000,0.000,0
2026-01-31 04:14:38,33814,-3010.000,1859.000,7586.000,2.000,-2.000,3.000,0.000,0.000,0
2026-01-31 04:14:38,33854,-3005.000,1866.000,7584.000,1.000,-3.000,3.000,0.000,0.000,0
2026-01-31 04:14:38,33894,-3007.000,1861.000,7593.000,1.000,-3.000,3.000,0.000,0.000,0
2026-01-31 04:14:38,33934,-3007.000,1861.000,7593.000,4.000,-2.000,6.000,0.000,0.000,0
2026-01-31 04:14:38,33974,-3007.000,1861.000,7590.000,1.000,-3.000,3.000,0.000,0.000,0
2026-01-31 04:14:38,34014,-3009.000,1859.000,7587.000,1.000,-3.000,5.000,0.000,0.000,0
2026-01-31 04:14:38,34054,-3007.000,1864.000,7590.000,5.000,-3.000,5.000,0.000,0.000,0
2026-01-31 04:14:38,34094,-3008.000,1862.000,7585.000,4.000,-4.000,5.000,0.000,0.000,0
2026-01-31 04:14:38,34134,-3009.000,1864.000,7586.000,0.000,-7.000,4.000,0.000,0.000,0
2026-01-31 04:14:38,34174,-3004.000,1860.000,7593.000,3.000,-3.000,2.000,0.000,0.000,0
2026-01-31 04:14:38,34214,-3007.000,1863.000,7592.000,5.000,-6.000,6.000,0.000,0.000,0
2026-01-31 04:14:38,34254,-3008.000,1862.000,7591.000,2.000,-6.000,5.000,0.000,0.000,0
2026-01-31 04:14:38,34294,-3001.000,1866.000,7597.000,6.000,-5.000,5.000,0.000,0.000,0
2026-01-31 04:14:38,34334,-3007.000,1864.000,7589.000,-1.000,-3.000,0.000,0.000,0.000,0
2026-01-31 04:14:38,34374,-3002.000,1863.000,7587.000,2.000,-3.000,2.000,0.000,0.000,0
2026-01-31 04:14:38,34414,-3011.000,1863.000,7591.000,-2.000,-5.000,2.000,0.000,0.000,0
2026-01-31 04:14:39,34454,-3004.000,1865.000,7596.000,2.000,-4.000,3.000,0.000,0.000,0
2026-01-31 04:14:39,34494,-3005.000,1863.000,7599.000,-1.000,-5.000,4.000,0.000,0.000,0
2026-01-31 04:14:39,34534,-3008.000,1864.000,7583.000,2.000,-3.000,4.000,0.000,0.000,0
2026-01-31 04:14:39,34574,-3002.000,1861.000,7591.000,4.000,-3.000,3.000,0.000,0.000,0
2026-01-31 04:14:39,34614,-3005.000,1864.000,7589.000,0.000,-6.000,4.000,0.000,0.000,0
2026-01-31 04:14:39,34654,-3007.000,1864.000,7594.000,4.000,-2.000,2.000,0.000,0.000,0
2026-01-31 04:14:39,34694,-3007.000,1863.000,7589.000,0.000,-4.000,2.000,0.000,0.000,0
2026-01-31 04:14:39,34734,-3006.000,1862.000,7591.000,3.000,-1.000,5.000,0.000,0.000,0
2026-01-31 04:14:39,34774,-3001.000,1856.000,7600.000,1.000,-5.000,3.000,0.000,0.000,0
2026-01-31 04:14:39,34814,-3006.000,1866.000,7589.000,4.000,-3.000,3.000,0.000,0.000,0
2026-01-31 04:14:39,34854,-3003.000,1861.000,7591.000,0.000,-6.000,2.000,0.000,0.000,0
2026-01-31 04:14:39,34894,-3010.000,1864.000,7591.000,4.000,-4.000,5.000,0.000,0.000,0
2026-01-31 04:14:39,34934,-3006.000,1865.000,7597.000,2.000,-3.000,4.000,0.000,0.000,0
2026-01-31 04:14:39,34974,-3011.000,1866.000,7590.000,2.000,-4.000,4.000,0.000,0.000,0
2026-01-31 04:14:39,35014,-3006.000,1867.000,7592.000,3.000,-3.000,3.000,0.000,0.000,0
2026-01-31 04:14:39,35054,-3001.000,1864.000,7600.000,3.000,-4.000,3.000,0.000,0.000,0
2026-01-31 04:14:39,35094,-3005.000,1858.000,7594.000,3.000,-3.000,4.000,0.000,0.000,0
2026-01-31 04:14:39,35134,-3005.000,1866.000,7600.000,2.000,-1.000,3.000,0.000,0.000,0
2026-01-31 04:14:39,35174,-3008.000,1859.000,7592.000,3.000,-1.000,3.000,0.000,0.000,0
2026-01-31 04:14:39,35214,-3004.000,1864.000,7594.000,2.000,-1.000,4.000,0.000,0.000,0
2026-01-31 04:14:39,35254,-3007.000,1864.000,7595.000,5.000,0.000,3.000,0.000,0.000,0
2026-01-31 04:14:39,35294,-3009.000,1862.000,7597.000,3.000,-2.000,2.000,0.000,0.000,0
2026-01-31 04:14:39,35334,-3002.000,1866.000,7589.000,2.000,-6.000,6.000,0.000,0.000,0
2026-01-31 04:14:39,35374,-3011.000,1866.000,7587.000,0.000,-5.000,6.000,0.000,0.000,0
2026-01-31 04:14:39,35414,-3007.000,1864.000,7590.000,2.000,0.000,0.000,0.000,0.000,0
2026-01-31 04:14:40,35454,-3008.000,1862.000,7597.000,1.000,-1.000,3.000,0.000,0.000,0
2026-01-31 04:14:40,35494,-3005.000,1861.000,7588.000,-1.000,-3.000,3.000,0.000,0.000,0
2026-01-31 04:14:40,35534,-3003.000,1862.000,7590.000,1.000,-4.000,3.000,0.000,0.000,0
2026-01-31 04:14:40,35574,-3003.000,1860.000,7593.000,3.000,0.000,2.000,0.000,0.000,0
2026-01-31 04:14:40,35614,-3008.000,1863.000,7593.000,4.000,-6.000,3.000,0.000,0.000,0
2026-01-31 04:14:40,35654,-3005.000,1858.000,7592.000,2.000,-2.000,3.000,0.000,0.000,0
2026-01-31 04:14:40,35694,-3011.000,1866.000,7592.000,2.000,-3.000,3.000,0.000,0.000,0
2026-01-31 04:14:40,35734,-3001.000,1861.000,7591.000,3.000,-5.000,6.000,0.000,0.000,0
2026-01-31 04:14:40,35774,-2999.000,1864.000,7591.000,1.000,-3.000,3.000,0.000,0.000,0
2026-01-31 04:14:40,35814,-3008.000,1869.000,7587.000,-1.000,-3.000,2.000,0.000,0.000,0
2026-01-31 04:14:40,35854,-3007.000,1865.000,7592.000,1.000,-3.000,2.000,0.000,0.000,0
2026-01-31 04:14:40,35894,-3006.000,1864.000,7593.000,1.000,-2.000,1.000,0.000,0.000,0
2026-01-31 04:14:40,35934,-3007.000,1861.000,7589.000,2.000,-5.000,4.000,0.000,0.000,0
2026-01-31 04:14:40,35974,-3003.000,1865.000,7593.000,2.000,-3.000,3.000,0.000,0.000,0
2026-01-31 04:14:40,36014,-3005.000,1864.000,7585.000,1.000,-5.000,2.000,0.000,0.000,0
2026-01-31 04:14:40,36054,-3007.000,1863.000,7597.000,-1.000,-4.000,4.000,0.000,0.000,0
2026-01-31 04:14:40,36094,-3004.000,1864.000,7594.000,5.000,-2.000,4.000,0.000,0.000,0
2026-01-31 04:14:40,36134,-3006.000,1868.000,7592.000,-1.000,-4.000,2.000,0.000,0.000,0
2026-01-31 04:14:40,36174,-3010.000,1859.000,7591.000,4.000,-3.000,5.000,0.000,0.000,0
2026-01-31 04:14:40,36214,-3001.000,1864.000,7598.000,1.000,-6.000,6.000,0.000,0.000,0
2026-01-31 04:14:40,36254,-3004.000,1867.000,7595.000,6.000,-7.000,9.000,0.000,0.000,0
2026-01-31 04:14:40,36294,-3008.000,1863.000,7595.000,1.000,-9.000,6.000,0.000,0.000,0
2026-01-31 04:14:40,36334,-3004.000,1862.000,7594.000,3.000,-4.000,5.000,0.000,0.000,0
2026-01-31 04:14:40,36374,-3008.000,1864.000,7591.000,3.000,-2.000,1.000,0.000,0.000,0
2026-01-31 04:14:40,36414,-3007.000,1866.000,7594.000,-1.000,-5.000,2.000,0.000,0.000,0
2026-01-31 04:14:41,36454,-3007.000,1866.000,7598.000,3.000,-3.000,5.000,0.000,0.000,0
2026-01-31 04:14:41,36494,-3006.000,1867.000,7592.000,-1.000,-2.000,4.000,0.000,0.000,0
2026-01-31 04:14:41,36534,-3004.000,1864.000,7592.000,5.000,-3.000,4.000,0.000,0.000,0
2026-01-31 04:14:41,36574,-3010.000,1866.000,7595.000,2.000,-4.000,3.000,0.000,0.000,0
2026-01-31 04:14:41,36614,-3010.000,1864.000,7593.000,4.000,-2.000,2.000,0.000,0.000,0
2026-01-31 04:14:41,36654,-3006.000,1860.000,7593.000,-2.000,-5.000,4.000,0.000,0.000,0
2026-01-31 04:14:41,36694,-3010.000,1861.000,7593.000,3.000,-3.000,2.000,0.000,0.000,0
2026-01-31 04:14:41,36734,-3006.000,1868.000,7592.000,2.000,-3.000,4.000,0.000,0.000,0
2026-01-31 04:14:41,36774,-3008.000,1867.000,7589.000,2.000,-5.000,4.000,0.000,0.000,0
2026-01-31 04:14:41,36814,-3010.000,1865.000,7590.000,2.000,-1.000,3.000,0.000,0.000,0
2026-01-31 04:14:41,36854,-3011.000,1865.000,7590.000,-1.000,-5.000,2.000,0.000,0.000,0
2026-01-31 04:14:41,36894,-3008.000,1864.000,7590.000,0.000,-4.000,5.000,0.000,0.000,0
2026-01-31 04:14:41,36934,-3003.000,1864.000,7594.000,-2.000,-5.000,3.000,0.000,0.000,0
2026-01-31 04:14:41,36974,-3014.000,1859.000,7588.000,3.000,-5.000,3.000,0.000,0.000,0
2026-01-31 04:14:41,37014,-3007.000,1862.000,7592.000,0.000,1.000,3.000,0.000,0.000,0
2026-01-31 04:14:41,37054,-3002.000,1869.000,7594.000,8.000,-2.000,4.000,0.000,0.000,0
2026-01-31 04:14:41,37094,-3010.000,1866.000,7605.000,-1.000,-3.000,4.000,0.000,0.000,0
2026-01-31 04:14:41,37134,-3008.000,1863.000,7585.000,2.000,-2.000,4.000,0.000,0.000,0
2026-01-31 04:14:41,37174,-3005.000,1863.000,7598.000,2.000,-4.000,3.000,0.000,0.000,0
2026-01-31 04:14:41,37214,-3006.000,1863.000,7594.000,3.000,-4.000,6.000,0.000,0.000,0
2026-01-31 04:14:41,37254,-3002.000,1864.000,7593.000,7.000,-4.000,8.000,0.000,0.000,0
2026-01-31 04:14:41,37294,-3006.000,1864.000,7589.000,0.000,-6.000,6.000,0.000,0.000,0
2026-01-31 04:14:41,37334,-3006.000,1864.000,7595.000,7.000,-4.000,9.000,0.000,0.000,0
2026-01-31 04:14:41,37377,-3006.000,1861.000,7594.000,5.000,1.000,3.000,0.000,0.000,0
2026-01-31 04:14:41,37416,-3009.000,1864.000,7593.000,2.000,-7.000,4.000,0.000,0.000,0
2026-01-31 04:14:42,37454,-3002.000,1862.000,7590.000,-1.000,-5.000,2.000,0.000,0.000,0
2026-01-31 04:14:42,37496,-3009.000,1862.000,7594.000,6.000,-5.000,5.000,0.000,0.000,0
2026-01-31 04:14:42,37534,-3010.000,1865.000,7593.000,1.000,-6.000,6.000,0.000,0.000,0
2026-01-31 04:14:42,37574,-3002.000,1862.000,7594.000,3.000,-5.000,4.000,0.000,0.000,0
2026-01-31 04:14:42,37614,-3013.000,1861.000,7594.000,4.000,-6.000,6.000,0.000,0.000,0
2026-01-31 04:14:42,37654,-3013.000,1868.000,7594.000,2.000,-5.000,6.000,0.000,0.000,0
2026-01-31 04:14:42,37694,-3003.000,1862.000,7590.000,3.000,-6.000,9.000,0.000,0.000,0
2026-01-31 04:14:42,37734,-3005.000,1862.000,7590.000,3.000,-6.000,7.000,0.000,0.000,0
2026-01-31 04:14:42,37774,-3009.000,1869.000,7590.000,5.000,-7.000,7.000,0.000,0.000,0
2026-01-31 04:14:42,37814,-3010.000,1868.000,7592.000,4.000,-8.000,6.000,0.000,0.000,0
2026-01-31 04:14:42,37854,-3008.000,1862.000,7586.000,4.000,-3.000,6.000,0.000,0.000,0
2026-01-31 04:14:42,37894,-3009.000,1865.000,7584.000,3.000,-6.000,5.000,0.000,0.000,0
2026-01-31 04:14:42,37934,-3003.000,1864.000,7600.000,3.000,-6.000,4.000,0.000,0.000,0
2026-01-31 04:14:42,37974,-3005.000,1863.000,7589.000,4.000,-7.000,8.000,0.000,0.000,0
2026-01-31 04:14:42,38014,-3009.000,1866.000,7593.000,4.000,-6.000,5.000,0.000,0.000,0
2026-01-31 04:14:42,38054,-3006.000,1862.000,7586.000,4.000,-7.000,6.000,0.000,0.000,0
2026-01-31 04:14:42,38094,-3009.000,1864.000,7595.000,3.000,-6.000,7.000,0.000,0.000,0
2026-01-31 04:14:42,38134,-3007.000,1869.000,7592.000,2.000,-5.000,3.000,0.000,0.000,0
2026-01-31 04:14:42,38174,-3008.000,1861.000,7599.000,1.000,-2.000,5.000,0.000,0.000,0
2026-01-31 04:14:42,38214,-3012.000,1865.000,7592.000,-1.000,-6.000,3.000,0.000,0.000,0
2026-01-31 04:14:42,38254,-3004.000,1864.000,7595.000,3.000,-4.000,1.000,0.000,0.000,0
2026-01-31 04:14:42,38294,-3007.000,1863.000,7591.000,-2.000,-6.000,2.000,0.000,0.000,0
2026-01-31 04:14:42,38334,-3007.000,1863.000,7600.000,5.000,-4.000,2.000,0.000,0.000,0
2026-01-31 04:14:42,38374,-3012.000,1863.000,7592.000,-1.000,-5.000,7.000,0.000,0.000,0
2026-01-31 04:14:42,38414,-3009.000,1862.000,7590.000,3.000,-5.000,4.000,0.000,0.000,0
2026-01-31 04:14:43,38454,-3012.000,1858.000,7601.000,0.000,-1.000,2.000,0.000,0.000,0
2026-01-31 04:14:43,38494,-3008.000,1865.000,7596.000,1.000,-4.000,3.000,0.000,0.000,0
2026-01-31 04:14:43,38534,-3009.000,1868.000,7595.000,1.000,-5.000,0.000,0.000,0.000,0
2026-01-31 04:14:43,38574,-3015.000,1869.000,7589.000,3.000,-4.000,4.000,0.000,0.000,0
2026-01-31 04:14:43,38614,-3009.000,1866.000,7596.000,2.000,-1.000,2.000,0.000,0.000,0
2026-01-31 04:14:43,38654,-3002.000,1861.000,7587.000,2.000,-5.000,1.000,0.000,0.000,0
2026-01-31 04:14:43,38694,-3005.000,1864.000,7587.000,4.000,-5.000,5.000,0.000,0.000,0
2026-01-31 04:14:43,38734,-3005.000,1864.000,7590.000,2.000,-3.000,2.000,0.000,0.000,0
2026-01-31 04:14:43,38774,-3009.000,1857.000,7591.000,0.000,-6.000,6.000,0.000,0.000,0
2026-01-31 04:14:43,38814,-3004.000,1863.000,7589.000,4.000,-4.000,4.000,0.000,0.000,0
2026-01-31 04:14:43,38854,-3013.000,1864.000,7594.000,1.000,-4.000,5.000,0.000,0.000,0
2026-01-31 04:14:43,38894,-3007.000,1869.000,7586.000,3.000,-3.000,3.000,0.000,0.000,0
2026-01-31 04:14:43,38934,-3015.000,1863.000,7591.000,0.000,-4.000,2.000,0.000,0.000,0
2026-01-31 04:14:43,38974,-3004.000,1864.000,7591.000,2.000,-4.000,4.000,0.000,0.000,0
2026-01-31 04:14:43,39014,-3013.000,1861.000,7597.000,3.000,-2.000,3.000,0.000,0.000,0
2026-01-31 04:14:43,39054,-3007.000,1858.000,7595.000,5.000,-4.000,7.000,0.000,0.000,0
2026-01-31 04:14:43,39094,-3011.000,1867.000,7595.000,1.000,2.000,4.000,0.000,0.000,0
2026-01-31 04:14:43,39134,-3004.000,1864.000,7585.000,2.000,-7.000,4.000,0.000,0.000,0
2026-01-31 04:14:43,39174,-3011.000,1865.000,7591.000,1.000,-5.000,4.000,0.000,0.000,0
2026-01-31 04:14:43,39214,-3013.000,1867.000,7591.000,1.000,-6.000,3.000,0.000,0.000,0
2026-01-31 04:14:43,39254,-3008.000,1864.000,7587.000,6.000,-1.000,2.000,0.000,0.000,0
2026-01-31 04:14:43,39294,-3008.000,1870.000,7589.000,1.000,-4.000,4.000,0.000,0.000,0
2026-01-31 04:14:43,39334,-3004.000,1861.000,7593.000,1.000,-4.000,2.000,0.000,0.000,0
2026-01-31 04:14:43,39377,-3003.000,1863.000,7584.000,3.000,-1.000,2.000,0.000,0.000,0
2026-01-31 04:14:43,39417,-3010.000,1861.000,7589.000,2.000,-3.000,2.000,0.000,0.000,0
2026-01-31 04:14:44,39454,-3014.000,1865.000,7592.000,2.000,-4.000,2.000,0.000,0.000,0
2026-01-31 04:14:44,39497,-3006.000,1869.000,7594.000,2.000,2.000,3.000,0.000,0.000,0
2026-01-31 04:14:44,39534,-3011.000,1865.000,7592.000,-1.000,-4.000,0.000,0.000,0.000,0
2026-01-31 04:14:44,39574,-3011.000,1863.000,7590.000,0.000,-2.000,6.000,0.000,0.000,0
2026-01-31 04:14:44,39614,-3007.000,1861.000,7599.000,4.000,-4.000,6.000,0.000,0.000,0
2026-01-31 04:14:44,39654,-3012.000,1861.000,7590.000,-1.000,-1.000,3.000,0.000,0.000,0
2026-01-31 04:14:44,39694,-3009.000,1864.000,7586.000,2.000,-5.000,4.000,0.000,0.000,0
2026-01-31 04:14:44,39734,-3009.000,1866.000,7591.000,3.000,-4.000,3.000,0.000,0.000,0
2026-01-31 04:14:44,39774,-3004.000,1866.000,7599.000,4.000,-3.000,6.000,0.000,0.000,0
2026-01-31 04:14:44,39814,-3007.000,1862.000,7587.000,0.000,-5.000,2.000,0.000,0.000,0
2026-01-31 04:14:44,39854,-3010.000,1865.000,7595.000,4.000,-4.000,5.000,0.000,0.000,0
2026-01-31 04:14:44,39894,-3010.000,1862.000,7591.000,2.000,-5.000,3.000,0.000,0.000,0
2026-01-31 04:14:44,39934,-3009.000,1867.000,7592.000,6.000,-4.000,6.000,0.000,0.000,0
2026-01-31 04:14:44,39974,-3012.000,1868.000,7596.000,3.000,-6.000,4.000,0.000,0.000,0
2026-01-31 04:14:44,40014,-3003.000,1870.000,7590.000,6.000,-5.000,7.000,0.000,0.000,0
2026-01-31 04:14:44,40054,-3007.000,1866.000,7592.000,1.000,-8.000,5.000,0.000,0.000,0
2026-01-31 04:14:44,40094,-3010.000,1863.000,7587.000,5.000,-7.000,7.000,0.000,0.000,0
2026-01-31 04:14:44,40134,-3005.000,1866.000,7595.000,5.000,-4.000,6.000,0.000,0.000,0
2026-01-31 04:14:44,40174,-3008.000,1864.000,7583.000,6.000,-6.000,10.000,0.000,0.000,0
2026-01-31 04:14:44,40214,-3006.000,1862.000,7588.000,3.000,-5.000,8.000,0.000,0.000,0
2026-01-31 04:14:44,40254,-3010.000,1863.000,7592.000,1.000,-6.000,7.000,0.000,0.000,0
2026-01-31 04:14:44,40294,-3007.000,1863.000,7589.000,4.000,-7.000,3.000,0.000,0.000,0
2026-01-31 04:14:44,40334,-3005.000,1863.000,7590.000,4.000,-4.000,4.000,0.000,0.000,0
2026-01-31 04:14:44,40374,-3012.000,1860.000,7586.000,2.000,-3.000,1.000,0.000,0.000,0
2026-01-31 04:14:44,40414,-3010.000,1867.000,7588.000,1.000,-1.000,3.000,0.000,0.000,0
2026-01-31 04:14:45,40454,-3004.000,1860.000,7594.000,2.000,-2.000,2.000,0.000,0.000,0
2026-01-31 04:14:45,40494,-3009.000,1862.000,7590.000,2.000,-2.000,1.000,0.000,0.000,0
2026-01-31 04:14:45,40534,-3007.000,1864.000,7588.000,1.000,-4.000,4.000,0.000,0.000,0
2026-01-31 04:14:45,40574,-3011.000,1867.000,7582.000,0.000,-6.000,6.000,0.000,0.000,0
2026-01-31 04:14:45,40614,-3013.000,1864.000,7587.000,2.000,0.000,3.000,0.000,0.000,0
2026-01-31 04:14:45,40654,-3005.000,1868.000,7584.000,2.000,-4.000,6.000,0.000,0.000,0
2026-01-31 04:14:45,40694,-3006.000,1862.000,7588.000,2.000,-4.000,5.000,0.000,0.000,0
2026-01-31 04:14:45,40734,-3011.000,1864.000,7587.000,1.000,-6.000,1.000,0.000,0.000,0
2026-01-31 04:14:45,40774,-3008.000,1865.000,7585.000,2.000,-8.000,3.000,0.000,0.000,0
2026-01-31 04:14:45,40814,-3009.000,1861.000,7589.000,0.000,-3.000,5.000,0.000,0.000,0
2026-01-31 04:14:45,40854,-3012.000,1863.000,7591.000,2.000,-5.000,3.000,0.000,0.000,0
2026-01-31 04:14:45,40894,-3003.000,1866.000,7595.000,2.000,-3.000,3.000,0.000,0.000,0
2026-01-31 04:14:45,40934,-3004.000,1866.000,7584.000,2.000,-5.000,3.000,0.000,0.000,0
2026-01-31 04:14:45,40974,-3009.000,1862.000,7592.000,0.000,-5.000,3.000,0.000,0.000,0
2026-01-31 04:14:45,41014,-3007.000,1869.000,7595.000,4.000,-4.000,6.000,0.000,0.000,0
2026-01-31 04:14:45,41054,-3012.000,1864.000,7591.000,2.000,-3.000,4.000,0.000,0.000,0
2026-01-31 04:14:45,41094,-3005.000,1865.000,7589.000,1.000,0.000,2.000,0.000,0.000,0
2026-01-31 04:14:45,41134,-3006.000,1863.000,7584.000,2.000,-2.000,0.000,0.000,0.000,0
2026-01-31 04:14:45,41174,-3010.000,1867.000,7595.000,3.000,-2.000,4.000,0.000,0.000,0
2026-01-31 04:14:45,41214,-3007.000,1863.000,7592.000,3.000,-8.000,8.000,0.000,0.000,0
2026-01-31 04:14:45,41254,-3006.000,1862.000,7588.000,5.000,-3.000,4.000,0.000,0.000,0
2026-01-31 04:14:45,41294,-3007.000,1869.000,7596.000,4.000,-6.000,3.000,0.000,0.000,0
2026-01-31 04:14:45,41334,-3005.000,1868.000,7586.000,4.000,-4.000,4.000,0.000,0.000,0
2026-01-31 04:14:45,41377,-3009.000,1868.000,7591.000,1.000,0.000,1.000,0.000,0.000,0
2026-01-31 04:14:45,41416,-3007.000,1868.000,7583.000,1.000,-3.000,3.000,0.000,0.000,0
2026-01-31 04:14:46,41454,-3007.000,1866.000,7595.000,0.000,-1.000,2.000,0.000,0.000,0
2026-01-31 04:14:46,41497,-3009.000,1868.000,7587.000,0.000,-1.000,2.000,0.000,0.000,0
2026-01-31 04:14:46,41534,-3007.000,1869.000,7591.000,3.000,-2.000,2.000,0.000,0.000,0
2026-01-31 04:14:46,41574,-3007.000,1866.000,7594.000,3.000,-2.000,3.000,0.000,0.000,0
2026-01-31 04:14:46,41614,-3006.000,1866.000,7590.000,0.000,-7.000,3.000,0.000,0.000,0
2026-01-31 04:14:46,41654,-3004.000,1863.000,7591.000,3.000,-3.000,4.000,0.000,0.000,0
2026-01-31 04:14:46,41694,-3011.000,1866.000,7592.000,3.000,-5.000,3.000,0.000,0.000,0
2026-01-31 04:14:46,41734,-3007.000,1865.000,7592.000,3.000,-3.000,4.000,0.000,0.000,0
2026-01-31 04:14:46,41774,-3010.000,1859.000,7590.000,3.000,-3.000,3.000,0.000,0.000,0
2026-01-31 04:14:46,41814,-3009.000,1865.000,7594.000,-1.000,-2.000,1.000,0.000,0.000,0
2026-01-31 04:14:46,41854,-3016.000,1867.000,7594.000,0.000,-3.000,4.000,0.000,0.000,0
2026-01-31 04:14:46,41894,-3007.000,1862.000,7596.000,3.000,-4.000,2.000,0.000,0.000,0
2026-01-31 04:14:46,41934,-3008.000,1863.000,7588.000,1.000,-1.000,3.000,0.000,0.000,0
2026-01-31 04:14:46,41974,-3009.000,1863.000,7585.000,2.000,-5.000,4.000,0.000,0.000,0
2026-01-31 04:14:46,42014,-3007.000,1864.000,7592.000,2.000,-4.000,6.000,0.000,0.000,0
2026-01-31 04:14:46,42054,-3012.000,1862.000,7595.000,1.000,-5.000,2.000,0.000,0.000,0
2026-01-31 04:14:46,42094,-3007.000,1866.000,7597.000,2.000,-3.000,5.000,0.000,0.000,0
2026-01-31 04:14:46,42134,-3007.000,1865.000,7588.000,3.000,-1.000,2.000,0.000,0.000,0
2026-01-31 04:14:46,42174,-3008.000,1857.000,7586.000,2.000,-4.000,3.000,0.000,0.000,0
2026-01-31 04:14:46,42214,-3009.000,1862.000,7594.000,2.000,-2.000,6.000,0.000,0.000,0
2026-01-31 04:14:46,42254,-3009.000,1867.000,7594.000,3.000,-4.000,5.000,0.000,0.000,0
2026-01-31 04:14:46,42294,-3014.000,1866.000,7596.000,2.000,-4.000,5.000,0.000,0.000,0
2026-01-31 04:14:46,42334,-3006.000,1863.000,7596.000,4.000,-3.000,2.000,0.000,0.000,0
2026-01-31 04:14:46,42374,-3011.000,1864.000,7589.000,3.000,-5.000,4.000,0.000,0.000,0
2026-01-31 04:14:46,42414,-3006.000,1868.000,7595.000,5.000,-3.000,4.000,0.000,0.000,0
2026-01-31 04:14:47,42454,-3009.000,1866.000,7595.000,-2.000,-3.000,2.000,0.000,0.000,0
2026-01-31 04:14:47,42494,-3010.000,1866.000,7589.000,1.000,-3.000,1.000,0.000,0.000,0
2026-01-31 04:14:47,42534,-3011.000,1868.000,7595.000,3.000,-4.000,2.000,0.000,0.000,0
2026-01-31 04:14:47,42574,-3012.000,1865.000,7589.000,4.000,-5.000,4.000,0.000,0.000,0
2026-01-31 04:14:47,42614,-3006.000,1863.000,7593.000,1.000,-3.000,4.000,0.000,0.000,0
2026-01-31 04:14:47,42654,-3012.000,1867.000,7591.000,1.000,-5.000,6.000,0.000,0.000,0
2026-01-31 04:14:47,42694,-3014.000,1863.000,7594.000,3.000,-3.000,5.000,0.000,0.000,0
2026-01-31 04:14:47,42734,-3011.000,1865.000,7595.000,3.000,-7.000,5.000,0.000,0.000,0
2026-01-31 04:14:47,42774,-3010.000,1861.000,7594.000,1.000,-4.000,3.000,0.000,0.000,0
2026-01-31 04:14:47,42814,-3010.000,1863.000,7591.000,2.000,-5.000,6.000,0.000,0.000,0
2026-01-31 04:14:47,42854,-3008.000,1861.000,7589.000,1.000,-3.000,4.000,0.000,0.000,0
2026-01-31 04:14:47,42894,-3010.000,1867.000,7589.000,3.000,-2.000,1.000,0.000,0.000,0
2026-01-31 04:14:47,42934,-3007.000,1866.000,7592.000,5.000,-6.000,4.000,0.000,0.000,0
2026-01-31 04:14:47,42974,-3007.000,1866.000,7588.000,1.000,-7.000,3.000,0.000,0.000,0
2026-01-31 04:14:47,43014,-3011.000,1866.000,7600.000,2.000,-4.000,2.000,0.000,0.000,0
2026-01-31 04:14:47,43054,-3010.000,1863.000,7595.000,-1.000,-3.000,3.000,0.000,0.000,0
2026-01-31 04:14:47,43094,-3005.000,1864.000,7599.000,2.000,-2.000,1.000,0.000,0.000,0
2026-01-31 04:14:47,43134,-3008.000,1866.000,7591.000,-2.000,-4.000,2.000,0.000,0.000,0
2026-01-31 04:14:47,43174,-3009.000,1861.000,7586.000,3.000,-4.000,2.000,0.000,0.000,0
2026-01-31 04:14:47,43214,-3003.000,1863.000,7597.000,0.000,-6.000,4.000,0.000,0.000,0
2026-01-31 04:14:47,43254,-3008.000,1865.000,7600.000,3.000,-6.000,5.000,0.000,0.000,0
2026-01-31 04:14:47,43294,-3011.000,1868.000,7597.000,2.000,-6.000,2.000,0.000,0.000,0
2026-01-31 04:14:47,43334,-3010.000,1862.000,7596.000,1.000,-6.000,3.000,0.000,0.000,0
2026-01-31 04:14:47,43377,-3010.000,1869.000,7591.000,2.000,0.000,2.000,0.000,0.000,0
2026-01-31 04:14:47,43414,-3011.000,1862.000,7591.000,1.000,-3.000,4.000,0.000,0.000,0
2026-01-31 04:14:48,43454,-3009.000,1869.000,7598.000,0.000,-2.000,3.000,0.000,0.000,0
2026-01-31 04:14:48,43494,-3008.000,1866.000,7596.000,1.000,-1.000,0.000,0.000,0.000,0
2026-01-31 04:14:48,43534,-3008.000,1864.000,7595.000,1.000,-3.000,4.000,0.000,0.000,0
2026-01-31 04:14:48,43574,-3016.000,1865.000,7597.000,3.000,-5.000,4.000,0.000,0.000,0
2026-01-31 04:14:48,43614,-3009.000,1865.000,7594.000,0.000,-2.000,2.000,0.000,0.000,0
2026-01-31 04:14:48,43654,-3011.000,1865.000,7587.000,5.000,-5.000,4.000,0.000,0.000,0
2026-01-31 04:14:48,43694,-3015.000,1862.000,7587.000,1.000,-4.000,2.000,0.000,0.000,0
2026-01-31 04:14:48,43734,-3008.000,1868.000,7593.000,5.000,-3.000,9.000,0.000,0.000,0
2026-01-31 04:14:48,43774,-3005.000,1865.000,7592.000,1.000,-8.000,8.000,0.000,0.000,0
2026-01-31 04:14:48,43814,-3006.000,1865.000,7589.000,2.000,-6.000,7.000,0.000,0.000,0
2026-01-31 04:14:48,43854,-3010.000,1865.000,7588.000,0.000,-9.000,7.000,0.000,0.000,0
2026-01-31 04:14:48,43894,-3003.000,1871.000,7589.000,2.000,-5.000,3.000,0.000,0.000,0
2026-01-31 04:14:48,43934,-3008.000,1863.000,7586.000,4.000,-3.000,4.000,0.000,0.000,0
2026-01-31 04:14:48,43974,-3007.000,1868.000,7591.000,2.000,-3.000,3.000,0.000,0.000,0
2026-01-31 04:14:48,44014,-3014.000,1867.000,7590.000,2.000,-5.000,7.000,0.000,0.000,0
2026-01-31 04:14:48,44054,-3007.000,1864.000,7596.000,0.000,-3.000,2.000,0.000,0.000,0
2026-01-31 04:14:48,44094,-3010.000,1866.000,7592.000,3.000,-3.000,3.000,0.000,0.000,0
2026-01-31 04:14:48,44134,-3011.000,1863.000,7596.000,2.000,-4.000,3.000,0.000,0.000,0
2026-01-31 04:14:48,44174,-3014.000,1863.000,7587.000,4.000,-6.000,6.000,0.000,0.000,0
2026-01-31 04:14:48,44214,-3009.000,1862.000,7599.000,5.000,-2.000,6.000,0.000,0.000,0
2026-01-31 04:14:48,44254,-3007.000,1865.000,7590.000,5.000,-3.000,3.000,0.000,0.000,0
2026-01-31 04:14:48,44294,-3012.000,1862.000,7591.000,3.000,-2.000,3.000,0.000,0.000,0
2026-01-31 04:14:48,44334,-3012.000,1868.000,7586.000,3.000,-4.000,4.000,0.000,0.000,0
2026-01-31 04:14:48,44374,-3008.000,1859.000,7590.000,3.000,-4.000,5.000,0.000,0.000,0
2026-01-31 04:14:48,44414,-3011.000,1873.000,7595.000,4.000,0.000,1.000,0.000,0.000,0
2026-01-31 04:14:49,44454,-3010.000,1865.000,7589.000,4.000,-5.000,5.000,0.000,0.000,0
2026-01-31 04:14:49,44494,-3011.000,1867.000,7590.000,1.000,-6.000,3.000,0.000,0.000,0
2026-01-31 04:14:49,44534,-3007.000,1868.000,7591.000,2.000,-5.000,6.000,0.000,0.000,0
2026-01-31 04:14:49,44574,-3008.000,1867.000,7582.000,1.000,-4.000,5.000,0.000,0.000,0
2026-01-31 04:14:49,44614,-3016.000,1867.000,7588.000,4.000,-7.000,2.000,0.000,0.000,0
2026-01-31 04:14:49,44654,-3013.000,1867.000,7595.000,3.000,-2.000,4.000,0.000,0.000,0
2026-01-31 04:14:49,44694,-3005.000,1865.000,7590.000,3.000,-6.000,4.000,0.000,0.000,0
2026-01-31 04:14:49,44734,-3010.000,1867.000,7590.000,2.000,-7.000,5.000,0.000,0.000,0
2026-01-31 04:14:49,44774,-3011.000,1866.000,7590.000,4.000,-2.000,2.000,0.000,0.000,0
2026-01-31 04:14:49,44814,-3017.000,1864.000,7589.000,1.000,-5.000,2.000,0.000,0.000,0
2026-01-31 04:14:49,44854,-3013.000,1864.000,7583.000,4.000,-4.000,4.000,0.000,0.000,0
2026-01-31 04:14:49,44894,-3010.000,1866.000,7588.000,1.000,-3.000,6.000,0.000,0.000,0
2026-01-31 04:14:49,44934,-3009.000,1867.000,7600.000,3.000,-4.000,4.000,0.000,0.000,0
2026-01-31 04:14:49,44974,-3012.000,1869.000,7585.000,2.000,-5.000,6.000,0.000,0.000,0
2026-01-31 04:14:49,45014,-3007.000,1863.000,7593.000,3.000,-10.000,8.000,0.000,0.000,0
2026-01-31 04:14:49,45054,-3012.000,1859.000,7592.000,6.000,-7.000,5.000,0.000,0.000,0
2026-01-31 04:14:49,45094,-3014.000,1869.000,7592.000,3.000,-8.000,7.000,0.000,0.000,0
2026-01-31 04:14:49,45134,-3014.000,1868.000,7592.000,1.000,-1.000,7.000,0.000,0.000,0
2026-01-31 04:14:49,45174,-3013.000,1864.000,7597.000,7.000,-4.000,4.000,0.000,0.000,0
2026-01-31 04:14:49,45214,-3014.000,1867.000,7595.000,3.000,-7.000,5.000,0.000,0.000,0
2026-01-31 04:14:49,45254,-3006.000,1867.000,7594.000,1.000,-7.000,4.000,0.000,0.000,0
2026-01-31 04:14:49,45294,-3013.000,1867.000,7591.000,-1.000,-4.000,3.000,0.000,0.000,0
2026-01-31 04:14:49,45334,-3010.000,1864.000,7597.000,0.000,-4.000,2.000,0.000,0.000,0
2026-01-31 04:14:49,45377,-3014.000,1860.000,7590.000,-1.000,-3.000,2.000,0.000,0.000,0
2026-01-31 04:14:49,45416,-3006.000,1866.000,7597.000,3.000,1.000,3.000,0.000,0.000,0
2026-01-31 04:14:50,45454,-3011.000,1869.000,7585.000,0.000,0.000,2.000,0.000,0.000,0
2026-01-31 04:14:50,45497,-3006.000,1864.000,7592.000,1.000,0.000,1.000,0.000,0.000,0
2026-01-31 04:14:50,45534,-3004.000,1862.000,7597.000,3.000,-1.000,4.000,0.000,0.000,0
2026-01-31 04:14:50,45574,-3012.000,1861.000,7598.000,1.000,-5.000,4.000,0.000,0.000,0
2026-01-31 04:14:50,45614,-3010.000,1868.000,7592.000,5.000,-2.000,3.000,0.000,0.000,0
2026-01-31 04:14:50,45654,-3010.000,1866.000,7593.000,0.000,-4.000,3.000,0.000,0.000,0
2026-01-31 04:14:50,45694,-3009.000,1865.000,7596.000,3.000,-5.000,5.000,0.000,0.000,0
2026-01-31 04:14:50,45734,-3010.000,1866.000,7588.000,1.000,-4.000,1.000,0.000,0.000,0
2026-01-31 04:14:50,45774,-3009.000,1866.000,7602.000,1.000,-3.000,3.000,0.000,0.000,0
2026-01-31 04:14:50,45814,-3009.000,1867.000,7594.000,1.000,-1.000,3.000,0.000,0.000,0
2026-01-31 04:14:50,45854,-3014.000,1863.000,7588.000,0.000,-5.000,2.000,0.000,0.000,0
2026-01-31 04:14:50,45894,-3008.000,1866.000,7590.000,1.000,-3.000,5.000,0.000,0.000,0
2026-01-31 04:14:50,45934,-3016.000,1859.000,7590.000,2.000,-4.000,2.000,0.000,0.000,0
2026-01-31 04:14:50,45974,-3012.000,1867.000,7593.000,2.000,-4.000,5.000,0.000,0.000,0
2026-01-31 04:14:50,46014,-3006.000,1871.000,7588.000,3.000,-4.000,5.000,0.000,0.000,0
2026-01-31 04:14:50,46054,-3007.000,1869.000,7591.000,3.000,-4.000,4.000,0.000,0.000,0
2026-01-31 04:14:50,46094,-3006.000,1862.000,7588.000,4.000,-5.000,5.000,0.000,0.000,0
2026-01-31 04:14:50,46134,-3013.000,1871.000,7587.000,1.000,-7.000,3.000,0.000,0.000,0
2026-01-31 04:14:50,46174,-3010.000,1868.000,7590.000,2.000,-4.000,2.000,0.000,0.000,0
2026-01-31 04:14:50,46214,-3009.000,1864.000,7595.000,2.000,-5.000,6.000,0.000,0.000,0
2026-01-31 04:14:50,46254,-3010.000,1867.000,7588.000,4.000,-4.000,5.000,0.000,0.000,0
2026-01-31 04:14:50,46294,-3008.000,1866.000,7587.000,2.000,-3.000,1.000,0.000,0.000,0
2026-01-31 04:14:50,46334,-3014.000,1867.000,7587.000,1.000,-5.000,5.000,0.000,0.000,0
2026-01-31 04:14:50,46374,-3014.000,1862.000,7592.000,3.000,-3.000,4.000,0.000,0.000,0
2026-01-31 04:14:50,46414,-3014.000,1864.000,7595.000,2.000,-4.000,4.000,0.000,0.000,0
2026-01-31 04:14:51,46454,-3014.000,1863.000,7594.000,4.000,-7.000,7.000,0.000,0.000,0
2026-01-31 04:14:51,46494,-3010.000,1866.000,7597.000,0.000,-5.000,4.000,0.000,0.000,0
2026-01-31 04:14:51,46534,-3014.000,1868.000,7600.000,1.000,-1.000,4.000,0.000,0.000,0
2026-01-31 04:14:51,46574,-3010.000,1869.000,7592.000,2.000,-3.000,6.000,0.000,0.000,0
2026-01-31 04:14:51,46614,-3012.000,1866.000,7598.000,2.000,-4.000,3.000,0.000,0.000,0
2026-01-31 04:14:51,46654,-3012.000,1863.000,7596.000,3.000,-2.000,3.000,0.000,0.000,0
2026-01-31 04:14:51,46694,-3011.000,1866.000,7588.000,2.000,-4.000,2.000,0.000,0.000,0
2026-01-31 04:14:51,46734,-3010.000,1862.000,7592.000,0.000,-5.000,4.000,0.000,0.000,0
2026-01-31 04:14:51,46774,-3010.000,1866.000,7594.000,3.000,-3.000,3.000,0.000,0.000,0
2026-01-31 04:14:51,46814,-3011.000,1865.000,7592.000,1.000,-5.000,4.000,0.000,0.000,0
2026-01-31 04:14:51,46854,-3011.000,1868.000,7590.000,3.000,-5.000,5.000,0.000,0.000,0
2026-01-31 04:14:51,46894,-3005.000,1866.000,7587.000,4.000,-7.000,8.000,0.000,0.000,0
2026-01-31 04:14:51,46934,-3015.000,1864.000,7590.000,3.000,-2.000,6.000,0.000,0.000,0
2026-01-31 04:14:51,46974,-3007.000,1869.000,7589.000,5.000,-5.000,5.000,0.000,0.000,0
2026-01-31 04:14:51,47014,-3012.000,1870.000,7590.000,4.000,-6.000,5.000,0.000,0.000,0
2026-01-31 04:14:51,47054,-3012.000,1865.000,7595.000,4.000,-7.000,7.000,0.000,0.000,0
2026-01-31 04:14:51,47094,-3009.000,1866.000,7592.000,1.000,-4.000,3.000,0.000,0.000,0
2026-01-31 04:14:51,47134,-3013.000,1870.000,7593.000,4.000,-4.000,4.000,0.000,0.000,0
2026-01-31 04:14:51,47174,-3012.000,1866.000,7597.000,2.000,-4.000,3.000,0.000,0.000,0
2026-01-31 04:14:51,47214,-3016.000,1867.000,7592.000,3.000,-5.000,2.000,0.000,0.000,0
2026-01-31 04:14:51,47254,-3011.000,1870.000,7594.000,2.000,-7.000,4.000,0.000,0.000,0
2026-01-31 04:14:51,47294,-3011.000,1865.000,7594.000,2.000,-3.000,4.000,0.000,0.000,0
2026-01-31 04:14:51,47334,-3014.000,1866.000,7592.000,3.000,-4.000,5.000,0.000,0.000,0
2026-01-31 04:14:51,47377,-3009.000,1865.000,7597.000,-1.000,-1.000,1.000,0.000,0.000,0
2026-01-31 04:14:51,47414,-3017.000,1871.000,7590.000,0.000,-5.000,2.000,0.000,0.000,0
2026-01-31 04:14:52,47454,-3006.000,1867.000,7592.000,1.000,-5.000,1.000,0.000,0.000,0
2026-01-31 04:14:52,47494,-3012.000,1867.000,7588.000,0.000,-4.000,2.000,0.000,0.000,0
2026-01-31 04:14:52,47534,-3006.000,1868.000,7597.000,3.000,-4.000,1.000,0.000,0.000,0
2026-01-31 04:14:52,47574,-3011.000,1866.000,7589.000,3.000,-2.000,4.000,0.000,0.000,0
2026-01-31 04:14:52,47614,-3010.000,1870.000,7592.000,2.000,-4.000,3.000,0.000,0.000,0
2026-01-31 04:14:52,47654,-3009.000,1872.000,7595.000,4.000,-6.000,4.000,0.000,0.000,0
2026-01-31 04:14:52,47694,-3017.000,1867.000,7589.000,3.000,-3.000,3.000,0.000,0.000,0
2026-01-31 04:14:52,47734,-3013.000,1864.000,7590.000,2.000,-4.000,3.000,0.000,0.000,0
2026-01-31 04:14:52,47774,-3013.000,1866.000,7594.000,1.000,-6.000,5.000,0.000,0.000,0
2026-01-31 04:14:52,47814,-3009.000,1864.000,7593.000,2.000,-2.000,5.000,0.000,0.000,0
2026-01-31 04:14:52,47854,-3008.000,1868.000,7589.000,4.000,-2.000,0.000,0.000,0.000,0
2026-01-31 04:14:52,47894,-3011.000,1868.000,7594.000,3.000,-2.000,3.000,0.000,0.000,0
2026-01-31 04:14:52,47934,-3011.000,1866.000,7596.000,1.000,-4.000,4.000,0.000,0.000,0
2026-01-31 04:14:52,47974,-3011.000,1868.000,7595.000,0.000,-5.000,4.000,0.000,0.000,0
2026-01-31 04:14:52,48014,-3008.000,1867.000,7588.000,2.000,-4.000,5.000,0.000,0.000,0
2026-01-31 04:14:52,48054,-3014.000,1866.000,7595.000,3.000,-2.000,4.000,0.000,0.000,0
2026-01-31 04:14:52,48094,-3007.000,1867.000,7598.000,4.000,-3.000,2.000,0.000,0.000,0
2026-01-31 04:14:52,48134,-3016.000,1868.000,7593.000,0.000,-8.000,3.000,0.000,0.000,0
2026-01-31 04:14:52,48174,-3010.000,1867.000,7597.000,4.000,-2.000,5.000,0.000,0.000,0
2026-01-31 04:14:52,48214,-3012.000,1868.000,7584.000,1.000,-6.000,5.000,0.000,0.000,0
2026-01-31 04:14:52,48254,-3010.000,1869.000,7592.000,3.000,-6.000,4.000,0.000,0.000,0
2026-01-31 04:14:52,48294,-3007.000,1862.000,7596.000,3.000,-4.000,5.000,0.000,0.000,0
2026-01-31 04:14:52,48334,-3012.000,1865.000,7590.000,1.000,-5.000,5.000,0.000,0.000,0
2026-01-31 04:14:52,48374,-3014.000,1870.000,7592.000,0.000,-2.000,1.000,0.000,0.000,0
2026-01-31 04:14:52,48414,-3011.000,1864.000,7584.000,-1.000,-2.000,3.000,0.000,0.000,0
2026-01-31 04:14:53,48454,-3011.000,1866.000,7587.000,2.000,-1.000,2.000,0.000,0.000,0
2026-01-31 04:14:53,48494,-3015.000,1864.000,7585.000,1.000,-5.000,3.000,0.000,0.000,0
2026-01-31 04:14:53,48534,-3014.000,1868.000,7588.000,2.000,-2.000,3.000,0.000,0.000,0
2026-01-31 04:14:53,48574,-3014.000,1864.000,7585.000,3.000,-3.000,4.000,0.000,0.000,0
2026-01-31 04:14:53,48614,-3012.000,1866.000,7590.000,1.000,-4.000,3.000,0.000,0.000,0
2026-01-31 04:14:53,48654,-3009.000,1866.000,7592.000,2.000,-3.000,2.000,0.000,0.000,0
2026-01-31 04:14:53,48694,-3014.000,1866.000,7587.000,2.000,-4.000,5.000,0.000,0.000,0
2026-01-31 04:14:53,48734,-3015.000,1870.000,7589.000,3.000,-4.000,1.000,0.000,0.000,0
2026-01-31 04:14:53,48774,-3014.000,1864.000,7590.000,3.000,-4.000,4.000,0.000,0.000,0
2026-01-31 04:14:53,48814,-3010.000,1867.000,7589.000,1.000,-5.000,3.000,0.000,0.000,0
2026-01-31 04:14:53,48854,-3005.000,1863.000,7595.000,0.000,-6.000,3.000,0.000,0.000,0
2026-01-31 04:14:53,48894,-3017.000,1864.000,7590.000,3.000,-3.000,5.000,0.000,0.000,0
2026-01-31 04:14:53,48934,-3013.000,1868.000,7588.000,3.000,-2.000,4.000,0.000,0.000,0
2026-01-31 04:14:53,48974,-3016.000,1867.000,7590.000,6.000,-3.000,5.000,0.000,0.000,0
2026-01-31 04:14:53,49014,-3002.000,1862.000,7593.000,1.000,-5.000,4.000,0.000,0.000,0
2026-01-31 04:14:53,49054,-3013.000,1864.000,7593.000,3.000,-3.000,4.000,0.000,0.000,0
2026-01-31 04:14:53,49094,-3004.000,1864.000,7591.000,2.000,-5.000,4.000,0.000,0.000,0
2026-01-31 04:14:53,49134,-3011.000,1864.000,7585.000,3.000,-3.000,3.000,0.000,0.000,0
2026-01-31 04:14:53,49174,-3012.000,1866.000,7587.000,-2.000,-6.000,4.000,0.000,0.000,0
2026-01-31 04:14:53,49214,-3008.000,1867.000,7589.000,4.000,0.000,4.000,0.000,0.000,0
2026-01-31 04:14:53,49254,-3010.000,1866.000,7598.000,1.000,-3.000,5.000,0.000,0.000,0
2026-01-31 04:14:53,49294,-3017.000,1865.000,7591.000,4.000,-2.000,4.000,0.000,0.000,0
2026-01-31 04:14:53,49334,-3011.000,1865.000,7587.000,2.000,-3.000,3.000,0.000,0.000,0
2026-01-31 04:14:53,49377,-3015.000,1869.000,7584.000,-1.000,1.000,5.000,0.000,0.000,0
2026-01-31 04:14:53,49416,-3014.000,1866.000,7588.000,2.000,-2.000,2.000,0.000,0.000,0
2026-01-31 04:14:54,49457,-3015.000,1864.000,7587.000,-1.000,-3.000,2.000,0.000,0.000,0
2026-01-31 04:14:54,49494,-3013.000,1864.000,7590.000,0.000,1.000,3.000,0.000,0.000,0
2026-01-31 04:14:54,49537,-3009.000,1865.000,7595.000,2.000,-1.000,2.000,0.000,0.000,0
2026-01-31 04:14:54,49574,-3006.000,1866.000,7588.000,1.000,0.000,3.000,0.000,0.000,0
2026-01-31 04:14:54,49614,-3012.000,1865.000,7584.000,1.000,-8.000,6.000,0.000,0.000,0
2026-01-31 04:14:54,49654,-3005.000,1861.000,7589.000,-1.000,-5.000,2.000,0.000,0.000,0
2026-01-31 04:14:54,49694,-3017.000,1865.000,7581.000,5.000,-4.000,4.000,0.000,0.000,0
2026-01-31 04:14:54,49734,-3011.000,1866.000,7586.000,2.000,-9.000,6.000,0.000,0.000,0
2026-01-31 04:14:54,49774,-3016.000,1866.000,7592.000,4.000,-5.000,9.000,0.000,0.000,0
2026-01-31 04:14:54,49814,-3012.000,1864.000,7593.000,1.000,-7.000,4.000,0.000,0.000,0
2026-01-31 04:14:54,49854,-3008.000,1864.000,7587.000,7.000,-8.000,5.000,0.000,0.000,0
2026-01-31 04:14:54,49894,-3010.000,1864.000,7595.000,7.000,-8.000,6.000,0.000,0.000,0
2026-01-31 04:14:54,49934,-3014.000,1865.000,7588.000,4.000,-5.000,4.000,0.000,0.000,0
2026-01-31 04:14:54,49974,-3015.000,1867.000,7596.000,1.000,-7.000,6.000,0.000,0.000,0
2026-01-31 04:14:54,50014,-3011.000,1864.000,7590.000,1.000,-7.000,2.000,0.000,0.000,0
2026-01-31 04:14:54,50054,-3012.000,1865.000,7585.000,7.000,-4.000,4.000,0.000,0.000,0
2026-01-31 04:14:54,50094,-3016.000,1866.000,7589.000,-1.000,-6.000,2.000,0.000,0.000,0
2026-01-31 04:14:54,50134,-3012.000,1865.000,7585.000,4.000,-4.000,5.000,0.000,0.000,0
2026-01-31 04:14:54,50174,-3012.000,1870.000,7593.000,1.000,-6.000,8.000,0.000,0.000,0
2026-01-31 04:14:54,50214,-3015.000,1871.000,7591.000,4.000,-6.000,2.000,0.000,0.000,0
2026-01-31 04:14:54,50254,-3016.000,1871.000,7593.000,4.000,-6.000,3.000,0.000,0.000,0
2026-01-31 04:14:54,50294,-3014.000,1864.000,7597.000,4.000,-6.000,8.000,0.000,0.000,0
2026-01-31 04:14:54,50334,-3012.000,1865.000,7595.000,2.000,-7.000,6.000,0.000,0.000,0
2026-01-31 04:14:54,50374,-3016.000,1866.000,7586.000,3.000,-5.000,4.000,0.000,0.000,0
2026-01-31 04:14:54,50414,-3017.000,1869.000,7593.000,4.000,-7.000,4.000,0.000,0.000,0
2026-01-31 04:14:55,50454,-3015.000,1865.000,7588.000,1.000,-7.000,5.000,0.000,0.000,0
2026-01-31 04:14:55,50494,-3016.000,1868.000,7590.000,3.000,-5.000,4.000,0.000,0.000,0
2026-01-31 04:14:55,50534,-3010.000,1866.000,7588.000,1.000,-5.000,4.000,0.000,0.000,0
2026-01-31 04:14:55,50574,-3012.000,1863.000,7586.000,2.000,-7.000,5.000,0.000,0.000,0
2026-01-31 04:14:55,50614,-3007.000,1867.000,7596.000,3.000,-5.000,4.000,0.000,0.000,0
2026-01-31 04:14:55,50654,-3012.000,1864.000,7600.000,3.000,-4.000,5.000,0.000,0.000,0
2026-01-31 04:14:55,50694,-3018.000,1868.000,7592.000,3.000,-5.000,7.000,0.000,0.000,0
2026-01-31 04:14:55,50734,-3017.000,1869.000,7587.000,5.000,-6.000,6.000,0.000,0.000,0
2026-01-31 04:14:55,50774,-3013.000,1862.000,7585.000,4.000,-7.000,6.000,0.000,0.000,0
2026-01-31 04:14:55,50814,-3009.000,1867.000,7586.000,3.000,-3.000,3.000,0.000,0.000,0
2026-01-31 04:14:55,50854,-3012.000,1868.000,7591.000,3.000,-4.000,4.000,0.000,0.000,0
2026-01-31 04:14:55,50894,-3014.000,1863.000,7592.000,1.000,-4.000,5.000,0.000,0.000,0
2026-01-31 04:14:55,50934,-3014.000,1866.000,7592.000,5.000,-3.000,2.000,0.000,0.000,0
2026-01-31 04:14:55,50974,-3014.000,1866.000,7585.000,2.000,-6.000,5.000,0.000,0.000,0
2026-01-31 04:14:55,51014,-3009.000,1868.000,7582.000,3.000,-3.000,4.000,0.000,0.000,0
2026-01-31 04:14:55,51054,-3010.000,1865.000,7587.000,3.000,-4.000,4.000,0.000,0.000,0
2026-01-31 04:14:55,51094,-3015.000,1865.000,7594.000,4.000,-2.000,5.000,0.000,0.000,0
2026-01-31 04:14:55,51134,-3009.000,1869.000,7591.000,4.000,-8.000,2.000,0.000,0.000,0
2026-01-31 04:14:55,51174,-3014.000,1863.000,7586.000,4.000,-5.000,1.000,0.000,0.000,0
2026-01-31 04:14:55,51214,-3012.000,1873.000,7588.000,2.000,-6.000,5.000,0.000,0.000,0
2026-01-31 04:14:55,51254,-3015.000,1867.000,7596.000,2.000,-4.000,5.000,0.000,0.000,0
2026-01-31 04:14:55,51294,-3010.000,1865.000,7594.000,3.000,-5.000,3.000,0.000,0.000,0
2026-01-31 04:14:55,51334,-3013.000,1866.000,7590.000,2.000,-6.000,3.000,0.000,0.000,0
2026-01-31 04:14:55,51374,-3012.000,1868.000,7591.000,4.000,-1.000,3.000,0.000,0.000,0
2026-01-31 04:14:55,51414,-3013.000,1868.000,7588.000,1.000,-4.000,2.000,0.000,0.000,0
2026-01-31 04:14:56,51454,-3015.000,1869.000,7593.000,1.000,-5.000,6.000,0.000,0.000,0
2026-01-31 04:14:56,51494,-3009.000,1868.000,7587.000,2.000,-4.000,1.000,0.000,0.000,0
2026-01-31 04:14:56,51534,-3015.000,1868.000,7595.000,2.000,-3.000,5.000,0.000,0.000,0
2026-01-31 04:14:56,51574,-3011.000,1866.000,7590.000,4.000,-4.000,4.000,0.000,0.000,0
2026-01-31 04:14:56,51614,-3013.000,1865.000,7583.000,3.000,-8.000,6.000,0.000,0.000,0
2026-01-31 04:14:56,51654,-3009.000,1865.000,7591.000,3.000,-2.000,2.000,0.000,0.000,0
2026-01-31 04:14:56,51694,-3016.000,1863.000,7588.000,3.000,-7.000,4.000,0.000,0.000,0
2026-01-31 04:14:56,51734,-3012.000,1867.000,7588.000,4.000,-3.000,3.000,0.000,0.000,0
2026-01-31 04:14:56,51774,-3018.000,1868.000,7591.000,2.000,-6.000,6.000,0.000,0.000,0
2026-01-31 04:14:56,51814,-3015.000,1865.000,7585.000,1.000,-8.000,5.000,0.000,0.000,0
2026-01-31 04:14:56,51854,-3012.000,1862.000,7584.000,3.000,-4.000,3.000,0.000,0.000,0
2026-01-31 04:14:56,51894,-3014.000,1867.000,7592.000,5.000,-5.000,1.000,0.000,0.000,0
2026-01-31 04:14:56,51934,-3011.000,1869.000,7591.000,3.000,-4.000,4.000,0.000,0.000,0
2026-01-31 04:14:56,51974,-3020.000,1873.000,7593.000,1.000,-4.000,5.000,0.000,0.000,0
2026-01-31 04:14:56,52014,-3016.000,1869.000,7596.000,0.000,-5.000,2.000,0.000,0.000,0
2026-01-31 04:14:56,52054,-3014.000,1865.000,7587.000,6.000,-6.000,4.000,0.000,0.000,0
2026-01-31 04:14:56,52094,-3016.000,1873.000,7589.000,4.000,-7.000,3.000,0.000,0.000,0
2026-01-31 04:14:56,52134,-3009.000,1865.000,7593.000,7.000,-6.000,5.000,0.000,0.000,0
2026-01-31 04:14:56,52174,-3013.000,1871.000,7593.000,2.000,-7.000,4.000,0.000,0.000,0
2026-01-31 04:14:56,52214,-3014.000,1868.000,7592.000,4.000,-2.000,1.000,0.000,0.000,0
2026-01-31 04:14:56,52254,-3012.000,1865.000,7580.000,1.000,-7.000,2.000,0.000,0.000,0
2026-01-31 04:14:56,52294,-3008.000,1866.000,7590.000,7.000,-5.000,1.000,0.000,0.000,0
2026-01-31 04:14:56,52334,-3009.000,1860.000,7585.000,-1.000,-6.000,6.000,0.000,0.000,0
2026-01-31 04:14:56,52374,-3016.000,1861.000,7588.000,3.000,-6.000,6.000,0.000,0.000,0
2026-01-31 04:14:56,52414,-3011.000,1866.000,7589.000,3.000,-2.000,3.000,0.000,0.000,0
2026-01-31 04:14:57,52454,-3011.000,1867.000,7586.000,1.000,-7.000,-1.000,0.000,0.000,0
2026-01-31 04:14:57,52494,-3016.000,1866.000,7586.000,5.000,-3.000,3.000,0.000,0.000,0
2026-01-31 04:14:57,52534,-3016.000,1866.000,7585.000,-1.000,-6.000,5.000,0.000,0.000,0
2026-01-31 04:14:57,52574,-3015.000,1867.000,7592.000,3.000,-6.000,5.000,0.000,0.000,0
2026-01-31 04:14:57,52614,-3013.000,1868.000,7591.000,5.000,-4.000,4.000,0.000,0.000,0
2026-01-31 04:14:57,52654,-3007.000,1866.000,7590.000,3.000,-8.000,6.000,0.000,0.000,0
2026-01-31 04:14:57,52694,-3015.000,1866.000,7582.000,1.000,-6.000,7.000,0.000,0.000,0
2026-01-31 04:14:57,52734,-3008.000,1866.000,7589.000,3.000,-7.000,4.000,0.000,0.000,0
2026-01-31 04:14:57,52774,-3016.000,1862.000,7586.000,1.000,-5.000,4.000,0.000,0.000,0
2026-01-31 04:14:57,52814,-3010.000,1871.000,7589.000,4.000,-4.000,2.000,0.000,0.000,0
2026-01-31 04:14:57,52854,-3017.000,1867.000,7587.000,6.000,-7.000,6.000,0.000,0.000,0
2026-01-31 04:14:57,52894,-3016.000,1867.000,7595.000,3.000,-4.000,4.000,0.000,0.000,0
2026-01-31 04:14:57,52934,-3018.000,1865.000,7593.000,1.000,-4.000,5.000,0.000,0.000,0
2026-01-31 04:14:57,52974,-3019.000,1870.000,7593.000,4.000,-6.000,3.000,0.000,0.000,0
2026-01-31 04:14:57,53014,-3015.000,1865.000,7590.000,3.000,-5.000,1.000,0.000,0.000,0
2026-01-31 04:14:57,53054,-3011.000,1865.000,7584.000,4.000,-2.000,4.000,0.000,0.000,0
2026-01-31 04:14:57,53094,-3013.000,1867.000,7590.000,1.000,-3.000,6.000,0.000,0.000,0
2026-01-31 04:14:57,53134,-3009.000,1865.000,7586.000,1.000,-8.000,7.000,0.000,0.000,0
2026-01-31 04:14:57,53174,-3015.000,1862.000,7579.000,2.000,-4.000,2.000,0.000,0.000,0
2026-01-31 04:14:57,53214,-3009.000,1868.000,7597.000,4.000,-4.000,1.000,0.000,0.000,0
2026-01-31 04:14:57,53254,-3018.000,1866.000,7586.000,2.000,-6.000,3.000,0.000,0.000,0
2026-01-31 04:14:57,53294,-3010.000,1866.000,7601.000,3.000,-4.000,6.000,0.000,0.000,0
2026-01-31 04:14:57,53334,-3011.000,1871.000,7583.000,5.000,-5.000,2.000,0.000,0.000,0
2026-01-31 04:14:57,53377,-3015.000,1862.000,7591.000,1.000,-7.000,4.000,0.000,0.000,0
2026-01-31 04:14:57,53417,-3015.000,1861.000,7586.000,4.000,-3.000,2.000,0.000,0.000,0
2026-01-31 04:14:58,53454,-3013.000,1865.000,7590.000,1.000,-3.000,2.000,0.000,0.000,0
2026-01-31 04:14:58,53494,-3014.000,1867.000,7592.000,-1.000,-6.000,3.000,0.000,0.000,0
2026-01-31 04:14:58,53534,-3010.000,1871.000,7593.000,4.000,-6.000,3.000,0.000,0.000,0
2026-01-31 04:14:58,53574,-3008.000,1869.000,7590.000,3.000,-5.000,3.000,0.000,0.000,0
2026-01-31 04:14:58,53614,-3013.000,1862.000,7586.000,5.000,-5.000,3.000,0.000,0.000,0
2026-01-31 04:14:58,53654,-3010.000,1863.000,7594.000,3.000,-6.000,6.000,0.000,0.000,0
2026-01-31 04:14:58,53694,-3015.000,1863.000,7590.000,0.000,-6.000,6.000,0.000,0.000,0
2026-01-31 04:14:58,53734,-3018.000,1870.000,7589.000,3.000,-5.000,3.000,0.000,0.000,0
2026-01-31 04:14:58,53774,-3019.000,1867.000,7591.000,3.000,-5.000,2.000,0.000,0.000,0
2026-01-31 04:14:58,53814,-3018.000,1863.000,7591.000,2.000,-8.000,6.000,0.000,0.000,0
2026-01-31 04:14:58,53854,-3016.000,1866.000,7584.000,0.000,-7.000,5.000,0.000,0.000,0
2026-01-31 04:14:58,53894,-3009.000,1866.000,7587.000,2.000,-7.000,4.000,0.000,0.000,0
2026-01-31 04:14:58,53934,-3011.000,1867.000,7586.000,3.000,0.000,2.000,0.000,0.000,0
2026-01-31 04:14:58,53974,-3019.000,1861.000,7597.000,3.000,-7.000,4.000,0.000,0.000,0
2026-01-31 04:14:58,54014,-3015.000,1868.000,7594.000,2.000,-6.000,3.000,0.000,0.000,0
2026-01-31 04:14:58,54054,-3016.000,1867.000,7594.000,2.000,-3.000,6.000,0.000,0.000,0
2026-01-31 04:14:58,54094,-3014.000,1870.000,7584.000,1.000,-4.000,4.000,0.000,0.000,0
2026-01-31 04:14:58,54134,-3007.000,1867.000,7584.000,8.000,1.000,2.000,0.000,0.000,0
2026-01-31 04:14:58,54174,-3023.000,1866.000,7595.000,3.000,-7.000,4.000,0.000,0.000,0
2026-01-31 04:14:58,54214,-3010.000,1869.000,7593.000,4.000,-2.000,2.000,0.000,0.000,0
2026-01-31 04:14:58,54254,-3019.000,1868.000,7590.000,1.000,-5.000,4.000,0.000,0.000,0
2026-01-31 04:14:58,54294,-3014.000,1868.000,7588.000,2.000,-4.000,4.000,0.000,0.000,0
2026-01-31 04:14:58,54334,-3017.000,1867.000,7594.000,7.000,-3.000,2.000,0.000,0.000,0
2026-01-31 04:14:58,54374,-3011.000,1868.000,7584.000,0.000,-6.000,2.000,0.000,0.000,0
2026-01-31 04:14:58,54414,-3010.000,1871.000,7586.000,3.000,-5.000,2.000,0.000,0.000,0
2026-01-31 04:14:59,54454,-3015.000,1866.000,7596.000,5.000,-6.000,6.000,0.000,0.000,0
2026-01-31 04:14:59,54494,-3010.000,1870.000,7594.000,0.000,-3.000,4.000,0.000,0.000,0
2026-01-31 04:14:59,54534,-3017.000,1873.000,7591.000,1.000,-7.000,1.000,0.000,0.000,0
2026-01-31 04:14:59,54574,-3014.000,1864.000,7598.000,2.000,-7.000,6.000,0.000,0.000,0
2026-01-31 04:14:59,54614,-3007.000,1865.000,7588.000,4.000,-6.000,6.000,0.000,0.000,0
2026-01-31 04:14:59,54654,-3016.000,1864.000,7588.000,-1.000,-4.000,5.000,0.000,0.000,0
2026-01-31 04:14:59,54694,-3012.000,1872.000,7591.000,3.000,-4.000,2.000,0.000,0.000,0
2026-01-31 04:14:59,54734,-3014.000,1865.000,7590.000,3.000,-3.000,1.000,0.000,0.000,0
2026-01-31 04:14:59,54774,-3015.000,1871.000,7600.000,2.000,-6.000,0.000,0.000,0.000,0
2026-01-31 04:14:59,54814,-3015.000,1870.000,7592.000,2.000,-4.000,4.000,0.000,0.000,0
2026-01-31 04:14:59,54854,-3022.000,1867.000,7588.000,2.000,-3.000,4.000,0.000,0.000,0
2026-01-31 04:14:59,54894,-3017.000,1866.000,7586.000,3.000,-4.000,1.000,0.000,0.000,0
2026-01-31 04:14:59,54934,-3016.000,1863.000,7583.000,1.000,-7.000,2.000,0.000,0.000,0
2026-01-31 04:14:59,54974,-3016.000,1864.000,7585.000,3.000,-3.000,3.000,0.000,0.000,0
2026-01-31 04:14:59,55014,-3014.000,1865.000,7588.000,0.000,-7.000,7.000,0.000,0.000,0
2026-01-31 04:14:59,55054,-3016.000,1865.000,7590.000,2.000,-6.000,3.000,0.000,0.000,0
2026-01-31 04:14:59,55094,-3014.000,1867.000,7582.000,4.000,-5.000,3.000,0.000,0.000,0
2026-01-31 04:14:59,55134,-3009.000,1867.000,7593.000,3.000,-3.000,2.000,0.000,0.000,0
2026-01-31 04:14:59,55174,-3015.000,1870.000,7584.000,5.000,-5.000,4.000,0.000,0.000,0
2026-01-31 04:14:59,55214,-3008.000,1867.000,7589.000,3.000,-7.000,6.000,0.000,0.000,0
2026-01-31 04:14:59,55254,-3015.000,1863.000,7587.000,4.000,-4.000,7.000,0.000,0.000,0
2026-01-31 04:14:59,55294,-3015.000,1872.000,7581.000,3.000,-6.000,5.000,0.000,0.000,0
2026-01-31 04:14:59,55334,-3008.000,1866.000,7586.000,5.000,-2.000,3.000,0.000,0.000,0
2026-01-31 04:14:59,55377,-3013.000,1867.000,7590.000,0.000,-3.000,4.000,0.000,0.000,0
2026-01-31 04:14:59,55416,-3006.000,1867.000,7591.000,2.000,-6.000,6.000,0.000,0.000,0
2026-01-31 04:15:00,55454,-3014.000,1868.000,7588.000,1.000,-2.000,5.000,0.000,0.000,0
2026-01-31 04:15:00,55494,-3015.000,1872.000,7593.000,4.000,-5.000,5.000,0.000,0.000,0
2026-01-31 04:15:00,55534,-3017.000,1863.000,7599.000,0.000,-3.000,1.000,0.000,0.000,0
2026-01-31 04:15:00,55574,-3016.000,1868.000,7598.000,3.000,-5.000,4.000,0.000,0.000,0
2026-01-31 04:15:00,55614,-3012.000,1868.000,7598.000,3.000,-6.000,7.000,0.000,0.000,0
2026-01-31 04:15:00,55654,-3016.000,1868.000,7588.000,2.000,-7.000,5.000,0.000,0.000,0
2026-01-31 04:15:00,55694,-3011.000,1864.000,7588.000,5.000,-4.000,3.000,0.000,0.000,0
2026-01-31 04:15:00,55734,-3015.000,1863.000,7591.000,6.000,-3.000,5.000,0.000,0.000,0
2026-01-31 04:15:00,55774,-3014.000,1869.000,7591.000,2.000,-4.000,5.000,0.000,0.000,0
2026-01-31 04:15:00,55814,-3019.000,1868.000,7593.000,3.000,-6.000,5.000,0.000,0.000,0
2026-01-31 04:15:00,55854,-3019.000,1868.000,7583.000,1.000,-5.000,3.000,0.000,0.000,0
2026-01-31 04:15:00,55894,-3017.000,1871.000,7593.000,4.000,-3.000,5.000,0.000,0.000,0
2026-01-31 04:15:00,55934,-3018.000,1866.000,7588.000,5.000,-6.000,3.000,0.000,0.000,0
2026-01-31 04:15:00,55974,-3010.000,1871.000,7593.000,3.000,-8.000,6.000,0.000,0.000,0
2026-01-31 04:15:00,56014,-3014.000,1862.000,7590.000,5.000,-4.000,7.000,0.000,0.000,0
2026-01-31 04:15:00,56054,-3020.000,1868.000,7596.000,4.000,-6.000,5.000,0.000,0.000,0
2026-01-31 04:15:00,56094,-3012.000,1867.000,7587.000,5.000,-5.000,5.000,0.000,0.000,0
2026-01-31 04:15:00,56134,-3014.000,1866.000,7588.000,7.000,-7.000,4.000,0.000,0.000,0
2026-01-31 04:15:00,56174,-3016.000,1868.000,7593.000,5.000,-6.000,9.000,0.000,0.000,0
2026-01-31 04:15:00,56214,-3016.000,1869.000,7585.000,4.000,-7.000,8.000,0.000,0.000,0
2026-01-31 04:15:00,56254,-3019.000,1867.000,7587.000,4.000,-7.000,8.000,0.000,0.000,0
2026-01-31 04:15:00,56294,-3012.000,1872.000,7594.000,4.000,-3.000,4.000,0.000,0.000,0
2026-01-31 04:15:00,56334,-3014.000,1867.000,7585.000,2.000,-4.000,4.000,0.000,0.000,0
2026-01-31 04:15:00,56374,-3011.000,1869.000,7594.000,4.000,-4.000,4.000,0.000,0.000,0
2026-01-31 04:15:00,56414,-3010.000,1870.000,7589.000,2.000,-5.000,6.000,0.000,0.000,0
2026-01-31 04:15:01,56454,-3013.000,1866.000,7588.000,2.000,-4.000,3.000,0.000,0.000,0
2026-01-31 04:15:01,56494,-3011.000,1868.000,7592.000,4.000,-5.000,3.000,0.000,0.000,0
2026-01-31 04:15:01,56534,-3011.000,1867.000,7591.000,0.000,-3.000,2.000,0.000,0.000,0
2026-01-31 04:15:01,56574,-3014.000,1866.000,7593.000,5.000,-5.000,7.000,0.000,0.000,0
2026-01-31 04:15:01,56614,-3013.000,1865.000,7589.000,2.000,-9.000,7.000,0.000,0.000,0
2026-01-31 04:15:01,56654,-3009.000,1870.000,7589.000,2.000,-4.000,4.000,0.000,0.000,0
2026-01-31 04:15:01,56694,-3010.000,1865.000,7593.000,6.000,-2.000,1.000,0.000,0.000,0
2026-01-31 04:15:01,56734,-3014.000,1868.000,7584.000,3.000,-5.000,1.000,0.000,0.000,0
2026-01-31 04:15:01,56774,-3012.000,1877.000,7589.000,4.000,-4.000,4.000,0.000,0.000,0
2026-01-31 04:15:01,56814,-3012.000,1868.000,7585.000,0.000,-11.000,8.000,0.000,0.000,0
2026-01-31 04:15:01,56854,-3012.000,1866.000,7590.000,7.000,-5.000,8.000,0.000,0.000,0
2026-01-31 04:15:01,56894,-3013.000,1870.000,7585.000,3.000,-9.000,3.000,0.000,0.000,0
2026-01-31 04:15:01,56934,-3013.000,1867.000,7593.000,6.000,-9.000,5.000,0.000,0.000,0
2026-01-31 04:15:01,56974,-3012.000,1870.000,7591.000,2.000,-6.000,4.000,0.000,0.000,0
2026-01-31 04:15:01,57014,-3008.000,1871.000,7585.000,3.000,-9.000,6.000,0.000,0.000,0
2026-01-31 04:15:01,57054,-3014.000,1870.000,7585.000,3.000,-9.000,8.000,0.000,0.000,0
2026-01-31 04:15:01,57094,-3014.000,1869.000,7580.000,3.000,-7.000,5.000,0.000,0.000,0
2026-01-31 04:15:01,57134,-3013.000,1864.000,7586.000,6.000,-6.000,6.000,0.000,0.000,0
2026-01-31 04:15:01,57174,-3011.000,1868.000,7590.000,3.000,-8.000,8.000,0.000,0.000,0
2026-01-31 04:15:01,57214,-3013.000,1862.000,7585.000,3.000,-6.000,8.000,0.000,0.000,0
2026-01-31 04:15:01,57254,-3013.000,1872.000,7588.000,3.000,-11.000,7.000,0.000,0.000,0
2026-01-31 04:15:01,57294,-3019.000,1869.000,7589.000,2.000,-8.000,4.000,0.000,0.000,0
2026-01-31 04:15:01,57334,-3015.000,1862.000,7591.000,9.000,-7.000,4.000,0.000,0.000,0
2026-01-31 04:15:01,57377,-3011.000,1868.000,7583.000,0.000,-5.000,6.000,0.000,0.000,0
2026-01-31 04:15:01,57417,-3016.000,1868.000,7592.000,4.000,-4.000,4.000,0.000,0.000,0
2026-01-31 04:15:02,57454,-3014.000,1867.000,7591.000,2.000,-4.000,5.000,0.000,0.000,0
2026-01-31 04:15:02,57494,-3013.000,1869.000,7593.000,0.000,-8.000,1.000,0.000,0.000,0
2026-01-31 04:15:02,57534,-3015.000,1868.000,7584.000,4.000,-5.000,4.000,0.000,0.000,0
2026-01-31 04:15:02,57574,-3016.000,1869.000,7586.000,3.000,-7.000,4.000,0.000,0.000,0
2026-01-31 04:15:02,57614,-3014.000,1869.000,7578.000,5.000,-5.000,9.000,0.000,0.000,0
2026-01-31 04:15:02,57654,-3011.000,1870.000,7585.000,1.000,-9.000,7.000,0.000,0.000,0
2026-01-31 04:15:02,57694,-3014.000,1868.000,7587.000,6.000,-5.000,5.000,0.000,0.000,0
2026-01-31 04:15:02,57734,-3014.000,1868.000,7591.000,3.000,-3.000,3.000,0.000,0.000,0
2026-01-31 04:15:02,57774,-3017.000,1869.000,7585.000,2.000,-6.000,4.000,0.000,0.000,0
2026-01-31 04:15:02,57814,-3018.000,1869.000,7591.000,2.000,-4.000,5.000,0.000,0.000,0
2026-01-31 04:15:02,57854,-3014.000,1867.000,7591.000,2.000,-5.000,3.000,0.000,0.000,0
2026-01-31 04:15:02,57894,-3012.000,1868.000,7581.000,5.000,-2.000,2.000,0.000,0.000,0
2026-01-31 04:15:02,57934,-3014.000,1866.000,7585.000,3.000,-5.000,2.000,0.000,0.000,0
2026-01-31 04:15:02,57974,-3018.000,1870.000,7581.000,3.000,-3.000,3.000,0.000,0.000,0
2026-01-31 04:15:02,58014,-3016.000,1865.000,7578.000,1.000,-5.000,5.000,0.000,0.000,0
2026-01-31 04:15:02,58054,-3013.000,1866.000,7589.000,4.000,-6.000,7.000,0.000,0.000,0
2026-01-31 04:15:02,58094,-3019.000,1867.000,7588.000,3.000,-5.000,4.000,0.000,0.000,0
2026-01-31 04:15:02,58134,-3017.000,1867.000,7586.000,7.000,-5.000,4.000,0.000,0.000,0
2026-01-31 04:15:02,58174,-3016.000,1866.000,7586.000,4.000,-4.000,2.000,0.000,0.000,0
2026-01-31 04:15:02,58214,-3020.000,1869.000,7588.000,3.000,-6.000,7.000,0.000,0.000,0
2026-01-31 04:15:02,58254,-3012.000,1871.000,7589.000,6.000,-2.000,6.000,0.000,0.000,0
2026-01-31 04:15:02,58294,-3012.000,1868.000,7586.000,5.000,-1.000,3.000,0.000,0.000,0
2026-01-31 04:15:02,58334,-3014.000,1868.000,7588.000,2.000,-6.000,2.000,0.000,0.000,0
2026-01-31 04:15:02,58374,-3014.000,1872.000,7581.000,2.000,-2.000,2.000,0.000,0.000,0
2026-01-31 04:15:02,58414,-3016.000,1866.000,7586.000,6.000,-7.000,7.000,0.000,0.000,0
2026-01-31 04:15:03,58454,-3015.000,1868.000,7589.000,-3.000,-6.000,6.000,0.000,0.000,0
2026-01-31 04:15:03,58494,-3015.000,1871.000,7584.000,2.000,-5.000,6.000,0.000,0.000,0
2026-01-31 04:15:03,58534,-3015.000,1867.000,7580.000,0.000,-6.000,2.000,0.000,0.000,0
2026-01-31 04:15:03,58574,-3020.000,1868.000,7584.000,5.000,-4.000,2.000,0.000,0.000,0
2026-01-31 04:15:03,58614,-3017.000,1867.000,7589.000,4.000,-6.000,6.000,0.000,0.000,0
2026-01-31 04:15:03,58654,-3011.000,1861.000,7583.000,4.000,-9.000,8.000,0.000,0.000,0
2026-01-31 04:15:03,58694,-3009.000,1863.000,7587.000,3.000,-10.000,9.000,0.000,0.000,0
2026-01-31 04:15:03,58734,-3017.000,1865.000,7582.000,4.000,-6.000,7.000,0.000,0.000,0
2026-01-31 04:15:03,58774,-3016.000,1865.000,7587.000,7.000,-3.000,3.000,0.000,0.000,0
2026-01-31 04:15:03,58814,-3017.000,1866.000,7581.000,5.000,-7.000,5.000,0.000,0.000,0
2026-01-31 04:15:03,58854,-3014.000,1866.000,7584.000,2.000,-5.000,5.000,0.000,0.000,0
2026-01-31 04:15:03,58894,-3013.000,1871.000,7587.000,1.000,-9.000,8.000,0.000,0.000,0
2026-01-31 04:15:03,58934,-3015.000,1865.000,7584.000,2.000,-7.000,4.000,0.000,0.000,0
2026-01-31 04:15:03,58974,-3012.000,1868.000,7589.000,5.000,-5.000,3.000,0.000,0.000,0
2026-01-31 04:15:03,59014,-3018.000,1867.000,7588.000,4.000,-3.000,0.000,0.000,0.000,0
2026-01-31 04:15:03,59054,-3013.000,1866.000,7584.000,4.000,-10.000,7.000,0.000,0.000,0
2026-01-31 04:15:03,59094,-3017.000,1866.000,7581.000,1.000,-9.000,8.000,0.000,0.000,0
2026-01-31 04:15:03,59134,-3017.000,1869.000,7587.000,5.000,-6.000,6.000,0.000,0.000,0
2026-01-31 04:15:03,59174,-3021.000,1868.000,7586.000,4.000,-8.000,5.000,0.000,0.000,0
2026-01-31 04:15:03,59214,-3016.000,1869.000,7584.000,4.000,-5.000,4.000,0.000,0.000,0
2026-01-31 04:15:03,59254,-3022.000,1863.000,7590.000,1.000,-5.000,3.000,0.000,0.000,0
2026-01-31 04:15:03,59294,-3010.000,1870.000,7581.000,1.000,-5.000,4.000,0.000,0.000,0
2026-01-31 04:15:03,59334,-3018.000,1869.000,7587.000,3.000,-5.000,4.000,0.000,0.000,0
2026-01-31 04:15:03,59374,-3014.000,1866.000,7580.000,1.000,-6.000,4.000,0.000,0.000,0
2026-01-31 04:15:03,59415,-3019.000,1867.000,7588.000,-1.000,-5.000,4.000,0.000,0.000,0
2026-01-31 04:15:04,59454,-3011.000,1869.000,7582.000,-2.000,-5.000,3.000,0.000,0.000,0
2026-01-31 04:15:04,59497,-3018.000,1869.000,7591.000,3.000,-1.000,2.000,0.000,0.000,0
2026-01-31 04:15:04,59534,-3011.000,1871.000,7592.000,2.000,-5.000,3.000,0.000,0.000,0
2026-01-31 04:15:04,59574,-3017.000,1869.000,7587.000,4.000,-7.000,6.000,0.000,0.000,0
2026-01-31 04:15:04,59614,-3015.000,1868.000,7585.000,4.000,-4.000,3.000,0.000,0.000,0
2026-01-31 04:15:04,59654,-3011.000,1864.000,7592.000,5.000,-4.000,4.000,0.000,0.000,0
2026-01-31 04:15:04,59694,-3018.000,1865.000,7586.000,4.000,-4.000,4.000,0.000,0.000,0
2026-01-31 04:15:04,59734,-3019.000,1865.000,7589.000,0.000,-6.000,4.000,0.000,0.000,0
2026-01-31 04:15:04,59774,-3019.000,1867.000,7587.000,3.000,-9.000,6.000,0.000,0.000,0
2026-01-31 04:15:04,59814,-3017.000,1872.000,7580.000,3.000,-4.000,1.000,0.000,0.000,0
2026-01-31 04:15:04,59854,-3020.000,1868.000,7591.000,6.000,-2.000,3.000,0.000,0.000,0
2026-01-31 04:15:04,59894,-3018.000,1874.000,7586.000,3.000,-4.000,4.000,0.000,0.000,0
2026-01-31 04:15:04,59934,-3014.000,1867.000,7586.000,3.000,-6.000,6.000,0.000,0.000,0
2026-01-31 04:15:04,59974,-3017.000,1871.000,7589.000,-1.000,-4.000,3.000,0.000,0.000,0
2026-01-31 04:15:04,60014,-3011.000,1870.000,7587.000,4.000,-3.000,7.000,0.000,0.000,0
2026-01-31 04:15:04,60054,-3019.000,1873.000,7592.000,5.000,-2.000,3.000,0.000,0.000,0
2026-01-31 04:15:04,60094,-3011.000,1868.000,7587.000,6.000,-6.000,1.000,0.000,0.000,0
2026-01-31 04:15:04,60134,-3015.000,1864.000,7583.000,4.000,-4.000,3.000,0.000,0.000,0
2026-01-31 04:15:04,60174,-3012.000,1870.000,7582.000,3.000,-7.000,4.000,0.000,0.000,0
2026-01-31 04:15:04,60214,-3013.000,1868.000,7582.000,0.000,-7.000,4.000,0.000,0.000,0
2026-01-31 04:15:04,60254,-3014.000,1861.000,7581.000,2.000,-4.000,4.000,0.000,0.000,0
2026-01-31 04:15:04,60294,-3018.000,1870.000,7583.000,3.000,-3.000,1.000,0.000,0.000,0
2026-01-31 04:15:04,60334,-3019.000,1868.000,7585.000,3.000,-5.000,3.000,0.000,0.000,0
2026-01-31 04:15:04,60374,-3015.000,1867.000,7583.000,2.000,-3.000,5.000,0.000,0.000,0
2026-01-31 04:15:04,60414,-3018.000,1867.000,7582.000,0.000,-7.000,5.000,0.000,0.000,0
2026-01-31 04:15:05,60454,-3010.000,1866.000,7578.000,3.000,-6.000,4.000,0.000,0.000,0
2026-01-31 04:15:05,60494,-3015.000,1868.000,7582.000,2.000,-6.000,2.000,0.000,0.000,0
2026-01-31 04:15:05,60534,-3022.000,1871.000,7587.000,5.000,-3.000,4.000,0.000,0.000,0
2026-01-31 04:15:05,60574,-3018.000,1869.000,7586.000,3.000,-3.000,5.000,0.000,0.000,0
2026-01-31 04:15:05,60614,-3017.000,1869.000,7584.000,0.000,-8.000,5.000,0.000,0.000,0
2026-01-31 04:15:05,60654,-3016.000,1867.000,7583.000,4.000,-5.000,6.000,0.000,0.000,0
2026-01-31 04:15:05,60694,-3019.000,1868.000,7592.000,1.000,-7.000,5.000,0.000,0.000,0
2026-01-31 04:15:05,60734,-3016.000,1867.000,7580.000,2.000,-4.000,4.000,0.000,0.000,0
2026-01-31 04:15:05,60774,-3014.000,1864.000,7584.000,4.000,-5.000,3.000,0.000,0.000,0
2026-01-31 04:15:05,60814,-3014.000,1872.000,7580.000,4.000,-3.000,6.000,0.000,0.000,0
2026-01-31 04:15:05,60854,-3016.000,1865.000,7587.000,2.000,-6.000,7.000,0.000,0.000,0
2026-01-31 04:15:05,60894,-3023.000,1864.000,7577.000,1.000,-9.000,9.000,0.000,0.000,0
2026-01-31 04:15:05,60934,-3018.000,1869.000,7586.000,4.000,-4.000,6.000,0.000,0.000,0
2026-01-31 04:15:05,60974,-3021.000,1864.000,7583.000,6.000,-5.000,3.000,0.000,0.000,0
2026-01-31 04:15:05,61014,-3019.000,1867.000,7584.000,3.000,-4.000,4.000,0.000,0.000,0
2026-01-31 04:15:05,61054,-3017.000,1865.000,7592.000,2.000,-7.000,4.000,0.000,0.000,0
2026-01-31 04:15:05,61094,-3016.000,1864.000,7587.000,2.000,-7.000,5.000,0.000,0.000,0
2026-01-31 04:15:05,61134,-3018.000,1867.000,7592.000,4.000,-4.000,5.000,0.000,0.000,0
2026-01-31 04:15:05,61174,-3017.000,1869.000,7584.000,2.000,-5.000,3.000,0.000,0.000,0
2026-01-31 04:15:05,61214,-3015.000,1866.000,7585.000,5.000,-2.000,1.000,0.000,0.000,0
2026-01-31 04:15:05,61254,-3017.000,1869.000,7579.000,5.000,-5.000,4.000,0.000,0.000,0
2026-01-31 04:15:05,61294,-3015.000,1867.000,7580.000,3.000,-9.000,7.000,0.000,0.000,0
2026-01-31 04:15:05,61334,-3015.000,1864.000,7589.000,-1.000,-6.000,7.000,0.000,0.000,0
2026-01-31 04:15:05,61377,-3014.000,1864.000,7591.000,2.000,-3.000,3.000,0.000,0.000,0
2026-01-31 04:15:05,61416,-3016.000,1867.000,7584.000,3.000,-3.000,4.000,0.000,0.000,0
2026-01-31 04:15:06,61454,-3016.000,1872.000,7589.000,1.000,-2.000,2.000,0.000,0.000,0
2026-01-31 04:15:06,61497,-3019.000,1865.000,7587.000,1.000,-5.000,3.000,0.000,0.000,0
2026-01-31 04:15:06,61534,-3018.000,1866.000,7588.000,5.000,-3.000,3.000,0.000,0.000,0
2026-01-31 04:15:06,61574,-3015.000,1868.000,7581.000,5.000,-8.000,9.000,0.000,0.000,0
2026-01-31 04:15:06,61614,-3014.000,1865.000,7580.000,2.000,-5.000,5.000,0.000,0.000,0
2026-01-31 04:15:06,61654,-3016.000,1870.000,7588.000,9.000,-4.000,4.000,0.000,0.000,0
2026-01-31 04:15:06,61694,-3019.000,1868.000,7585.000,3.000,-5.000,4.000,0.000,0.000,0
2026-01-31 04:15:06,61734,-3020.000,1866.000,7589.000,6.000,-9.000,10.000,0.000,0.000,0
2026-01-31 04:15:06,61774,-3020.000,1867.000,7590.000,-1.000,-9.000,8.000,0.000,0.000,0
2026-01-31 04:15:06,61814,-3015.000,1864.000,7591.000,9.000,-7.000,6.000,0.000,0.000,0
2026-01-31 04:15:06,61854,-3016.000,1873.000,7584.000,2.000,-8.000,6.000,0.000,0.000,0
2026-01-31 04:15:06,61894,-3016.000,1866.000,7582.000,6.000,-1.000,1.000,0.000,0.000,0
2026-01-31 04:15:06,61934,-3013.000,1862.000,7589.000,4.000,-6.000,3.000,0.000,0.000,0
2026-01-31 04:15:06,61974,-3018.000,1870.000,7582.000,1.000,-5.000,5.000,0.000,0.000,0
2026-01-31 04:15:06,62014,-3016.000,1872.000,7591.000,2.000,-6.000,9.000,0.000,0.000,0
2026-01-31 04:15:06,62054,-3021.000,1869.000,7583.000,1.000,-6.000,5.000,0.000,0.000,0
2026-01-31 04:15:06,62094,-3018.000,1866.000,7588.000,5.000,-2.000,2.000,0.000,0.000,0
2026-01-31 04:15:06,62134,-3012.000,1870.000,7584.000,2.000,-7.000,1.000,0.000,0.000,0
2026-01-31 04:15:06,62174,-3020.000,1871.000,7588.000,3.000,-4.000,3.000,0.000,0.000,0
2026-01-31 04:15:06,62214,-3018.000,1866.000,7585.000,2.000,-7.000,3.000,0.000,0.000,0
2026-01-31 04:15:06,62254,-3013.000,1870.000,7595.000,2.000,-5.000,5.000,0.000,0.000,0
2026-01-31 04:15:06,62294,-3019.000,1870.000,7595.000,5.000,-4.000,2.000,0.000,0.000,0
2026-01-31 04:15:06,62334,-3013.000,1867.000,7590.000,5.000,-4.000,1.000,0.000,0.000,0
2026-01-31 04:15:06,62374,-3016.000,1872.000,7582.000,1.000,-2.000,3.000,0.000,0.000,0
2026-01-31 04:15:06,62414,-3016.000,1868.000,7587.000,2.000,-4.000,2.000,0.000,0.000,0
2026-01-31 04:15:07,62454,-3014.000,1865.000,7583.000,2.000,-4.000,6.000,0.000,0.000,0
2026-01-31 04:15:07,62494,-3015.000,1867.000,7588.000,3.000,-7.000,3.000,0.000,0.000,0
2026-01-31 04:15:07,62534,-3023.000,1871.000,7586.000,2.000,-2.000,2.000,0.000,0.000,0
2026-01-31 04:15:07,62574,-3016.000,1871.000,7585.000,4.000,-5.000,2.000,0.000,0.000,0
2026-01-31 04:15:07,62614,-3019.000,1869.000,7581.000,3.000,-8.000,2.000,0.000,0.000,0
2026-01-31 04:15:07,62654,-3018.000,1872.000,7584.000,3.000,-9.000,8.000,0.000,0.000,0
2026-01-31 04:15:07,62694,-3015.000,1870.000,7593.000,2.000,-8.000,6.000,0.000,0.000,0
2026-01-31 04:15:07,62734,-3015.000,1867.000,7580.000,1.000,-5.000,6.000,0.000,0.000,0
2026-01-31 04:15:07,62774,-3016.000,1865.000,7589.000,1.000,-5.000,2.000,0.000,0.000,0
2026-01-31 04:15:07,62814,-3018.000,1871.000,7587.000,7.000,-5.000,3.000,0.000,0.000,0
2026-01-31 04:15:07,62854,-3017.000,1867.000,7591.000,2.000,-5.000,1.000,0.000,0.000,0
2026-01-31 04:15:07,62894,-3018.000,1872.000,7592.000,3.000,-8.000,5.000,0.000,0.000,0
2026-01-31 04:15:07,62934,-3021.000,1868.000,7577.000,1.000,-2.000,4.000,0.000,0.000,0
2026-01-31 04:15:07,62974,-3017.000,1871.000,7587.000,4.000,-4.000,2.000,0.000,0.000,0
2026-01-31 04:15:07,63014,-3013.000,1869.000,7587.000,3.000,-2.000,3.000,0.000,0.000,0
2026-01-31 04:15:07,63054,-3019.000,1870.000,7584.000,6.000,-8.000,6.000,0.000,0.000,0
2026-01-31 04:15:07,63094,-3014.000,1864.000,7583.000,6.000,-8.000,4.000,0.000,0.000,0
2026-01-31 04:15:07,63134,-3021.000,1866.000,7585.000,2.000,-8.000,9.000,0.000,0.000,0
2026-01-31 04:15:07,63174,-3021.000,1873.000,7584.000,3.000,-8.000,8.000,0.000,0.000,0
2026-01-31 04:15:07,63214,-3014.000,1867.000,7583.000,5.000,-6.000,7.000,0.000,0.000,0
2026-01-31 04:15:07,63254,-3014.000,1868.000,7589.000,6.000,-8.000,4.000,0.000,0.000,0
2026-01-31 04:15:07,63294,-3020.000,1870.000,7588.000,4.000,-6.000,6.000,0.000,0.000,0
2026-01-31 04:15:07,63334,-3016.000,1869.000,7588.000,4.000,-8.000,9.000,0.000,0.000,0
2026-01-31 04:15:07,63379,-3015.000,1869.000,7582.000,4.000,-2.000,4.000,0.000,0.000,0
2026-01-31 04:15:07,63414,-3016.000,1867.000,7586.000,4.000,-4.000,8.000,0.000,0.000,0
2026-01-31 04:15:08,63454,-3009.000,1874.000,7584.000,1.000,-6.000,3.000,0.000,0.000,0
2026-01-31 04:15:08,63494,-3017.000,1867.000,7582.000,7.000,-4.000,7.000,0.000,0.000,0
2026-01-31 04:15:08,63534,-3017.000,1870.000,7590.000,4.000,-5.000,4.000,0.000,0.000,0
2026-01-31 04:15:08,63574,-3007.000,1868.000,7587.000,4.000,-11.000,9.000,0.000,0.000,0
2026-01-31 04:15:08,63614,-3017.000,1866.000,7585.000,0.000,-6.000,10.000,0.000,0.000,0
2026-01-31 04:15:08,63654,-3015.000,1867.000,7592.000,5.000,-6.000,8.000,0.000,0.000,0
2026-01-31 04:15:08,63694,-3019.000,1868.000,7585.000,5.000,-7.000,5.000,0.000,0.000,0
2026-01-31 04:15:08,63734,-3014.000,1868.000,7591.000,5.000,-6.000,4.000,0.000,0.000,0
2026-01-31 04:15:08,63774,-3015.000,1864.000,7587.000,8.000,-7.000,7.000,0.000,0.000,0
2026-01-31 04:15:08,63814,-3020.000,1865.000,7586.000,3.000,-6.000,6.000,0.000,0.000,0
2026-01-31 04:15:08,63854,-3020.000,1866.000,7587.000,1.000,-6.000,8.000,0.000,0.000,0
2026-01-31 04:15:08,63894,-3014.000,1872.000,7585.000,0.000,-4.000,4.000,0.000,0.000,0
2026-01-31 04:15:08,63934,-3015.000,1869.000,7585.000,4.000,-2.000,1.000,0.000,0.000,0
2026-01-31 04:15:08,63974,-3018.000,1869.000,7586.000,5.000,-3.000,2.000,0.000,0.000,0
2026-01-31 04:15:08,64014,-3019.000,1869.000,7585.000,1.000,-5.000,4.000,0.000,0.000,0
2026-01-31 04:15:08,64054,-3024.000,1871.000,7584.000,4.000,-2.000,5.000,0.000,0.000,0
2026-01-31 04:15:08,64094,-3023.000,1873.000,7592.000,2.000,-5.000,3.000,0.000,0.000,0
2026-01-31 04:15:08,64134,-3014.000,1868.000,7582.000,-1.000,-6.000,5.000,0.000,0.000,0
2026-01-31 04:15:08,64174,-3016.000,1870.000,7584.000,5.000,-4.000,3.000,0.000,0.000,0
2026-01-31 04:15:08,64214,-3021.000,1864.000,7591.000,7.000,-6.000,5.000,0.000,0.000,0
2026-01-31 04:15:08,64254,-3016.000,1865.000,7581.000,3.000,-11.000,11.000,0.000,0.000,0
2026-01-31 04:15:08,64294,-3014.000,1868.000,7583.000,5.000,-7.000,9.000,0.000,0.000,0
2026-01-31 04:15:08,64334,-3019.000,1867.000,7585.000,0.000,-12.000,9.000,0.000,0.000,0
2026-01-31 04:15:08,64374,-3019.000,1866.000,7586.000,6.000,-5.000,5.000,0.000,0.000,0
2026-01-31 04:15:08,64414,-3019.000,1868.000,7587.000,1.000,-8.000,5.000,0.000,0.000,0
2026-01-31 04:15:09,64454,-3018.000,1867.000,7588.000,7.000,-5.000,6.000,0.000,0.000,0
2026-01-31 04:15:09,64494,-3014.000,1867.000,7588.000,1.000,-7.000,7.000,0.000,0.000,0
2026-01-31 04:15:09,64534,-3010.000,1869.000,7585.000,3.000,-4.000,6.000,0.000,0.000,0
2026-01-31 04:15:09,64574,-3014.000,1869.000,7588.000,3.000,-5.000,5.000,0.000,0.000,0
2026-01-31 04:15:09,64614,-3022.000,1872.000,7587.000,5.000,-6.000,3.000,0.000,0.000,0
2026-01-31 04:15:09,64654,-3017.000,1871.000,7591.000,4.000,-2.000,1.000,0.000,0.000,0
2026-01-31 04:15:09,64694,-3011.000,1865.000,7591.000,4.000,-7.000,4.000,0.000,0.000,0
2026-01-31 04:15:09,64734,-3018.000,1869.000,7591.000,2.000,-3.000,7.000,0.000,0.000,0
2026-01-31 04:15:09,64774,-3014.000,1866.000,7594.000,2.000,-6.000,3.000,0.000,0.000,0
2026-01-31 04:15:09,64814,-3023.000,1866.000,7587.000,5.000,-7.000,5.000,0.000,0.000,0
2026-01-31 04:15:09,64854,-3021.000,1865.000,7587.000,2.000,-4.000,2.000,0.000,0.000,0
2026-01-31 04:15:09,64894,-3011.000,1866.000,7592.000,4.000,-6.000,4.000,0.000,0.000,0
2026-01-31 04:15:09,64934,-3012.000,1871.000,7587.000,5.000,-7.000,7.000,0.000,0.000,0
2026-01-31 04:15:09,64974,-3017.000,1871.000,7589.000,2.000,-6.000,8.000,0.000,0.000,0
2026-01-31 04:15:09,65014,-3021.000,1868.000,7592.000,2.000,-7.000,7.000,0.000,0.000,0
2026-01-31 04:15:09,65054,-3019.000,1874.000,7590.000,2.000,-6.000,5.000,0.000,0.000,0
2026-01-31 04:15:09,65094,-3014.000,1866.000,7589.000,7.000,-4.000,1.000,0.000,0.000,0
2026-01-31 04:15:09,65134,-3021.000,1864.000,7584.000,4.000,-5.000,4.000,0.000,0.000,0
2026-01-31 04:15:09,65174,-3015.000,1867.000,7591.000,0.000,-6.000,7.000,0.000,0.000,0
2026-01-31 04:15:09,65214,-3020.000,1870.000,7590.000,2.000,-3.000,5.000,0.000,0.000,0
2026-01-31 04:15:09,65254,-3017.000,1871.000,7595.000,3.000,-5.000,5.000,0.000,0.000,0
2026-01-31 04:15:09,65294,-3016.000,1870.000,7593.000,6.000,-3.000,2.000,0.000,0.000,0
2026-01-31 04:15:09,65334,-3018.000,1869.000,7587.000,5.000,-3.000,3.000,0.000,0.000,0
2026-01-31 04:15:09,65377,-3015.000,1873.000,7590.000,3.000,-4.000,3.000,0.000,0.000,0
2026-01-31 04:15:09,65416,-3014.000,1871.000,7586.000,2.000,-3.000,4.000,0.000,0.000,0
2026-01-31 04:15:10,65457,-3020.000,1863.000,7592.000,4.000,-4.000,3.000,0.000,0.000,0
2026-01-31 04:15:10,65494,-3020.000,1868.000,7586.000,1.000,-6.000,5.000,0.000,0.000,0
2026-01-31 04:15:10,65538,-3012.000,1868.000,7588.000,2.000,-5.000,2.000,0.000,0.000,0
2026-01-31 04:15:10,65574,-3014.000,1866.000,7587.000,1.000,-4.000,2.000,0.000,0.000,0
2026-01-31 04:15:10,65614,-3020.000,1867.000,7585.000,3.000,-8.000,5.000,0.000,0.000,0
2026-01-31 04:15:10,65654,-3013.000,1870.000,7587.000,1.000,-9.000,7.000,0.000,0.000,0
2026-01-31 04:15:10,65694,-3014.000,1869.000,7588.000,3.000,-6.000,6.000,0.000,0.000,0
2026-01-31 04:15:10,65734,-3019.000,1870.000,7589.000,2.000,-5.000,4.000,0.000,0.000,0
2026-01-31 04:15:10,65774,-3019.000,1870.000,7587.000,3.000,-5.000,3.000,0.000,0.000,0
2026-01-31 04:15:10,65814,-3015.000,1871.000,7594.000,2.000,-5.000,2.000,0.000,0.000,0
2026-01-31 04:15:10,65854,-3019.000,1873.000,7589.000,3.000,-6.000,5.000,0.000,0.000,0
2026-01-31 04:15:10,65894,-3018.000,1869.000,7584.000,4.000,-1.000,5.000,0.000,0.000,0
2026-01-31 04:15:10,65934,-3013.000,1872.000,7587.000,1.000,-8.000,3.000,0.000,0.000,0
2026-01-31 04:15:10,65974,-3015.000,1868.000,7582.000,1.000,-4.000,4.000,0.000,0.000,0
2026-01-31 04:15:10,66014,-3018.000,1873.000,7590.000,4.000,-8.000,4.000,0.000,0.000,0
2026-01-31 04:15:10,66054,-3013.000,1869.000,7599.000,5.000,-9.000,8.000,0.000,0.000,0
2026-01-31 04:15:10,66094,-3011.000,1867.000,7595.000,1.000,-7.000,8.000,0.000,0.000,0
2026-01-31 04:15:10,66134,-3011.000,1867.000,7583.000,5.000,-7.000,8.000,0.000,0.000,0
2026-01-31 04:15:10,66174,-3018.000,1866.000,7591.000,3.000,-6.000,3.000,0.000,0.000,0
2026-01-31 04:15:10,66214,-3019.000,1868.000,7590.000,3.000,-6.000,1.000,0.000,0.000,0
2026-01-31 04:15:10,66254,-3018.000,1869.000,7589.000,3.000,-5.000,5.000,0.000,0.000,0
2026-01-31 04:15:10,66294,-3013.000,1875.000,7588.000,0.000,-8.000,7.000,0.000,0.000,0
2026-01-31 04:15:10,66334,-3022.000,1874.000,7586.000,3.000,-3.000,8.000,0.000,0.000,0
2026-01-31 04:15:10,66374,-3013.000,1870.000,7588.000,-1.000,-5.000,3.000,0.000,0.000,0
2026-01-31 04:15:10,66414,-3012.000,1867.000,7587.000,3.000,-6.000,1.000,0.000,0.000,0
2026-01-31 04:15:11,66454,-3015.000,1871.000,7588.000,2.000,-5.000,4.000,0.000,0.000,0
2026-01-31 04:15:11,66494,-3022.000,1873.000,7586.000,2.000,-5.000,4.000,0.000,0.000,0
2026-01-31 04:15:11,66534,-3016.000,1871.000,7586.000,3.000,-5.000,5.000,0.000,0.000,0
2026-01-31 04:15:11,66574,-3018.000,1869.000,7581.000,0.000,-7.000,4.000,0.000,0.000,0
2026-01-31 04:15:11,66614,-3013.000,1868.000,7585.000,5.000,-6.000,5.000,0.000,0.000,0
2026-01-31 04:15:11,66654,-3018.000,1865.000,7588.000,2.000,-5.000,5.000,0.000,0.000,0
2026-01-31 04:15:11,66694,-3015.000,1870.000,7588.000,5.000,-6.000,6.000,0.000,0.000,0
2026-01-31 04:15:11,66734,-3018.000,1870.000,7596.000,3.000,-4.000,4.000,0.000,0.000,0
2026-01-31 04:15:11,66774,-3016.000,1866.000,7594.000,1.000,-5.000,5.000,0.000,0.000,0
2026-01-31 04:15:11,66814,-3021.000,1870.000,7590.000,4.000,-5.000,8.000,0.000,0.000,0
2026-01-31 04:15:11,66854,-3017.000,1871.000,7589.000,6.000,-5.000,6.000,0.000,0.000,0
2026-01-31 04:15:11,66894,-3015.000,1869.000,7590.000,5.000,-9.000,5.000,0.000,0.000,0
2026-01-31 04:15:11,66934,-3017.000,1872.000,7581.000,5.000,-7.000,8.000,0.000,0.000,0
2026-01-31 04:15:11,66974,-3019.000,1867.000,7595.000,3.000,-7.000,5.000,0.000,0.000,0
2026-01-31 04:15:11,67014,-3016.000,1869.000,7586.000,4.000,0.000,3.000,0.000,0.000,0
2026-01-31 04:15:11,67054,-3013.000,1870.000,7592.000,3.000,-7.000,4.000,0.000,0.000,0
2026-01-31 04:15:11,67094,-3016.000,1874.000,7585.000,5.000,-2.000,0.000,0.000,0.000,0
2026-01-31 04:15:11,67134,-3013.000,1868.000,7588.000,2.000,-4.000,4.000,0.000,0.000,0
2026-01-31 04:15:11,67174,-3015.000,1869.000,7588.000,2.000,-7.000,4.000,0.000,0.000,0
2026-01-31 04:15:11,67214,-3011.000,1870.000,7588.000,2.000,-7.000,6.000,0.000,0.000,0
2026-01-31 04:15:11,67254,-3017.000,1869.000,7582.000,2.000,-5.000,3.000,0.000,0.000,0
2026-01-31 04:15:11,67294,-3018.000,1871.000,7586.000,4.000,-3.000,1.000,0.000,0.000,0
2026-01-31 04:15:11,67334,-3010.000,1868.000,7593.000,3.000,-3.000,1.000,0.000,0.000,0
2026-01-31 04:15:11,67377,-3018.000,1873.000,7586.000,1.000,-4.000,3.000,0.000,0.000,0
2026-01-31 04:15:11,67416,-3014.000,1871.000,7589.000,3.000,-6.000,3.000,0.000,0.000,0
2026-01-31 04:15:12,67454,-3012.000,1870.000,7588.000,2.000,-4.000,1.000,0.000,0.000,0
2026-01-31 04:15:12,67496,-3018.000,1869.000,7591.000,1.000,-5.000,2.000,0.000,0.000,0
2026-01-31 04:15:12,67534,-3015.000,1872.000,7590.000,5.000,-4.000,3.000,0.000,0.000,0
2026-01-31 04:15:12,67574,-3019.000,1869.000,7589.000,1.000,-6.000,5.000,0.000,0.000,0
2026-01-31 04:15:12,67614,-3017.000,1873.000,7587.000,3.000,-4.000,6.000,0.000,0.000,0
2026-01-31 04:15:12,67654,-3018.000,1870.000,7587.000,0.000,-8.000,4.000,0.000,0.000,0
2026-01-31 04:15:12,67694,-3018.000,1875.000,7582.000,5.000,-6.000,4.000,0.000,0.000,0
2026-01-31 04:15:12,67734,-3018.000,1871.000,7588.000,4.000,-4.000,2.000,0.000,0.000,0
2026-01-31 04:15:12,67774,-3021.000,1869.000,7594.000,3.000,-3.000,6.000,0.000,0.000,0
2026-01-31 04:15:12,67814,-3019.000,1871.000,7584.000,1.000,-8.000,7.000,0.000,0.000,0
2026-01-31 04:15:12,67854,-3011.000,1869.000,7593.000,5.000,-7.000,8.000,0.000,0.000,0
2026-01-31 04:15:12,67894,-3024.000,1868.000,7591.000,6.000,-5.000,6.000,0.000,0.000,0
2026-01-31 04:15:12,67934,-3017.000,1875.000,7583.000,5.000,-7.000,2.000,0.000,0.000,0
2026-01-31 04:15:12,67974,-3012.000,1867.000,7586.000,6.000,-4.000,6.000,0.000,0.000,0
2026-01-31 04:15:12,68014,-3019.000,1870.000,7588.000,2.000,-8.000,6.000,0.000,0.000,0
2026-01-31 04:15:12,68054,-3018.000,1871.000,7590.000,1.000,-6.000,4.000,0.000,0.000,0
2026-01-31 04:15:12,68094,-3011.000,1874.000,7592.000,3.000,-6.000,3.000,0.000,0.000,0
2026-01-31 04:15:12,68134,-3020.000,1871.000,7591.000,6.000,-4.000,-1.000,0.000,0.000,0
2026-01-31 04:15:12,68174,-3018.000,1868.000,7591.000,2.000,-3.000,1.000,0.000,0.000,0
2026-01-31 04:15:12,68214,-3017.000,1875.000,7587.000,1.000,-8.000,7.000,0.000,0.000,0
2026-01-31 04:15:12,68254,-3016.000,1876.000,7590.000,1.000,-5.000,6.000,0.000,0.000,0
2026-01-31 04:15:12,68294,-3017.000,1866.000,7591.000,1.000,-6.000,3.000,0.000,0.000,0
2026-01-31 04:15:12,68334,-3017.000,1871.000,7584.000,4.000,-2.000,1.000,0.000,0.000,0
2026-01-31 04:15:12,68374,-3021.000,1870.000,7584.000,3.000,-4.000,1.000,0.000,0.000,0
2026-01-31 04:15:12,68414,-3019.000,1869.000,7588.000,4.000,-5.000,5.000,0.000,0.000,0
2026-01-31 04:15:13,68454,-3013.000,1874.000,7582.000,-1.000,-7.000,6.000,0.000,0.000,0
2026-01-31 04:15:13,68494,-3011.000,1868.000,7589.000,3.000,-5.000,4.000,0.000,0.000,0
2026-01-31 04:15:13,68534,-3015.000,1867.000,7586.000,3.000,-6.000,3.000,0.000,0.000,0
2026-01-31 04:15:13,68574,-3014.000,1869.000,7590.000,5.000,-5.000,3.000,0.000,0.000,0
2026-01-31 04:15:13,68614,-3017.000,1872.000,7597.000,3.000,-4.000,4.000,0.000,0.000,0
2026-01-31 04:15:13,68654,-3022.000,1871.000,7589.000,3.000,-4.000,4.000,0.000,0.000,0
2026-01-31 04:15:13,68694,-3024.000,1869.000,7590.000,1.000,-5.000,4.000,0.000,0.000,0
2026-01-31 04:15:13,68734,-3020.000,1873.000,7591.000,4.000,-5.000,4.000,0.000,0.000,0
2026-01-31 04:15:13,68774,-3015.000,1870.000,7592.000,5.000,-6.000,3.000,0.000,0.000,0
2026-01-31 04:15:13,68814,-3016.000,1865.000,7583.000,5.000,-5.000,9.000,0.000,0.000,0
2026-01-31 04:15:13,68854,-3012.000,1872.000,7593.000,4.000,-6.000,9.000,0.000,0.000,0
2026-01-31 04:15:13,68894,-3013.000,1866.000,7586.000,2.000,-8.000,7.000,0.000,0.000,0
2026-01-31 04:15:13,68934,-3019.000,1870.000,7593.000,5.000,-3.000,4.000,0.000,0.000,0
2026-01-31 04:15:13,68974,-3014.000,1870.000,7582.000,6.000,-5.000,4.000,0.000,0.000,0
2026-01-31 04:15:13,69014,-3015.000,1869.000,7588.000,7.000,-4.000,6.000,0.000,0.000,0
2026-01-31 04:15:13,69054,-3015.000,1873.000,7586.000,2.000,-7.000,8.000,0.000,0.000,0
2026-01-31 04:15:13,69094,-3019.000,1873.000,7592.000,4.000,-5.000,8.000,0.000,0.000,0
2026-01-31 04:15:13,69134,-3020.000,1867.000,7591.000,2.000,-8.000,7.000,0.000,0.000,0
2026-01-31 04:15:13,69174,-3023.000,1874.000,7587.000,5.000,-5.000,6.000,0.000,0.000,0
2026-01-31 04:15:13,69214,-3018.000,1868.000,7587.000,5.000,-4.000,7.000,0.000,0.000,0
2026-01-31 04:15:13,69254,-3018.000,1873.000,7583.000,6.000,-8.000,9.000,0.000,0.000,0
2026-01-31 04:15:13,69294,-3017.000,1869.000,7591.000,2.000,-5.000,6.000,0.000,0.000,0
2026-01-31 04:15:13,69334,-3016.000,1869.000,7594.000,7.000,-6.000,5.000,0.000,0.000,0
2026-01-31 04:15:13,69377,-3015.000,1875.000,7590.000,4.000,-4.000,4.000,0.000,0.000,0
2026-01-31 04:15:13,69417,-3015.000,1868.000,7583.000,5.000,-7.000,5.000,0.000,0.000,0
2026-01-31 04:15:14,69454,-3016.000,1872.000,7592.000,4.000,-6.000,5.000,0.000,0.000,0
2026-01-31 04:15:14,69494,-3013.000,1867.000,7586.000,5.000,-8.000,7.000,0.000,0.000,0
2026-01-31 04:15:14,69534,-3021.000,1872.000,7589.000,2.000,-6.000,4.000,0.000,0.000,0
2026-01-31 04:15:14,69574,-3020.000,1874.000,7583.000,5.000,-5.000,3.000,0.000,0.000,0
2026-01-31 04:15:14,69614,-3020.000,1867.000,7586.000,6.000,-8.000,7.000,0.000,0.000,0
2026-01-31 04:15:14,69654,-3016.000,1870.000,7588.000,5.000,-6.000,7.000,0.000,0.000,0
2026-01-31 04:15:14,69694,-3017.000,1872.000,7593.000,5.000,-9.000,9.000,0.000,0.000,0
2026-01-31 04:15:14,69734,-3014.000,1875.000,7590.000,7.000,-7.000,4.000,0.000,0.000,0
2026-01-31 04:15:14,69774,-3018.000,1869.000,7583.000,6.000,-6.000,4.000,0.000,0.000,0
2026-01-31 04:15:14,69814,-3018.000,1871.000,7592.000,0.000,-10.000,4.000,0.000,0.000,0
2026-01-31 04:15:14,69854,-3014.000,1870.000,7590.000,2.000,-4.000,5.000,0.000,0.000,0
2026-01-31 04:15:14,69894,-3019.000,1867.000,7587.000,0.000,-5.000,5.000,0.000,0.000,0
2026-01-31 04:15:14,69934,-3014.000,1870.000,7588.000,4.000,-4.000,3.000,0.000,0.000,0
2026-01-31 04:15:14,69974,-3020.000,1870.000,7587.000,4.000,-1.000,2.000,0.000,0.000,0
2026-01-31 04:15:14,70014,-3021.000,1873.000,7590.000,4.000,-5.000,0.000,0.000,0.000,0
2026-01-31 04:15:14,70054,-3015.000,1869.000,7587.000,0.000,-6.000,6.000,0.000,0.000,0
2026-01-31 04:15:14,70094,-3015.000,1873.000,7582.000,1.000,-8.000,9.000,0.000,0.000,0
2026-01-31 04:15:14,70134,-3015.000,1868.000,7589.000,5.000,-5.000,6.000,0.000,0.000,0
2026-01-31 04:15:14,70174,-3017.000,1874.000,7594.000,7.000,-6.000,4.000,0.000,0.000,0
2026-01-31 04:15:14,70214,-3013.000,1871.000,7586.000,3.000,-6.000,4.000,0.000,0.000,0
2026-01-31 04:15:14,70254,-3017.000,1872.000,7588.000,3.000,-7.000,5.000,0.000,0.000,0
2026-01-31 04:15:14,70294,-3016.000,1869.000,7586.000,1.000,-6.000,3.000,0.000,0.000,0
2026-01-31 04:15:14,70334,-3017.000,1870.000,7592.000,5.000,-6.000,5.000,0.000,0.000,0
2026-01-31 04:15:14,70374,-3013.000,1867.000,7589.000,6.000,-5.000,5.000,0.000,0.000,0
2026-01-31 04:15:14,70414,-3014.000,1871.000,7589.000,5.000,-7.000,4.000,0.000,0.000,0
2026-01-31 04:15:15,70454,-3011.000,1870.000,7597.000,2.000,-10.000,8.000,0.000,0.000,0
2026-01-31 04:15:15,70494,-3016.000,1871.000,7581.000,3.000,-8.000,7.000,0.000,0.000,0
2026-01-31 04:15:15,70534,-3018.000,1871.000,7587.000,4.000,-9.000,4.000,0.000,0.000,0
2026-01-31 04:15:15,70574,-3018.000,1866.000,7585.000,5.000,-6.000,5.000,0.000,0.000,0
2026-01-31 04:15:15,70614,-3017.000,1869.000,7589.000,2.000,-4.000,7.000,0.000,0.000,0
2026-01-31 04:15:15,70654,-3017.000,1870.000,7585.000,6.000,-5.000,6.000,0.000,0.000,0
2026-01-31 04:15:15,70694,-3018.000,1871.000,7585.000,5.000,-6.000,6.000,0.000,0.000,0
2026-01-31 04:15:15,70734,-3014.000,1864.000,7588.000,5.000,-7.000,7.000,0.000,0.000,0
2026-01-31 04:15:15,70774,-3017.000,1869.000,7583.000,5.000,-7.000,6.000,0.000,0.000,0
2026-01-31 04:15:15,70814,-3018.000,1869.000,7590.000,4.000,-4.000,7.000,0.000,0.000,0
2026-01-31 04:15:15,70854,-3023.000,1865.000,7587.000,1.000,-5.000,7.000,0.000,0.000,0
2026-01-31 04:15:15,70894,-3018.000,1870.000,7590.000,2.000,-3.000,2.000,0.000,0.000,0
2026-01-31 04:15:15,70934,-3014.000,1867.000,7591.000,6.000,-2.000,3.000,0.000,0.000,0
2026-01-31 04:15:15,70974,-3017.000,1866.000,7577.000,0.000,-4.000,0.000,0.000,0.000,0
2026-01-31 04:15:15,71014,-3015.000,1872.000,7586.000,4.000,-6.000,6.000,0.000,0.000,0
2026-01-31 04:15:15,71054,-3018.000,1875.000,7588.000,1.000,-3.000,2.000,0.000,0.000,0
2026-01-31 04:15:15,71094,-3015.000,1870.000,7591.000,3.000,-5.000,4.000,0.000,0.000,0
2026-01-31 04:15:15,71134,-3018.000,1868.000,7588.000,2.000,-6.000,4.000,0.000,0.000,0
2026-01-31 04:15:15,71174,-3011.000,1864.000,7584.000,4.000,-4.000,1.000,0.000,0.000,0
2026-01-31 04:15:15,71214,-3014.000,1874.000,7595.000,0.000,-8.000,4.000,0.000,0.000,0
2026-01-31 04:15:15,71254,-3015.000,1869.000,7593.000,0.000,-4.000,6.000,0.000,0.000,0
2026-01-31 04:15:15,71294,-3020.000,1869.000,7588.000,0.000,-4.000,5.000,0.000,0.000,0
2026-01-31 04:15:15,71334,-3021.000,1875.000,7588.000,4.000,-6.000,3.000,0.000,0.000,0
2026-01-31 04:15:15,71377,-3023.000,1867.000,7590.000,2.000,-1.000,1.000,0.000,0.000,0
2026-01-31 04:15:15,71416,-3018.000,1870.000,7588.000,2.000,-6.000,3.000,0.000,0.000,0
2026-01-31 04:15:16,71454,-3019.000,1870.000,7590.000,1.000,-6.000,4.000,0.000,0.000,0
2026-01-31 04:15:16,71497,-3019.000,1873.000,7592.000,3.000,-2.000,4.000,0.000,0.000,0
2026-01-31 04:15:16,71534,-3017.000,1872.000,7584.000,0.000,-5.000,3.000,0.000,0.000,0
2026-01-31 04:15:16,71574,-3019.000,1872.000,7593.000,7.000,-5.000,6.000,0.000,0.000,0
2026-01-31 04:15:16,71614,-3018.000,1871.000,7585.000,1.000,-10.000,8.000,0.000,0.000,0
2026-01-31 04:15:16,71654,-3018.000,1871.000,7585.000,4.000,-8.000,11.000,0.000,0.000,0
2026-01-31 04:15:16,71694,-3022.000,1869.000,7591.000,5.000,-6.000,5.000,0.000,0.000,0
2026-01-31 04:15:16,71734,-3007.000,1871.000,7586.000,8.000,-4.000,6.000,0.000,0.000,0
2026-01-31 04:15:16,71774,-3017.000,1868.000,7587.000,6.000,-5.000,3.000,0.000,0.000,0
2026-01-31 04:15:16,71814,-3020.000,1865.000,7586.000,4.000,-8.000,7.000,0.000,0.000,0
2026-01-31 04:15:16,71854,-3017.000,1869.000,7593.000,3.000,-8.000,8.000,0.000,0.000,0
2026-01-31 04:15:16,71894,-3022.000,1874.000,7594.000,6.000,-7.000,6.000,0.000,0.000,0
2026-01-31 04:15:16,71934,-3015.000,1868.000,7584.000,5.000,-7.000,5.000,0.000,0.000,0
2026-01-31 04:15:16,71974,-3017.000,1872.000,7587.000,5.000,-9.000,10.000,0.000,0.000,0
2026-01-31 04:15:16,72014,-3019.000,1872.000,7586.000,0.000,-7.000,7.000,0.000,0.000,0
2026-01-31 04:15:16,72054,-3015.000,1870.000,7592.000,6.000,-8.000,8.000,0.000,0.000,0
2026-01-31 04:15:16,72094,-3021.000,1870.000,7585.000,5.000,-6.000,7.000,0.000,0.000,0
2026-01-31 04:15:16,72134,-3019.000,1870.000,7585.000,2.000,-4.000,2.000,0.000,0.000,0
2026-01-31 04:15:16,72174,-3019.000,1868.000,7591.000,2.000,-7.000,6.000,0.000,0.000,0
2026-01-31 04:15:16,72214,-3011.000,1875.000,7592.000,3.000,-8.000,5.000,0.000,0.000,0
2026-01-31 04:15:16,72254,-3016.000,1867.000,7585.000,4.000,-8.000,12.000,0.000,0.000,0
2026-01-31 04:15:16,72294,-3016.000,1868.000,7595.000,8.000,-6.000,6.000,0.000,0.000,0
2026-01-31 04:15:16,72334,-3014.000,1874.000,7591.000,5.000,-7.000,5.000,0.000,0.000,0
2026-01-31 04:15:16,72374,-3014.000,1867.000,7589.000,4.000,-9.000,8.000,0.000,0.000,0
2026-01-31 04:15:16,72414,-3016.000,1874.000,7587.000,3.000,-6.000,7.000,0.000,0.000,0
2026-01-31 04:15:17,72454,-3017.000,1871.000,7592.000,4.000,-7.000,8.000,0.000,0.000,0
2026-01-31 04:15:17,72494,-3014.000,1868.000,7587.000,3.000,-6.000,3.000,0.000,0.000,0
2026-01-31 04:15:17,72534,-3020.000,1870.000,7587.000,5.000,-7.000,6.000,0.000,0.000,0
2026-01-31 04:15:17,72574,-3019.000,1864.000,7594.000,3.000,-9.000,9.000,0.000,0.000,0
2026-01-31 04:15:17,72614,-3019.000,1872.000,7591.000,3.000,-5.000,7.000,0.000,0.000,0
2026-01-31 04:15:17,72654,-3015.000,1867.000,7584.000,7.000,-6.000,8.000,0.000,0.000,0
2026-01-31 04:15:17,72694,-3018.000,1874.000,7584.000,5.000,-6.000,5.000,0.000,0.000,0
2026-01-31 04:15:17,72734,-3017.000,1869.000,7584.000,3.000,-9.000,6.000,0.000,0.000,0
2026-01-31 04:15:17,72774,-3015.000,1869.000,7586.000,-1.000,-6.000,4.000,0.000,0.000,0
2026-01-31 04:15:17,72814,-3020.000,1869.000,7584.000,2.000,-4.000,4.000,0.000,0.000,0
2026-01-31 04:15:17,72854,-3019.000,1867.000,7587.000,2.000,-3.000,2.000,0.000,0.000,0
2026-01-31 04:15:17,72894,-3018.000,1871.000,7587.000,4.000,-2.000,2.000,0.000,0.000,0
2026-01-31 04:15:17,72934,-3020.000,1867.000,7590.000,3.000,-7.000,6.000,0.000,0.000,0
2026-01-31 04:15:17,72974,-3014.000,1866.000,7587.000,0.000,-6.000,4.000,0.000,0.000,0
2026-01-31 04:15:17,73014,-3019.000,1873.000,7590.000,4.000,-7.000,5.000,0.000,0.000,0
2026-01-31 04:15:17,73054,-3015.000,1870.000,7582.000,3.000,-5.000,4.000,0.000,0.000,0
2026-01-31 04:15:17,73094,-3018.000,1868.000,7591.000,1.000,-5.000,3.000,0.000,0.000,0
2026-01-31 04:15:17,73134,-3017.000,1869.000,7590.000,1.000,-7.000,4.000,0.000,0.000,0
2026-01-31 04:15:17,73174,-3018.000,1867.000,7588.000,3.000,-5.000,5.000,0.000,0.000,0
2026-01-31 04:15:17,73214,-3020.000,1870.000,7591.000,2.000,-6.000,3.000,0.000,0.000,0
2026-01-31 04:15:17,73254,-3017.000,1870.000,7591.000,8.000,-6.000,6.000,0.000,0.000,0
2026-01-31 04:15:17,73294,-3017.000,1869.000,7591.000,3.000,-9.000,8.000,0.000,0.000,0
2026-01-31 04:15:17,73334,-3017.000,1868.000,7588.000,0.000,-6.000,10.000,0.000,0.000,0
2026-01-31 04:15:17,73377,-3020.000,1867.000,7589.000,1.000,-2.000,4.000,0.000,0.000,0
2026-01-31 04:15:17,73417,-3014.000,1872.000,7582.000,3.000,-7.000,7.000,0.000,0.000,0
2026-01-31 04:15:18,73454,-3018.000,1870.000,7585.000,2.000,-3.000,4.000,0.000,0.000,0
2026-01-31 04:15:18,73494,-3022.000,1871.000,7589.000,4.000,-8.000,5.000,0.000,0.000,0
2026-01-31 04:15:18,73534,-3025.000,1872.000,7588.000,2.000,-7.000,8.000,0.000,0.000,0
2026-01-31 04:15:18,73574,-3019.000,1871.000,7591.000,2.000,-6.000,5.000,0.000,0.000,0
2026-01-31 04:15:18,73614,-3015.000,1869.000,7583.000,5.000,-3.000,1.000,0.000,0.000,0
2026-01-31 04:15:18,73654,-3020.000,1872.000,7589.000,5.000,-3.000,1.000,0.000,0.000,0
2026-01-31 04:15:18,73694,-3016.000,1870.000,7588.000,2.000,-6.000,6.000,0.000,0.000,0
2026-01-31 04:15:18,73734,-3015.000,1872.000,7591.000,0.000,-8.000,8.000,0.000,0.000,0
2026-01-31 04:15:18,73774,-3015.000,1869.000,7587.000,4.000,-3.000,4.000,0.000,0.000,0
2026-01-31 04:15:18,73814,-3012.000,1874.000,7586.000,4.000,-4.000,2.000,0.000,0.000,0
2026-01-31 04:15:18,73854,-3017.000,1871.000,7585.000,1.000,-7.000,4.000,0.000,0.000,0
2026-01-31 04:15:18,73894,-3016.000,1872.000,7582.000,-1.000,-8.000,9.000,0.000,0.000,0
2026-01-31 04:15:18,73934,-3018.000,1873.000,7592.000,4.000,-3.000,4.000,0.000,0.000,0
2026-01-31 04:15:18,73974,-3015.000,1871.000,7592.000,4.000,-5.000,3.000,0.000,0.000,0
2026-01-31 04:15:18,74014,-3020.000,1875.000,7588.000,4.000,-3.000,3.000,0.000,0.000,0
2026-01-31 04:15:18,74054,-3016.000,1868.000,7589.000,2.000,-6.000,6.000,0.000,0.000,0
2026-01-31 04:15:18,74094,-3016.000,1873.000,7591.000,1.000,-5.000,6.000,0.000,0.000,0
2026-01-31 04:15:18,74134,-3020.000,1870.000,7588.000,3.000,-3.000,5.000,0.000,0.000,0
2026-01-31 04:15:18,74174,-3017.000,1865.000,7597.000,6.000,-5.000,1.000,0.000,0.000,0
2026-01-31 04:15:18,74214,-3022.000,1875.000,7590.000,4.000,-6.000,0.000,0.000,0.000,0
2026-01-31 04:15:18,74254,-3017.000,1872.000,7589.000,1.000,-10.000,8.000,0.000,0.000,0
2026-01-31 04:15:18,74294,-3013.000,1867.000,7591.000,4.000,-6.000,7.000,0.000,0.000,0
2026-01-31 04:15:18,74334,-3015.000,1867.000,7588.000,5.000,-8.000,5.000,0.000,0.000,0
2026-01-31 04:15:18,74374,-3019.000,1871.000,7582.000,3.000,-5.000,1.000,0.000,0.000,0
2026-01-31 04:15:18,74414,-3016.000,1870.000,7588.000,5.000,-3.000,5.000,0.000,0.000,0
2026-01-31 04:15:19,74454,-3020.000,1869.000,7586.000,0.000,-6.000,6.000,0.000,0.000,0
