datetime_local,uptime_ms,acc_x,acc_y,acc_z,gyro_x,gyro_y,gyro_z,speed_mps,turn_rate_deg_s,gps_valid
2026-01-31 03:59:05,83374,-1184.000,-4705.000,6969.000,823.000,-69.000,433.000,0.000,0.000,1
2026-01-31 03:59:05,83414,-1089.000,-4890.000,7125.000,-162.000,-212.000,397.000,0.000,0.000,1
2026-01-31 03:59:05,83455,-1047.000,-4795.000,6880.000,-22.000,-619.000,50.000,0.000,0.000,1
2026-01-31 03:59:05,83495,-979.000,-4675.000,6850.000,642.000,-545.000,-101.000,0.000,0.000,1
2026-01-31 03:59:05,83534,-1017.000,-4587.000,6922.000,642.000,-5.000,178.000,0.000,0.000,1
2026-01-31 03:59:05,83574,-978.000,-4629.000,6963.000,1009.000,-21.000,461.000,0.000,0.000,1
2026-01-31 03:59:05,83614,-929.000,-4510.000,7095.000,1541.000,-198.000,225.000,0.000,0.000,1
2026-01-31 03:59:05,83654,-898.000,-4131.000,7294.000,1628.000,-674.000,231.000,0.000,0.000,1
2026-01-31 03:59:05,83694,-881.000,-4176.000,7186.000,1094.000,-779.000,357.000,0.000,0.000,1
2026-01-31 03:59:05,83734,-826.000,-4143.000,7364.000,-49.000,-494.000,266.000,0.000,0.000,1
2026-01-31 03:59:05,83774,-834.000,-4252.000,7277.000,-236.000,-287.000,160.000,0.000,0.000,1
2026-01-31 03:59:05,83814,-864.000,-4408.000,7059.000,857.000,-76.000,80.000,0.000,0.000,1
2026-01-31 03:59:05,83854,-1038.000,-4733.000,6934.000,1111.000,-313.000,611.000,0.000,0.000,1
2026-01-31 03:59:05,83894,-1169.000,-5215.000,7211.000,1752.000,395.000,-761.000,0.000,0.000,1
2026-01-31 03:59:05,83934,-1030.000,-4150.000,7663.000,2320.000,-275.000,-1882.000,0.000,0.000,1
2026-01-31 03:59:06,83974,-532.000,-4469.000,7414.000,1448.000,-1553.000,-1292.000,0.000,0.000,1
2026-01-31 03:59:06,84014,-136.000,-4876.000,7461.000,2027.000,-1585.000,-1785.000,0.000,0.000,1
2026-01-31 03:59:06,84054,128.000,-4408.000,8005.000,3777.000,-1758.000,-2521.000,0.000,0.000,1
2026-01-31 03:59:06,84094,608.000,-4095.000,8212.000,4751.000,-2573.000,-2690.000,0.000,0.000,1
2026-01-31 03:59:06,84134,1671.000,-3040.000,8236.000,4845.000,-2871.000,-4043.000,0.000,0.000,1
2026-01-31 03:59:06,84174,1613.000,-2186.000,8295.000,4064.000,-2819.000,-3985.000,0.000,0.000,1
2026-01-31 03:59:06,84214,2025.000,-2294.000,8150.000,5123.000,-3444.000,-3393.000,0.000,0.000,1
2026-01-31 03:59:06,84254,2380.000,-287.000,7700.000,4917.000,-3708.000,-4810.000,0.000,0.000,1
2026-01-31 03:59:06,84294,2885.000,418.000,7144.000,2787.000,-2706.000,-4552.000,0.000,0.000,1
2026-01-31 03:59:06,84334,2513.000,1011.000,7272.000,-496.000,-946.000,-4408.000,0.000,0.000,1
2026-01-31 03:59:06,84374,2019.000,617.000,7601.000,-1720.000,666.000,-3051.000,0.000,0.000,1
2026-01-31 03:59:06,84414,1708.000,1035.000,8276.000,-1309.000,1344.000,-3776.000,0.000,0.000,1
2026-01-31 03:59:06,84454,1374.000,1164.000,8759.000,-1166.000,1215.000,-1889.000,0.000,0.000,1
2026-01-31 03:59:06,84494,1187.000,274.000,9128.000,-287.000,334.000,88.000,0.000,0.000,1
2026-01-31 03:59:06,84534,932.000,-164.000,8848.000,441.000,-1730.000,83.000,0.000,0.000,1
2026-01-31 03:59:06,84574,1473.000,829.000,8050.000,126.000,-2076.000,-1524.000,0.000,0.000,1
2026-01-31 03:59:06,84614,1287.000,2665.000,8008.000,1220.000,33.000,818.000,0.000,0.000,1
2026-01-31 03:59:06,84654,874.000,692.000,9202.000,-939.000,1664.000,3027.000,0.000,0.000,1
2026-01-31 03:59:06,84694,-22.000,-647.000,9223.000,-840.000,411.000,2276.000,0.000,0.000,1
2026-01-31 03:59:06,84734,1308.000,653.000,8907.000,-1533.000,-662.000,-1245.000,0.000,0.000,1
2026-01-31 03:59:06,84774,2235.000,2298.000,7850.000,-1798.000,-322.000,245.000,0.000,0.000,1
2026-01-31 03:59:06,84814,1760.000,-1831.000,7288.000,-1171.000,1964.000,4297.000,0.000,0.000,1
2026-01-31 03:59:06,84854,1476.000,-4133.000,8108.000,-5094.000,3386.000,1701.000,0.000,0.000,1
2026-01-31 03:59:06,84894,1408.000,-1926.000,10520.000,1574.000,859.000,-1580.000,0.000,0.000,1
2026-01-31 03:59:06,84934,2041.000,-107.000,9989.000,2615.000,-4458.000,-1063.000,0.000,0.000,1
2026-01-31 03:59:07,84974,2141.000,-148.000,8035.000,3528.000,-8468.000,-120.000,0.000,0.000,1
2026-01-31 03:59:07,85014,3450.000,-89.000,5190.000,2425.000,-1922.000,992.000,0.000,0.000,1
2026-01-31 03:59:07,85054,3458.000,-396.000,6578.000,827.000,2142.000,1019.000,0.000,0.000,1
2026-01-31 03:59:07,85097,3279.000,-793.000,5315.000,3221.000,-1636.000,225.000,0.000,0.000,1
2026-01-31 03:59:07,85134,3560.000,1634.000,4028.000,5404.000,-1644.000,-854.000,0.000,0.000,1
2026-01-31 03:59:07,85174,1551.000,1940.000,4879.000,6281.000,1231.000,1904.000,0.000,0.000,1
2026-01-31 03:59:07,85214,1530.000,3989.000,11751.000,17797.000,990.000,4893.000,0.000,0.000,1
2026-01-31 03:59:07,85254,1947.000,2078.000,9776.000,2789.000,-5303.000,3452.000,0.000,0.000,1
2026-01-31 03:59:07,85294,2752.000,1795.000,6560.000,3724.000,-8225.000,2192.000,0.000,0.000,1
2026-01-31 03:59:07,85334,3696.000,95.000,5100.000,1078.000,-7129.000,-734.000,0.000,0.000,1
2026-01-31 03:59:07,85374,3924.000,3135.000,6320.000,2749.000,-1535.000,-6511.000,0.000,0.000,1
2026-01-31 03:59:07,85414,4158.000,4980.000,6955.000,1493.000,2058.000,-7717.000,0.000,0.000,1
2026-01-31 03:59:07,85454,5765.000,13678.000,6632.000,13288.000,2830.000,-540.000,0.000,0.000,1
2026-01-31 03:59:07,85494,4227.000,3378.000,5884.000,-4569.000,4441.000,7355.000,0.000,0.000,1
2026-01-31 03:59:07,85534,5243.000,705.000,7302.000,-6517.000,2861.000,2374.000,0.000,0.000,1
2026-01-31 03:59:07,85574,3937.000,3514.000,7683.000,-4989.000,1833.000,-6095.000,0.000,0.000,1
2026-01-31 03:59:07,85614,3883.000,8058.000,7410.000,-4096.000,1648.000,-2525.000,0.000,0.000,1
2026-01-31 03:59:07,85654,3231.000,4094.000,8145.000,-2429.000,1379.000,4941.000,0.000,0.000,1
2026-01-31 03:59:07,85694,3187.000,2013.000,7064.000,-5946.000,727.000,5810.000,0.000,0.000,1
2026-01-31 03:59:07,85734,3482.000,-88.000,4835.000,-4880.000,664.000,5290.000,0.000,0.000,1
2026-01-31 03:59:07,85774,3356.000,3433.000,7741.000,3767.000,5215.000,3392.000,0.000,0.000,1
2026-01-31 03:59:07,85814,1262.000,1099.000,9495.000,2127.000,4478.000,6209.000,0.000,0.000,1
2026-01-31 03:59:07,85854,2561.000,1476.000,7607.000,-6066.000,4038.000,5028.000,0.000,0.000,1
2026-01-31 03:59:07,85894,1858.000,-1312.000,8125.000,-3193.000,3738.000,4281.000,0.000,0.000,1
2026-01-31 03:59:07,85934,1046.000,-2661.000,10475.000,3671.000,-600.000,-1005.000,0.000,0.000,1
2026-01-31 03:59:08,85974,2665.000,4247.000,7471.000,-3266.000,1131.000,-1642.000,0.000,0.000,1
2026-01-31 03:59:08,86014,1497.000,-2604.000,8945.000,-1256.000,733.000,-43.000,0.000,0.000,1
2026-01-31 03:59:08,86054,2611.000,3072.000,7187.000,19.000,-720.000,-5594.000,0.000,0.000,1
2026-01-31 03:59:08,86094,3199.000,2952.000,5903.000,-28.000,722.000,179.000,0.000,0.000,1
2026-01-31 03:59:08,86134,641.000,195.000,9265.000,722.000,3011.000,2471.000,0.000,0.000,1
2026-01-31 03:59:08,86174,687.000,-2260.000,8733.000,1377.000,-855.000,104.000,0.000,0.000,1
2026-01-31 03:59:08,86214,783.000,77.000,8186.000,1010.000,-898.000,-2705.000,0.000,0.000,1
2026-01-31 03:59:08,86254,1363.000,766.000,9063.000,1089.000,-1505.000,-4081.000,0.000,0.000,1
2026-01-31 03:59:08,86294,2307.000,777.000,6880.000,-2459.000,-5133.000,-6557.000,0.000,0.000,1
2026-01-31 03:59:08,86334,2734.000,1057.000,6794.000,-1070.000,-3226.000,-7819.000,0.000,51.880,1
2026-01-31 03:59:08,86374,3527.000,3327.000,5229.000,-692.000,-729.000,-3783.000,0.000,51.880,1
2026-01-31 03:59:08,86414,2738.000,1567.000,7433.000,-3714.000,3915.000,-2413.000,0.000,51.880,1
2026-01-31 03:59:08,86454,1734.000,2431.000,9612.000,-4313.000,4158.000,-3683.000,0.000,51.880,1
2026-01-31 03:59:08,86494,1159.000,1115.000,8524.000,-1664.000,1396.000,-1916.000,0.000,51.880,1
2026-01-31 03:59:08,86534,1502.000,2044.000,7433.000,627.000,-1172.000,-227.000,0.000,51.880,1
2026-01-31 03:59:08,86574,1069.000,448.000,5635.000,820.000,-965.000,1672.000,0.000,51.880,1
2026-01-31 03:59:08,86614,1177.000,287.000,7003.000,-1007.000,3676.000,-83.000,0.000,51.880,1
2026-01-31 03:59:08,86654,-410.000,42.000,8155.000,-2328.000,4651.000,-251.000,0.000,51.880,1
2026-01-31 03:59:08,86694,-315.000,-530.000,11648.000,-3092.000,6012.000,-1148.000,0.000,51.880,1
2026-01-31 03:59:08,86734,-872.000,-753.000,10977.000,-3802.000,-718.000,-3540.000,0.000,51.880,1
2026-01-31 03:59:08,86774,311.000,392.000,7902.000,-4102.000,-3778.000,-6029.000,0.000,51.880,1
2026-01-31 03:59:08,86814,1296.000,1091.000,7111.000,-728.000,-2918.000,-3565.000,0.000,51.880,1
2026-01-31 03:59:08,86854,1310.000,127.000,5931.000,1301.000,-2052.000,1501.000,0.000,51.880,1
2026-01-31 03:59:08,86894,1132.000,366.000,7894.000,4576.000,1649.000,2849.000,0.000,51.880,1
2026-01-31 03:59:08,86934,877.000,2133.000,9476.000,1003.000,1385.000,375.000,0.000,51.880,1
2026-01-31 03:59:09,86974,520.000,-804.000,8262.000,-1225.000,302.000,3426.000,0.000,51.880,1
2026-01-31 03:59:09,87014,-300.000,-1811.000,11888.000,5943.000,-1252.000,-1539.000,0.000,51.880,1
2026-01-31 03:59:09,87054,1335.000,2100.000,7733.000,-2643.000,-3878.000,-5125.000,0.000,51.880,1
2026-01-31 03:59:09,87094,1535.000,-59.000,7064.000,-969.000,-1619.000,-2127.000,0.000,51.880,1
2026-01-31 03:59:09,87134,1735.000,3560.000,11655.000,2517.000,77.000,-4189.000,0.000,51.880,1
2026-01-31 03:59:09,87174,1920.000,879.000,9028.000,661.000,-3274.000,-1594.000,0.000,51.880,1
2026-01-31 03:59:09,87214,2500.000,566.000,7764.000,759.000,-2275.000,-598.000,0.000,51.880,1
2026-01-31 03:59:09,87254,1827.000,1140.000,8270.000,149.000,-183.000,-239.000,0.000,51.880,1
2026-01-31 03:59:09,87294,1885.000,845.000,7974.000,-11.000,-382.000,104.000,0.000,51.880,1
2026-01-31 03:59:09,87334,2030.000,1395.000,8772.000,295.000,855.000,-633.000,0.000,51.880,1
2026-01-31 03:59:09,87377,1673.000,990.000,8109.000,-82.000,124.000,-145.000,0.000,0.000,0
2026-01-31 03:59:09,87414,1553.000,1133.000,8188.000,-187.000,-94.000,-291.000,0.000,0.000,0
2026-01-31 03:59:09,87454,1751.000,719.000,8293.000,-105.000,-1083.000,-242.000,0.000,0.000,0
2026-01-31 03:59:09,87494,2057.000,1246.000,7966.000,307.000,-289.000,-1111.000,0.000,0.000,0
2026-01-31 03:59:09,87534,2188.000,1508.000,9149.000,-41.000,-912.000,-278.000,0.000,0.000,0
2026-01-31 03:59:09,87574,2326.000,960.000,7802.000,-2029.000,-3063.000,752.000,0.000,0.000,0
2026-01-31 03:59:09,87614,2427.000,546.000,7704.000,-111.000,-398.000,223.000,0.000,0.000,0
2026-01-31 03:59:09,87654,2257.000,891.000,7023.000,-455.000,769.000,-301.000,0.000,0.000,0
2026-01-31 03:59:09,87694,1660.000,487.000,6546.000,-4595.000,3728.000,-257.000,0.000,0.000,0
2026-01-31 03:59:09,87734,1519.000,606.000,9487.000,-3679.000,5775.000,-714.000,0.000,0.000,0
2026-01-31 03:59:09,87774,777.000,-2218.000,10800.000,-5346.000,4030.000,646.000,0.000,0.000,0
2026-01-31 03:59:09,87814,763.000,-145.000,9031.000,-215.000,-646.000,162.000,0.000,0.000,0
2026-01-31 03:59:09,87854,1341.000,-903.000,7594.000,216.000,-1185.000,426.000,0.000,0.000,0
2026-01-31 03:59:09,87894,907.000,-571.000,8434.000,436.000,540.000,-546.000,0.000,0.000,0
2026-01-31 03:59:09,87934,670.000,-501.000,8685.000,560.000,36.000,-508.000,0.000,0.000,0
2026-01-31 03:59:10,87974,1189.000,51.000,8879.000,694.000,-142.000,-945.000,0.000,0.000,0
2026-01-31 03:59:10,88014,1414.000,103.000,6785.000,6049.000,-991.000,-328.000,0.000,0.000,0
2026-01-31 03:59:10,88054,1046.000,2354.000,10272.000,5829.000,2224.000,-2831.000,0.000,0.000,0
2026-01-31 03:59:10,88094,1272.000,1212.000,7996.000,4006.000,-3060.000,-459.000,0.000,0.000,0
2026-01-31 03:59:10,88134,1570.000,907.000,6970.000,2677.000,-2957.000,-579.000,0.000,0.000,0
2026-01-31 03:59:10,88174,1499.000,868.000,6579.000,4997.000,769.000,-2504.000,0.000,0.000,0
2026-01-31 03:59:10,88214,1267.000,3591.000,7545.000,1600.000,3536.000,-3460.000,0.000,0.000,0
2026-01-31 03:59:10,88254,358.000,1180.000,9022.000,1705.000,3300.000,-1605.000,0.000,0.000,0
2026-01-31 03:59:10,88294,-61.000,2495.000,7582.000,-1776.000,2917.000,-2540.000,0.000,0.000,0
2026-01-31 03:59:10,88334,-388.000,1631.000,9231.000,-290.000,2839.000,-2786.000,0.000,0.000,0
2026-01-31 03:59:10,88374,54.000,4338.000,9777.000,1050.000,1163.000,-2670.000,0.000,0.000,0
2026-01-31 03:59:10,88414,141.000,1587.000,7593.000,286.000,-2304.000,1020.000,0.000,0.000,0
2026-01-31 03:59:10,88454,231.000,1905.000,7312.000,1271.000,-1668.000,-1038.000,0.000,0.000,0
2026-01-31 03:59:10,88494,246.000,2423.000,7538.000,2311.000,-451.000,-1907.000,0.000,0.000,0
2026-01-31 03:59:10,88534,444.000,2577.000,7007.000,216.000,411.000,-2526.000,0.000,0.000,0
2026-01-31 03:59:10,88574,-24.000,3058.000,9259.000,-1144.000,1641.000,-1954.000,0.000,0.000,0
2026-01-31 03:59:10,88614,-480.000,2674.000,8811.000,243.000,-743.000,-814.000,0.000,0.000,0
2026-01-31 03:59:10,88654,211.000,2393.000,6889.000,929.000,-1478.000,-1484.000,0.000,0.000,0
2026-01-31 03:59:10,88694,310.000,3506.000,9114.000,1808.000,-1027.000,-95.000,0.000,0.000,0
2026-01-31 03:59:10,88734,158.000,2543.000,7117.000,612.000,-1931.000,439.000,0.000,0.000,0
2026-01-31 03:59:10,88774,300.000,2945.000,7493.000,1442.000,-1009.000,-617.000,0.000,0.000,0
2026-01-31 03:59:10,88814,853.000,3985.000,8889.000,1806.000,-872.000,-741.000,0.000,0.000,0
2026-01-31 03:59:10,88854,495.000,3113.000,7305.000,891.000,-1615.000,-81.000,0.000,0.000,0
2026-01-31 03:59:10,88894,20.000,1437.000,3069.000,-1592.000,-307.000,-1770.000,0.000,0.000,0
2026-01-31 03:59:10,88934,-1140.000,-812.000,4776.000,-5599.000,8141.000,-6077.000,0.000,0.000,0
2026-01-31 03:59:11,88974,-2310.000,3661.000,11083.000,-9527.000,10947.000,-10362.000,0.000,0.000,0
2026-01-31 03:59:11,89014,-2308.000,355.000,8874.000,-13956.000,7344.000,-7697.000,0.000,0.000,0
2026-01-31 03:59:11,89054,-3273.000,1923.000,8228.000,-269.000,6525.000,-5228.000,0.000,0.000,0
2026-01-31 03:59:11,89094,-4333.000,2464.000,10149.000,1750.000,5482.000,-1634.000,0.000,0.000,0
2026-01-31 03:59:11,89137,-3728.000,659.000,9125.000,138.000,-190.000,-114.000,0.000,0.000,0
2026-01-31 03:59:11,89177,-3591.000,101.000,6725.000,-544.000,-800.000,84.000,0.000,0.000,0
2026-01-31 03:59:11,89214,-3335.000,-52.000,7057.000,487.000,-7.000,-34.000,0.000,0.000,0
2026-01-31 03:59:11,89254,-3528.000,339.000,8243.000,204.000,-234.000,9.000,0.000,0.000,0
2026-01-31 03:59:11,89294,-3361.000,247.000,6999.000,217.000,-741.000,-133.000,0.000,0.000,0
2026-01-31 03:59:11,89334,-3395.000,-40.000,7515.000,43.000,-445.000,-181.000,0.000,0.000,0
2026-01-31 03:59:11,89377,-3014.000,-232.000,6541.000,-123.000,1956.000,-2152.000,0.000,0.000,0
2026-01-31 03:59:11,89414,-2770.000,-235.000,5326.000,-161.000,2565.000,-2741.000,0.000,0.000,0
2026-01-31 03:59:11,89454,-4898.000,1560.000,9120.000,-245.000,6627.000,-1587.000,0.000,0.000,0
2026-01-31 03:59:11,89494,-4752.000,806.000,10569.000,4978.000,2889.000,708.000,0.000,0.000,0
2026-01-31 03:59:11,89534,-4327.000,748.000,6598.000,-290.000,-829.000,10.000,0.000,0.000,0
2026-01-31 03:59:11,89574,-4363.000,404.000,7403.000,290.000,-43.000,108.000,0.000,0.000,0
2026-01-31 03:59:11,89614,-4379.000,445.000,7010.000,-716.000,-690.000,-147.000,0.000,0.000,0
2026-01-31 03:59:11,89654,-4291.000,450.000,7053.000,157.000,-16.000,81.000,0.000,0.000,0
2026-01-31 03:59:11,89694,-4285.000,407.000,7164.000,-99.000,-91.000,-12.000,0.000,0.000,0
2026-01-31 03:59:11,89734,-4289.000,390.000,7231.000,-212.000,-42.000,-21.000,0.000,0.000,0
2026-01-31 03:59:11,89774,-4280.000,399.000,7144.000,-283.000,-93.000,-49.000,0.000,0.000,0
2026-01-31 03:59:11,89814,-4276.000,396.000,7193.000,31.000,-5.000,24.000,0.000,0.000,0
2026-01-31 03:59:11,89854,-4277.000,413.000,7200.000,118.000,28.000,26.000,0.000,0.000,0
2026-01-31 03:59:11,89894,-4282.000,394.000,7236.000,124.000,30.000,35.000,0.000,0.000,0
2026-01-31 03:59:11,89934,-4280.000,413.000,7190.000,34.000,2.000,16.000,0.000,0.000,0
2026-01-31 03:59:12,89974,-4283.000,410.000,7203.000,11.000,1.000,15.000,0.000,0.000,0
2026-01-31 03:59:12,90014,-4279.000,430.000,7179.000,11.000,2.000,7.000,0.000,0.000,0
2026-01-31 03:59:12,90054,-4282.000,410.000,7220.000,74.000,24.000,19.000,0.000,0.000,0
2026-01-31 03:59:12,90094,-4283.000,445.000,7172.000,16.000,23.000,-6.000,0.000,0.000,0
2026-01-31 03:59:12,90134,-4284.000,433.000,7180.000,34.000,15.000,9.000,0.000,0.000,0
2026-01-31 03:59:12,90174,-4284.000,421.000,7187.000,34.000,10.000,17.000,0.000,0.000,0
2026-01-31 03:59:12,90214,-4286.000,431.000,7205.000,28.000,14.000,15.000,0.000,0.000,0
2026-01-31 03:59:12,90254,-4283.000,448.000,7194.000,9.000,7.000,9.000,0.000,0.000,0
2026-01-31 03:59:12,90294,-4288.000,444.000,7186.000,-30.000,-2.000,-4.000,0.000,0.000,0
2026-01-31 03:59:12,90334,-4284.000,436.000,7211.000,-50.000,-6.000,-6.000,0.000,0.000,0
2026-01-31 03:59:12,90374,-4282.000,437.000,7175.000,-70.000,-14.000,-10.000,0.000,0.000,0
2026-01-31 03:59:12,90414,-4285.000,430.000,7184.000,-31.000,-5.000,1.000,0.000,0.000,0
2026-01-31 03:59:12,90454,-4282.000,430.000,7196.000,16.000,6.000,13.000,0.000,0.000,0
2026-01-31 03:59:12,90494,-4282.000,429.000,7192.000,34.000,6.000,16.000,0.000,0.000,0
2026-01-31 03:59:12,90534,-4283.000,428.000,7194.000,39.000,7.000,14.000,0.000,0.000,0
2026-01-31 03:59:12,90574,-4285.000,430.000,7200.000,8.000,1.000,8.000,0.000,0.000,0
2026-01-31 03:59:12,90614,-4288.000,437.000,7206.000,3.000,-1.000,11.000,0.000,0.000,0
2026-01-31 03:59:12,90654,-4281.000,435.000,7195.000,-16.000,-4.000,4.000,0.000,0.000,0
2026-01-31 03:59:12,90694,-4283.000,432.000,7200.000,-7.000,0.000,7.000,0.000,0.000,0
2026-01-31 03:59:12,90734,-4282.000,435.000,7203.000,-14.000,7.000,1.000,0.000,0.000,0
2026-01-31 03:59:12,90774,-4278.000,435.000,7197.000,-11.000,4.000,2.000,0.000,0.000,0
2026-01-31 03:59:12,90814,-4282.000,436.000,7191.000,4.000,0.000,9.000,0.000,0.000,0
2026-01-31 03:59:12,90854,-4283.000,429.000,7198.000,9.000,-3.000,11.000,0.000,0.000,0
2026-01-31 03:59:12,90894,-4288.000,431.000,7194.000,-2.000,0.000,9.000,0.000,0.000,0
2026-01-31 03:59:12,90934,-4288.000,427.000,7206.000,-7.000,7.000,5.000,0.000,0.000,0
2026-01-31 03:59:13,90974,-4287.000,428.000,7200.000,-19.000,-5.000,2.000,0.000,0.000,0
2026-01-31 03:59:13,91014,-4285.000,432.000,7196.000,-13.000,1.000,0.000,0.000,0.000,0
2026-01-31 03:59:13,91054,-4282.000,432.000,7201.000,1.000,2.000,3.000,0.000,0.000,0
2026-01-31 03:59:13,91094,-4286.000,431.000,7197.000,14.000,3.000,11.000,0.000,0.000,0
2026-01-31 03:59:13,91134,-4285.000,430.000,7202.000,10.000,7.000,10.000,0.000,0.000,0
2026-01-31 03:59:13,91174,-4286.000,431.000,7204.000,2.000,1.000,7.000,0.000,0.000,0
2026-01-31 03:59:13,91217,-4285.000,428.000,7192.000,-4.000,3.000,3.000,0.000,0.000,0
2026-01-31 03:59:13,91256,-4287.000,432.000,7198.000,-10.000,1.000,2.000,0.000,0.000,0
2026-01-31 03:59:13,91294,-4285.000,424.000,7198.000,-14.000,-1.000,3.000,0.000,0.000,0
2026-01-31 03:59:13,91334,-4281.000,432.000,7199.000,-10.000,-3.000,2.000,0.000,0.216,1
2026-01-31 03:59:13,91374,-4284.000,428.000,7203.000,-9.000,4.000,1.000,0.000,0.216,1
2026-01-31 03:59:13,91414,-4282.000,432.000,7206.000,3.000,8.000,4.000,0.000,0.216,1
2026-01-31 03:59:13,91454,-4290.000,434.000,7201.000,3.000,2.000,7.000,0.000,0.216,1
2026-01-31 03:59:13,91494,-4291.000,427.000,7200.000,-7.000,3.000,4.000,0.000,0.216,1
2026-01-31 03:59:13,91534,-4288.000,430.000,7201.000,-6.000,1.000,5.000,0.000,0.216,1
2026-01-31 03:59:13,91574,-4289.000,429.000,7190.000,-7.000,-3.000,4.000,0.000,0.216,1
2026-01-31 03:59:13,91614,-4289.000,433.000,7199.000,-3.000,-1.000,5.000,0.000,0.216,1
2026-01-31 03:59:13,91654,-4289.000,428.000,7197.000,4.000,6.000,7.000,0.000,0.216,1
2026-01-31 03:59:13,91694,-4285.000,427.000,7197.000,6.000,5.000,6.000,0.000,0.216,1
2026-01-31 03:59:13,91734,-4285.000,425.000,7203.000,5.000,2.000,10.000,0.000,0.216,1
2026-01-31 03:59:13,91774,-4286.000,427.000,7188.000,-1.000,1.000,8.000,0.000,0.216,1
2026-01-31 03:59:13,91814,-4283.000,430.000,7185.000,-3.000,-2.000,5.000,0.000,0.216,1
2026-01-31 03:59:13,91854,-4291.000,424.000,7185.000,-11.000,-3.000,7.000,0.000,0.216,1
2026-01-31 03:59:13,91894,-4283.000,424.000,7189.000,-2.000,3.000,7.000,0.000,0.216,1
2026-01-31 03:59:13,91934,-4286.000,424.000,7192.000,-5.000,-3.000,5.000,0.000,0.216,1
2026-01-31 03:59:14,91974,-4292.000,428.000,7188.000,-2.000,-1.000,11.000,0.000,0.216,1
2026-01-31 03:59:14,92014,-4285.000,428.000,7192.000,3.000,3.000,9.000,0.000,0.216,1
2026-01-31 03:59:14,92054,-4290.000,424.000,7185.000,-1.000,0.000,5.000,0.000,0.216,1
2026-01-31 03:59:14,92094,-4286.000,428.000,7195.000,-3.000,4.000,6.000,0.000,0.216,1
2026-01-31 03:59:14,92134,-4290.000,427.000,7196.000,-2.000,2.000,6.000,0.000,0.216,1
2026-01-31 03:59:14,92174,-4288.000,424.000,7186.000,0.000,-2.000,7.000,0.000,0.216,1
2026-01-31 03:59:14,92214,-4289.000,427.000,7192.000,-1.000,2.000,5.000,0.000,0.216,1
2026-01-31 03:59:14,92254,-4284.000,424.000,7189.000,3.000,4.000,9.000,0.000,0.216,1
2026-01-31 03:59:14,92294,-4288.000,427.000,7184.000,3.000,2.000,8.000,0.000,0.216,1
2026-01-31 03:59:14,92334,-4290.000,422.000,7190.000,2.000,1.000,8.000,0.000,0.216,1
2026-01-31 03:59:14,92374,-4290.000,427.000,7196.000,-7.000,1.000,7.000,0.000,0.000,0
2026-01-31 03:59:14,92414,-4290.000,431.000,7187.000,-8.000,4.000,5.000,0.000,0.000,0
2026-01-31 03:59:14,92454,-4286.000,423.000,7187.000,-9.000,-1.000,3.000,0.000,0.000,0
2026-01-31 03:59:14,92494,-4286.000,424.000,7188.000,-7.000,0.000,5.000,0.000,0.000,0
2026-01-31 03:59:14,92534,-4289.000,428.000,7187.000,-4.000,4.000,3.000,0.000,0.000,0
2026-01-31 03:59:14,92574,-4287.000,425.000,7191.000,1.000,1.000,5.000,0.000,0.000,0
2026-01-31 03:59:14,92614,-4284.000,425.000,7189.000,2.000,4.000,8.000,0.000,0.000,0
2026-01-31 03:59:14,92654,-4286.000,424.000,7181.000,0.000,3.000,6.000,0.000,0.000,0
2026-01-31 03:59:14,92694,-4289.000,429.000,7186.000,-1.000,1.000,6.000,0.000,0.000,0
2026-01-31 03:59:14,92734,-4293.000,427.000,7183.000,-2.000,0.000,3.000,0.000,0.000,0
2026-01-31 03:59:14,92774,-4285.000,425.000,7195.000,1.000,1.000,9.000,0.000,0.000,0
2026-01-31 03:59:14,92814,-4287.000,428.000,7199.000,3.000,5.000,7.000,0.000,0.000,0
2026-01-31 03:59:14,92854,-4287.000,433.000,7191.000,-3.000,2.000,4.000,0.000,0.000,0
2026-01-31 03:59:14,92894,-4285.000,426.000,7193.000,-4.000,1.000,5.000,0.000,0.000,0
2026-01-31 03:59:14,92934,-4293.000,427.000,7190.000,-3.000,1.000,5.000,0.000,0.000,0
2026-01-31 03:59:15,92974,-4283.000,426.000,7191.000,-7.000,5.000,4.000,0.000,0.000,0
2026-01-31 03:59:15,93014,-4291.000,424.000,7186.000,-6.000,-3.000,7.000,0.000,0.000,0
2026-01-31 03:59:15,93054,-4287.000,425.000,7191.000,-6.000,6.000,4.000,0.000,0.000,0
2026-01-31 03:59:15,93094,-4290.000,426.000,7190.000,-3.000,1.000,7.000,0.000,0.000,0
2026-01-31 03:59:15,93134,-4285.000,427.000,7191.000,-3.000,4.000,7.000,0.000,0.000,0
2026-01-31 03:59:15,93174,-4290.000,426.000,7180.000,2.000,0.000,6.000,0.000,0.000,0
2026-01-31 03:59:15,93214,-4289.000,422.000,7186.000,0.000,-4.000,8.000,0.000,0.000,0
2026-01-31 03:59:15,93254,-4290.000,433.000,7193.000,-2.000,2.000,7.000,0.000,0.000,0
2026-01-31 03:59:15,93294,-4285.000,422.000,7193.000,-5.000,2.000,4.000,0.000,0.000,0
2026-01-31 03:59:15,93335,-4293.000,429.000,7195.000,0.000,1.000,6.000,0.000,0.000,0
2026-01-31 03:59:15,93377,-4291.000,425.000,7196.000,0.000,1.000,5.000,0.000,0.000,0
2026-01-31 03:59:15,93414,-4292.000,429.000,7195.000,-5.000,4.000,-1.000,0.000,0.000,0
2026-01-31 03:59:15,93454,-4287.000,422.000,7192.000,-4.000,2.000,4.000,0.000,0.000,0
2026-01-31 03:59:15,93494,-4290.000,419.000,7198.000,1.000,2.000,6.000,0.000,0.000,0
2026-01-31 03:59:15,93534,-4294.000,427.000,7196.000,-2.000,5.000,6.000,0.000,0.000,0
2026-01-31 03:59:15,93574,-4292.000,424.000,7188.000,-3.000,3.000,3.000,0.000,0.000,0
2026-01-31 03:59:15,93614,-4290.000,426.000,7187.000,2.000,2.000,6.000,0.000,0.000,0
2026-01-31 03:59:15,93654,-4290.000,424.000,7190.000,0.000,0.000,5.000,0.000,0.000,0
2026-01-31 03:59:15,93694,-4286.000,424.000,7187.000,0.000,4.000,4.000,0.000,0.000,0
2026-01-31 03:59:15,93734,-4288.000,428.000,7194.000,3.000,4.000,4.000,0.000,0.000,0
2026-01-31 03:59:15,93774,-4293.000,422.000,7187.000,-6.000,3.000,6.000,0.000,0.000,0
2026-01-31 03:59:15,93814,-4286.000,429.000,7186.000,-1.000,3.000,3.000,0.000,0.000,0
2026-01-31 03:59:15,93854,-4289.000,423.000,7188.000,-1.000,-4.000,6.000,0.000,0.000,0
2026-01-31 03:59:15,93894,-4284.000,421.000,7199.000,-5.000,9.000,4.000,0.000,0.000,0
2026-01-31 03:59:15,93934,-4291.000,423.000,7201.000,-1.000,0.000,4.000,0.000,0.000,0
2026-01-31 03:59:16,93974,-4281.000,425.000,7185.000,-5.000,0.000,4.000,0.000,0.000,0
2026-01-31 03:59:16,94014,-4295.000,420.000,7199.000,-2.000,3.000,7.000,0.000,0.000,0
2026-01-31 03:59:16,94054,-4290.000,431.000,7187.000,-4.000,0.000,6.000,0.000,0.000,0
2026-01-31 03:59:16,94094,-4289.000,424.000,7195.000,-1.000,0.000,7.000,0.000,0.000,0
2026-01-31 03:59:16,94134,-4289.000,426.000,7194.000,3.000,5.000,7.000,0.000,0.000,0
2026-01-31 03:59:16,94174,-4295.000,425.000,7192.000,-1.000,5.000,5.000,0.000,0.000,0
2026-01-31 03:59:16,94214,-4290.000,425.000,7190.000,-5.000,1.000,5.000,0.000,0.000,0
2026-01-31 03:59:16,94254,-4288.000,424.000,7194.000,3.000,4.000,6.000,0.000,0.000,0
2026-01-31 03:59:16,94294,-4291.000,429.000,7193.000,2.000,2.000,4.000,0.000,0.000,0
2026-01-31 03:59:16,94334,-4301.000,427.000,7191.000,0.000,4.000,6.000,0.000,0.000,0
2026-01-31 03:59:16,94374,-4294.000,423.000,7194.000,-3.000,2.000,4.000,0.000,0.000,0
2026-01-31 03:59:16,94414,-4287.000,431.000,7203.000,-1.000,4.000,6.000,0.000,0.000,0
2026-01-31 03:59:16,94454,-4286.000,426.000,7196.000,2.000,-2.000,5.000,0.000,0.000,0
2026-01-31 03:59:16,94494,-4292.000,423.000,7198.000,-7.000,-4.000,6.000,0.000,0.000,0
2026-01-31 03:59:16,94534,-4292.000,428.000,7197.000,3.000,0.000,7.000,0.000,0.000,0
2026-01-31 03:59:16,94574,-4290.000,417.000,7185.000,-7.000,-3.000,5.000,0.000,0.000,0
2026-01-31 03:59:16,94614,-4293.000,428.000,7192.000,2.000,2.000,5.000,0.000,0.000,0
2026-01-31 03:59:16,94654,-4289.000,423.000,7195.000,3.000,4.000,5.000,0.000,0.000,0
2026-01-31 03:59:16,94694,-4293.000,424.000,7195.000,0.000,3.000,6.000,0.000,0.000,0
2026-01-31 03:59:16,94734,-4289.000,426.000,7192.000,2.000,2.000,7.000,0.000,0.000,0
2026-01-31 03:59:16,94774,-4289.000,427.000,7190.000,4.000,1.000,6.000,0.000,0.000,0
2026-01-31 03:59:16,94814,-4299.000,425.000,7188.000,1.000,4.000,6.000,0.000,0.000,0
2026-01-31 03:59:16,94854,-4296.000,422.000,7192.000,3.000,0.000,6.000,0.000,0.000,0
2026-01-31 03:59:16,94894,-4292.000,426.000,7188.000,-3.000,0.000,6.000,0.000,0.000,0
2026-01-31 03:59:16,94934,-4291.000,429.000,7192.000,-3.000,1.000,8.000,0.000,0.000,0
2026-01-31 03:59:17,94974,-4290.000,427.000,7184.000,-3.000,5.000,5.000,0.000,0.000,0
2026-01-31 03:59:17,95014,-4291.000,425.000,7188.000,-1.000,0.000,7.000,0.000,0.000,0
2026-01-31 03:59:17,95054,-4294.000,426.000,7186.000,-3.000,-2.000,6.000,0.000,0.000,0
2026-01-31 03:59:17,95094,-4292.000,429.000,7185.000,-2.000,2.000,5.000,0.000,0.000,0
2026-01-31 03:59:17,95134,-4299.000,419.000,7186.000,-4.000,4.000,6.000,0.000,0.000,0
2026-01-31 03:59:17,95174,-4293.000,427.000,7187.000,-1.000,1.000,8.000,0.000,0.000,0
2026-01-31 03:59:17,95214,-4291.000,427.000,7183.000,-1.000,3.000,7.000,0.000,0.000,0
2026-01-31 03:59:17,95254,-4287.000,426.000,7182.000,-2.000,0.000,5.000,0.000,0.000,0
2026-01-31 03:59:17,95294,-4291.000,427.000,7183.000,-4.000,7.000,2.000,0.000,0.000,0
2026-01-31 03:59:17,95334,-4290.000,433.000,7186.000,-4.000,4.000,2.000,0.000,0.000,0
2026-01-31 03:59:17,95374,-4297.000,422.000,7189.000,-5.000,8.000,1.000,0.000,0.000,0
2026-01-31 03:59:17,95414,-4296.000,422.000,7189.000,-2.000,5.000,7.000,0.000,0.000,0
2026-01-31 03:59:17,95454,-4298.000,421.000,7191.000,2.000,2.000,7.000,0.000,0.000,0
2026-01-31 03:59:17,95494,-4299.000,424.000,7183.000,-2.000,2.000,6.000,0.000,0.000,0
2026-01-31 03:59:17,95534,-4293.000,433.000,7187.000,-6.000,1.000,2.000,0.000,0.000,0
2026-01-31 03:59:17,95574,-4292.000,428.000,7191.000,2.000,4.000,4.000,0.000,0.000,0
2026-01-31 03:59:17,95614,-4289.000,426.000,7194.000,-5.000,4.000,5.000,0.000,0.000,0
2026-01-31 03:59:17,95654,-4295.000,430.000,7186.000,-3.000,1.000,7.000,0.000,0.000,0
2026-01-31 03:59:17,95694,-4295.000,424.000,7194.000,-3.000,7.000,2.000,0.000,0.000,0
2026-01-31 03:59:17,95734,-4294.000,427.000,7185.000,-4.000,0.000,5.000,0.000,0.000,0
2026-01-31 03:59:17,95774,-4295.000,423.000,7199.000,2.000,2.000,10.000,0.000,0.000,0
2026-01-31 03:59:17,95814,-4294.000,428.000,7187.000,-2.000,1.000,7.000,0.000,0.000,0
2026-01-31 03:59:17,95854,-4293.000,425.000,7188.000,2.000,0.000,9.000,0.000,0.000,0
2026-01-31 03:59:17,95894,-4294.000,426.000,7192.000,2.000,0.000,9.000,0.000,0.000,0
2026-01-31 03:59:17,95934,-4292.000,429.000,7187.000,-5.000,1.000,4.000,0.000,0.000,0
2026-01-31 03:59:18,95974,-4290.000,431.000,7187.000,-1.000,2.000,5.000,0.000,0.000,0
2026-01-31 03:59:18,96014,-4294.000,421.000,7189.000,-3.000,0.000,4.000,0.000,0.000,0
2026-01-31 03:59:18,96054,-4298.000,431.000,7188.000,-5.000,0.000,3.000,0.000,0.000,0
2026-01-31 03:59:18,96094,-4297.000,420.000,7191.000,3.000,0.000,5.000,0.000,0.000,0
2026-01-31 03:59:18,96134,-4296.000,427.000,7191.000,2.000,5.000,5.000,0.000,0.000,0
2026-01-31 03:59:18,96174,-4293.000,428.000,7184.000,-4.000,3.000,4.000,0.000,0.000,0
2026-01-31 03:59:18,96214,-4294.000,423.000,7192.000,-5.000,1.000,4.000,0.000,0.000,0
2026-01-31 03:59:18,96254,-4291.000,429.000,7189.000,5.000,5.000,9.000,0.000,0.000,0
2026-01-31 03:59:18,96294,-4299.000,430.000,7185.000,-5.000,-2.000,4.000,0.000,0.000,0
2026-01-31 03:59:18,96334,-4292.000,427.000,7177.000,-1.000,1.000,5.000,0.000,0.000,0
2026-01-31 03:59:18,96374,-4292.000,430.000,7184.000,1.000,-1.000,8.000,0.000,0.000,0
2026-01-31 03:59:18,96414,-4291.000,429.000,7178.000,1.000,2.000,5.000,0.000,0.000,0
2026-01-31 03:59:18,96454,-4300.000,431.000,7186.000,3.000,6.000,6.000,0.000,0.000,0
2026-01-31 03:59:18,96494,-4294.000,429.000,7177.000,-4.000,-2.000,4.000,0.000,0.000,0
2026-01-31 03:59:18,96534,-4294.000,423.000,7182.000,0.000,1.000,9.000,0.000,0.000,0
2026-01-31 03:59:18,96574,-4298.000,429.000,7182.000,-4.000,0.000,6.000,0.000,0.000,0
2026-01-31 03:59:18,96614,-4294.000,427.000,7188.000,-1.000,0.000,6.000,0.000,0.000,0
2026-01-31 03:59:18,96654,-4295.000,428.000,7189.000,1.000,3.000,8.000,0.000,0.000,0
2026-01-31 03:59:18,96694,-4294.000,427.000,7180.000,3.000,1.000,9.000,0.000,0.000,0
2026-01-31 03:59:18,96734,-4293.000,427.000,7183.000,2.000,-2.000,10.000,0.000,0.000,0
2026-01-31 03:59:18,96774,-4296.000,430.000,7184.000,-5.000,1.000,4.000,0.000,0.000,0
2026-01-31 03:59:18,96814,-4299.000,427.000,7188.000,-2.000,0.000,4.000,0.000,0.000,0
2026-01-31 03:59:18,96854,-4295.000,430.000,7190.000,-1.000,0.000,7.000,0.000,0.000,0
2026-01-31 03:59:18,96894,-4290.000,426.000,7181.000,1.000,3.000,5.000,0.000,0.000,0
2026-01-31 03:59:18,96934,-4298.000,431.000,7183.000,-2.000,4.000,6.000,0.000,0.000,0
2026-01-31 03:59:19,96974,-4289.000,428.000,7185.000,-5.000,2.000,2.000,0.000,0.000,0
2026-01-31 03:59:19,97014,-4298.000,429.000,7174.000,-1.000,0.000,6.000,0.000,0.000,0
2026-01-31 03:59:19,97054,-4294.000,430.000,7187.000,-1.000,1.000,4.000,0.000,0.000,0
2026-01-31 03:59:19,97094,-4293.000,431.000,7182.000,1.000,4.000,4.000,0.000,0.000,0
2026-01-31 03:59:19,97134,-4294.000,426.000,7183.000,-4.000,-1.000,2.000,0.000,0.000,0
2026-01-31 03:59:19,97174,-4297.000,432.000,7184.000,-3.000,2.000,5.000,0.000,0.000,0
2026-01-31 03:59:19,97214,-4296.000,428.000,7185.000,-4.000,0.000,4.000,0.000,0.000,0
2026-01-31 03:59:19,97254,-4296.000,427.000,7187.000,2.000,4.000,8.000,0.000,0.000,0
2026-01-31 03:59:19,97297,-4299.000,423.000,7180.000,-6.000,0.000,5.000,0.000,0.000,0
2026-01-31 03:59:19,97337,-4299.000,429.000,7185.000,-1.000,2.000,6.000,0.000,0.000,0
2026-01-31 03:59:19,97374,-4295.000,427.000,7186.000,1.000,-1.000,3.000,0.000,0.000,0
2026-01-31 03:59:19,97414,-4299.000,428.000,7183.000,-7.000,-1.000,2.000,0.000,0.000,0
2026-01-31 03:59:19,97454,-4295.000,428.000,7194.000,3.000,4.000,8.000,0.000,0.000,0
2026-01-31 03:59:19,97494,-4297.000,425.000,7185.000,0.000,6.000,7.000,0.000,0.000,0
2026-01-31 03:59:19,97534,-4302.000,422.000,7181.000,-1.000,5.000,8.000,0.000,0.000,0
2026-01-31 03:59:19,97574,-4297.000,423.000,7175.000,0.000,2.000,5.000,0.000,0.000,0
2026-01-31 03:59:19,97614,-4299.000,423.000,7189.000,2.000,2.000,10.000,0.000,0.000,0
2026-01-31 03:59:19,97654,-4294.000,424.000,7189.000,4.000,2.000,11.000,0.000,0.000,0
2026-01-31 03:59:19,97694,-4295.000,422.000,7180.000,-3.000,1.000,10.000,0.000,0.000,0
2026-01-31 03:59:19,97734,-4299.000,428.000,7179.000,2.000,0.000,12.000,0.000,0.000,0
2026-01-31 03:59:19,97774,-4294.000,433.000,7177.000,-2.000,-4.000,8.000,0.000,0.000,0
2026-01-31 03:59:19,97814,-4297.000,426.000,7188.000,3.000,0.000,10.000,0.000,0.000,0
2026-01-31 03:59:19,97854,-4294.000,426.000,7191.000,1.000,1.000,7.000,0.000,0.000,0
2026-01-31 03:59:19,97894,-4294.000,424.000,7183.000,0.000,-3.000,9.000,0.000,0.000,0
2026-01-31 03:59:19,97934,-4292.000,425.000,7181.000,-3.000,-2.000,8.000,0.000,0.000,0
2026-01-31 03:59:20,97974,-4301.000,429.000,7172.000,1.000,1.000,8.000,0.000,0.000,0
2026-01-31 03:59:20,98014,-4298.000,427.000,7183.000,3.000,2.000,10.000,0.000,0.000,0
2026-01-31 03:59:20,98054,-4295.000,430.000,7173.000,-3.000,0.000,5.000,0.000,0.000,0
2026-01-31 03:59:20,98094,-4304.000,428.000,7175.000,0.000,0.000,10.000,0.000,0.000,0
2026-01-31 03:59:20,98134,-4294.000,429.000,7177.000,-2.000,0.000,7.000,0.000,0.000,0
2026-01-31 03:59:20,98174,-4302.000,427.000,7175.000,3.000,-5.000,11.000,0.000,0.000,0
2026-01-31 03:59:20,98214,-4300.000,423.000,7179.000,3.000,0.000,9.000,0.000,0.000,0
2026-01-31 03:59:20,98254,-4294.000,426.000,7181.000,1.000,3.000,9.000,0.000,0.000,0
2026-01-31 03:59:20,98294,-4298.000,429.000,7181.000,3.000,-2.000,12.000,0.000,0.000,0
2026-01-31 03:59:20,98334,-4295.000,431.000,7180.000,0.000,4.000,3.000,0.000,0.000,0
2026-01-31 03:59:20,98374,-4305.000,427.000,7177.000,0.000,0.000,7.000,0.000,0.000,0
2026-01-31 03:59:20,98414,-4298.000,430.000,7178.000,-1.000,0.000,6.000,0.000,0.000,0
2026-01-31 03:59:20,98454,-4295.000,430.000,7172.000,1.000,1.000,7.000,0.000,0.000,0
2026-01-31 03:59:20,98494,-4297.000,429.000,7173.000,-3.000,-2.000,9.000,0.000,0.000,0
2026-01-31 03:59:20,98534,-4296.000,429.000,7174.000,1.000,-1.000,6.000,0.000,0.000,0
2026-01-31 03:59:20,98574,-4298.000,430.000,7186.000,5.000,1.000,11.000,0.000,0.000,0
2026-01-31 03:59:20,98614,-4297.000,427.000,7184.000,2.000,3.000,7.000,0.000,0.000,0
2026-01-31 03:59:20,98654,-4300.000,427.000,7179.000,-2.000,-2.000,9.000,0.000,0.000,0
2026-01-31 03:59:20,98694,-4299.000,425.000,7181.000,-3.000,-2.000,6.000,0.000,0.000,0
2026-01-31 03:59:20,98734,-4302.000,425.000,7178.000,-3.000,4.000,4.000,0.000,0.000,0
2026-01-31 03:59:20,98774,-4297.000,430.000,7186.000,-3.000,3.000,5.000,0.000,0.000,0
2026-01-31 03:59:20,98814,-4305.000,433.000,7192.000,-3.000,3.000,6.000,0.000,0.000,0
2026-01-31 03:59:20,98854,-4299.000,429.000,7184.000,-1.000,3.000,7.000,0.000,0.000,0
2026-01-31 03:59:20,98894,-4303.000,427.000,7191.000,1.000,1.000,5.000,0.000,0.000,0
2026-01-31 03:59:20,98934,-4300.000,427.000,7188.000,0.000,1.000,5.000,0.000,0.000,0
2026-01-31 03:59:21,98974,-4297.000,425.000,7191.000,-4.000,1.000,4.000,0.000,0.000,0
2026-01-31 03:59:21,99014,-4303.000,433.000,7185.000,1.000,1.000,8.000,0.000,0.000,0
2026-01-31 03:59:21,99054,-4300.000,430.000,7181.000,-2.000,2.000,7.000,0.000,0.000,0
2026-01-31 03:59:21,99094,-4299.000,429.000,7180.000,0.000,3.000,5.000,0.000,0.000,0
2026-01-31 03:59:21,99134,-4296.000,427.000,7179.000,-2.000,0.000,5.000,0.000,0.000,0
2026-01-31 03:59:21,99174,-4298.000,426.000,7177.000,2.000,4.000,3.000,0.000,0.000,0
2026-01-31 03:59:21,99214,-4300.000,429.000,7183.000,-4.000,0.000,6.000,0.000,0.000,0
2026-01-31 03:59:21,99254,-4300.000,427.000,7186.000,-1.000,3.000,7.000,0.000,0.000,0
2026-01-31 03:59:21,99296,-4297.000,430.000,7178.000,-2.000,7.000,3.000,0.000,0.000,0
2026-01-31 03:59:21,99336,-4304.000,433.000,7175.000,-2.000,2.000,6.000,0.000,0.000,0
2026-01-31 03:59:21,99378,-4301.000,430.000,7174.000,-3.000,3.000,4.000,0.000,0.000,0
2026-01-31 03:59:21,99414,-4298.000,427.000,7181.000,0.000,4.000,6.000,0.000,0.000,0
2026-01-31 03:59:21,99458,-4304.000,426.000,7182.000,-3.000,1.000,4.000,0.000,0.000,0
2026-01-31 03:59:21,99494,-4295.000,424.000,7184.000,0.000,5.000,4.000,0.000,0.000,0
2026-01-31 03:59:21,99534,-4300.000,427.000,7177.000,-2.000,1.000,6.000,0.000,0.000,0
2026-01-31 03:59:21,99574,-4301.000,433.000,7179.000,-2.000,3.000,5.000,0.000,0.000,0
2026-01-31 03:59:21,99614,-4304.000,428.000,7181.000,-2.000,6.000,5.000,0.000,0.000,0
2026-01-31 03:59:21,99654,-4297.000,426.000,7177.000,-1.000,0.000,6.000,0.000,0.000,0
2026-01-31 03:59:21,99694,-4303.000,427.000,7175.000,0.000,3.000,7.000,0.000,0.000,0
2026-01-31 03:59:21,99734,-4300.000,425.000,7174.000,0.000,2.000,6.000,0.000,0.000,0
2026-01-31 03:59:21,99774,-4300.000,432.000,7177.000,-5.000,0.000,5.000,0.000,0.000,0
2026-01-31 03:59:21,99814,-4301.000,431.000,7175.000,0.000,1.000,6.000,0.000,0.000,0
2026-01-31 03:59:21,99854,-4295.000,428.000,7175.000,-3.000,0.000,4.000,0.000,0.000,0
2026-01-31 03:59:21,99894,-4297.000,434.000,7173.000,-1.000,1.000,7.000,0.000,0.000,0
2026-01-31 03:59:21,99934,-4300.000,427.000,7176.000,1.000,0.000,5.000,0.000,0.000,0
2026-01-31 03:59:22,99974,-4298.000,429.000,7172.000,2.000,1.000,5.000,0.000,0.000,0
2026-01-31 03:59:22,100014,-4298.000,431.000,7175.000,-6.000,4.000,4.000,0.000,0.000,0
2026-01-31 03:59:22,100054,-4308.000,429.000,7174.000,5.000,3.000,5.000,0.000,0.000,0
2026-01-31 03:59:22,100094,-4302.000,428.000,7174.000,-9.000,2.000,2.000,0.000,0.000,0
2026-01-31 03:59:22,100134,-4304.000,429.000,7170.000,4.000,5.000,7.000,0.000,0.000,0
2026-01-31 03:59:22,100174,-4298.000,429.000,7175.000,-4.000,-1.000,4.000,0.000,0.000,0
2026-01-31 03:59:22,100214,-4303.000,431.000,7177.000,-4.000,5.000,6.000,0.000,0.000,0
2026-01-31 03:59:22,100254,-4299.000,430.000,7172.000,-3.000,-3.000,4.000,0.000,0.000,0
2026-01-31 03:59:22,100294,-4300.000,431.000,7175.000,-5.000,-1.000,5.000,0.000,0.000,0
2026-01-31 03:59:22,100334,-4303.000,423.000,7179.000,5.000,4.000,10.000,0.000,0.000,0
2026-01-31 03:59:22,100374,-4305.000,427.000,7177.000,-4.000,-2.000,4.000,0.000,0.000,0
2026-01-31 03:59:22,100414,-4306.000,427.000,7174.000,6.000,3.000,10.000,0.000,0.000,0
2026-01-31 03:59:22,100454,-4304.000,433.000,7181.000,-3.000,1.000,4.000,0.000,0.000,0
2026-01-31 03:59:22,100494,-4300.000,431.000,7173.000,0.000,1.000,4.000,0.000,0.000,0
2026-01-31 03:59:22,100534,-4298.000,429.000,7172.000,-1.000,1.000,6.000,0.000,0.000,0
2026-01-31 03:59:22,100574,-4303.000,428.000,7176.000,-2.000,2.000,5.000,0.000,0.000,0
2026-01-31 03:59:22,100614,-4301.000,431.000,7172.000,-3.000,1.000,8.000,0.000,0.000,0
2026-01-31 03:59:22,100654,-4303.000,431.000,7177.000,2.000,3.000,7.000,0.000,0.000,0
2026-01-31 03:59:22,100694,-4306.000,426.000,7170.000,0.000,-1.000,10.000,0.000,0.000,0
2026-01-31 03:59:22,100734,-4300.000,433.000,7171.000,0.000,0.000,8.000,0.000,0.000,0
2026-01-31 03:59:22,100774,-4304.000,426.000,7177.000,0.000,1.000,5.000,0.000,0.000,0
2026-01-31 03:59:22,100814,-4306.000,432.000,7179.000,-5.000,-2.000,4.000,0.000,0.000,0
2026-01-31 03:59:22,100854,-4301.000,433.000,7187.000,2.000,4.000,8.000,0.000,0.000,0
2026-01-31 03:59:22,100894,-4309.000,429.000,7171.000,1.000,3.000,5.000,0.000,0.000,0
2026-01-31 03:59:22,100934,-4304.000,432.000,7174.000,-5.000,0.000,6.000,0.000,0.000,0
2026-01-31 03:59:23,100974,-4304.000,426.000,7181.000,-4.000,-1.000,5.000,0.000,0.000,0
2026-01-31 03:59:23,101014,-4304.000,433.000,7171.000,-3.000,2.000,5.000,0.000,0.000,0
2026-01-31 03:59:23,101054,-4301.000,433.000,7180.000,-2.000,3.000,3.000,0.000,0.000,0
2026-01-31 03:59:23,101094,-4298.000,428.000,7180.000,3.000,-1.000,7.000,0.000,0.000,0
2026-01-31 03:59:23,101134,-4295.000,433.000,7181.000,-2.000,-3.000,7.000,0.000,0.000,0
2026-01-31 03:59:23,101174,-4303.000,424.000,7172.000,-1.000,-1.000,9.000,0.000,0.000,0
2026-01-31 03:59:23,101214,-4301.000,430.000,7180.000,-2.000,-1.000,8.000,0.000,0.000,0
2026-01-31 03:59:23,101254,-4302.000,429.000,7177.000,4.000,4.000,7.000,0.000,0.000,0
2026-01-31 03:59:23,101294,-4301.000,430.000,7176.000,0.000,1.000,7.000,0.000,0.000,0
2026-01-31 03:59:23,101334,-4302.000,432.000,7180.000,-2.000,0.000,8.000,0.000,0.000,0
2026-01-31 03:59:23,101374,-4300.000,427.000,7176.000,1.000,3.000,10.000,0.000,0.000,0
2026-01-31 03:59:23,101414,-4305.000,425.000,7183.000,2.000,4.000,7.000,0.000,0.000,0
2026-01-31 03:59:23,101454,-4301.000,437.000,7175.000,1.000,1.000,6.000,0.000,0.000,0
2026-01-31 03:59:23,101494,-4303.000,428.000,7179.000,-1.000,3.000,6.000,0.000,0.000,0
2026-01-31 03:59:23,101534,-4301.000,429.000,7171.000,-7.000,-1.000,3.000,0.000,0.000,0
2026-01-31 03:59:23,101574,-4298.000,429.000,7175.000,4.000,4.000,6.000,0.000,0.000,0
2026-01-31 03:59:23,101614,-4304.000,430.000,7182.000,-3.000,3.000,4.000,0.000,0.000,0
2026-01-31 03:59:23,101654,-4301.000,433.000,7167.000,0.000,-3.000,8.000,0.000,0.000,0
2026-01-31 03:59:23,101694,-4306.000,429.000,7182.000,2.000,3.000,5.000,0.000,0.000,0
2026-01-31 03:59:23,101734,-4300.000,430.000,7176.000,-6.000,-1.000,7.000,0.000,0.000,0
2026-01-31 03:59:23,101774,-4306.000,432.000,7179.000,0.000,6.000,7.000,0.000,0.000,0
2026-01-31 03:59:23,101814,-4303.000,430.000,7182.000,-2.000,3.000,5.000,0.000,0.000,0
2026-01-31 03:59:23,101854,-4301.000,429.000,7179.000,1.000,4.000,6.000,0.000,0.000,0
2026-01-31 03:59:23,101894,-4305.000,433.000,7178.000,-3.000,2.000,3.000,0.000,0.000,0
2026-01-31 03:59:23,101934,-4307.000,426.000,7174.000,1.000,-1.000,8.000,0.000,0.000,0
2026-01-31 03:59:24,101974,-4302.000,434.000,7177.000,-3.000,-2.000,7.000,0.000,0.000,0
2026-01-31 03:59:24,102014,-4306.000,426.000,7173.000,7.000,1.000,10.000,0.000,0.000,0
2026-01-31 03:59:24,102054,-4303.000,436.000,7172.000,-5.000,-4.000,7.000,0.000,0.000,0
2026-01-31 03:59:24,102094,-4309.000,430.000,7182.000,8.000,2.000,10.000,0.000,0.000,0
2026-01-31 03:59:24,102134,-4306.000,433.000,7178.000,-3.000,-5.000,6.000,0.000,0.000,0
2026-01-31 03:59:24,102174,-4299.000,430.000,7178.000,6.000,2.000,11.000,0.000,0.000,0
2026-01-31 03:59:24,102214,-4307.000,434.000,7180.000,-3.000,2.000,6.000,0.000,0.000,0
2026-01-31 03:59:24,102254,-4311.000,427.000,7175.000,-1.000,-2.000,7.000,0.000,0.000,0
2026-01-31 03:59:24,102294,-4306.000,431.000,7170.000,-1.000,3.000,6.000,0.000,0.000,0
2026-01-31 03:59:24,102334,-4310.000,427.000,7173.000,-3.000,0.000,5.000,0.000,0.000,0
2026-01-31 03:59:24,102374,-4305.000,422.000,7168.000,2.000,2.000,6.000,0.000,0.000,0
2026-01-31 03:59:24,102414,-4302.000,427.000,7169.000,-4.000,2.000,4.000,0.000,0.000,0
2026-01-31 03:59:24,102454,-4304.000,427.000,7166.000,0.000,1.000,6.000,0.000,0.000,0
2026-01-31 03:59:24,102494,-4311.000,430.000,7172.000,-1.000,4.000,4.000,0.000,0.000,0
2026-01-31 03:59:24,102534,-4303.000,427.000,7172.000,1.000,3.000,5.000,0.000,0.000,0
2026-01-31 03:59:24,102574,-4305.000,431.000,7167.000,-4.000,2.000,6.000,0.000,0.000,0
2026-01-31 03:59:24,102614,-4307.000,425.000,7175.000,0.000,2.000,8.000,0.000,0.000,0
2026-01-31 03:59:24,102654,-4308.000,426.000,7170.000,0.000,4.000,5.000,0.000,0.000,0
2026-01-31 03:59:24,102694,-4303.000,428.000,7166.000,-2.000,-2.000,7.000,0.000,0.000,0
2026-01-31 03:59:24,102734,-4306.000,429.000,7170.000,3.000,2.000,10.000,0.000,0.000,0
2026-01-31 03:59:24,102774,-4308.000,431.000,7172.000,-4.000,3.000,4.000,0.000,0.000,0
2026-01-31 03:59:24,102814,-4304.000,432.000,7162.000,-2.000,-1.000,6.000,0.000,0.000,0
2026-01-31 03:59:24,102854,-4306.000,433.000,7175.000,-5.000,4.000,2.000,0.000,0.000,0
2026-01-31 03:59:24,102894,-4308.000,434.000,7167.000,1.000,1.000,8.000,0.000,0.000,0
2026-01-31 03:59:24,102934,-4306.000,433.000,7164.000,-3.000,3.000,3.000,0.000,0.000,0
2026-01-31 03:59:25,102974,-4308.000,428.000,7164.000,1.000,3.000,8.000,0.000,0.000,0
2026-01-31 03:59:25,103014,-4305.000,432.000,7173.000,-3.000,-2.000,5.000,0.000,0.000,0
2026-01-31 03:59:25,103054,-4306.000,431.000,7163.000,3.000,5.000,5.000,0.000,0.000,0
2026-01-31 03:59:25,103094,-4306.000,428.000,7167.000,1.000,-1.000,6.000,0.000,0.000,0
2026-01-31 03:59:25,103134,-4309.000,430.000,7165.000,-2.000,-2.000,8.000,0.000,0.000,0
2026-01-31 03:59:25,103174,-4307.000,430.000,7170.000,2.000,4.000,6.000,0.000,0.000,0
2026-01-31 03:59:25,103214,-4311.000,431.000,7170.000,-4.000,-1.000,6.000,0.000,0.000,0
2026-01-31 03:59:25,103259,-4305.000,433.000,7165.000,-4.000,1.000,3.000,0.000,0.000,0
2026-01-31 03:59:25,103294,-4310.000,428.000,7169.000,-2.000,5.000,5.000,0.000,0.000,0
2026-01-31 03:59:25,103334,-4305.000,428.000,7173.000,3.000,2.000,6.000,0.000,0.000,0
2026-01-31 03:59:25,103374,-4312.000,429.000,7168.000,-1.000,2.000,4.000,0.000,0.000,0
2026-01-31 03:59:25,103414,-4307.000,428.000,7173.000,1.000,1.000,9.000,0.000,0.000,0
2026-01-31 03:59:25,103454,-4307.000,429.000,7176.000,-5.000,3.000,5.000,0.000,0.000,0
2026-01-31 03:59:25,103494,-4306.000,436.000,7173.000,-1.000,2.000,4.000,0.000,0.000,0
2026-01-31 03:59:25,103534,-4308.000,433.000,7173.000,-2.000,1.000,4.000,0.000,0.000,0
2026-01-31 03:59:25,103574,-4310.000,433.000,7171.000,-1.000,-2.000,7.000,0.000,0.000,0
2026-01-31 03:59:25,103614,-4304.000,433.000,7167.000,1.000,1.000,6.000,0.000,0.000,0
2026-01-31 03:59:25,103654,-4308.000,428.000,7171.000,0.000,2.000,5.000,0.000,0.000,0
2026-01-31 03:59:25,103694,-4304.000,434.000,7173.000,-1.000,3.000,4.000,0.000,0.000,0
2026-01-31 03:59:25,103734,-4311.000,435.000,7165.000,-1.000,3.000,5.000,0.000,0.000,0
2026-01-31 03:59:25,103774,-4309.000,430.000,7174.000,2.000,2.000,6.000,0.000,0.000,0
2026-01-31 03:59:25,103814,-4311.000,430.000,7169.000,-4.000,1.000,4.000,0.000,0.000,0
2026-01-31 03:59:25,103854,-4308.000,429.000,7163.000,0.000,0.000,5.000,0.000,0.000,0
2026-01-31 03:59:25,103894,-4304.000,434.000,7172.000,0.000,2.000,5.000,0.000,0.000,0
2026-01-31 03:59:25,103934,-4310.000,429.000,7172.000,1.000,3.000,7.000,0.000,0.000,0
2026-01-31 03:59:26,103974,-4306.000,431.000,7170.000,-1.000,3.000,7.000,0.000,0.000,0
2026-01-31 03:59:26,104014,-4312.000,429.000,7173.000,1.000,-1.000,5.000,0.000,0.000,0
2026-01-31 03:59:26,104054,-4304.000,433.000,7170.000,-1.000,1.000,5.000,0.000,0.000,0
2026-01-31 03:59:26,104094,-4305.000,428.000,7163.000,1.000,4.000,3.000,0.000,0.000,0
2026-01-31 03:59:26,104134,-4305.000,434.000,7166.000,-4.000,-1.000,3.000,0.000,0.000,0
2026-01-31 03:59:26,104174,-4307.000,438.000,7169.000,2.000,3.000,7.000,0.000,0.000,0
2026-01-31 03:59:26,104214,-4310.000,433.000,7170.000,-2.000,-1.000,5.000,0.000,0.000,0
2026-01-31 03:59:26,104254,-4309.000,432.000,7169.000,-3.000,1.000,5.000,0.000,0.000,0
2026-01-31 03:59:26,104294,-4304.000,434.000,7167.000,1.000,2.000,6.000,0.000,0.000,0
2026-01-31 03:59:26,104334,-4313.000,435.000,7166.000,-2.000,-1.000,5.000,0.000,0.000,0
2026-01-31 03:59:26,104374,-4310.000,427.000,7166.000,1.000,-2.000,6.000,0.000,0.000,0
2026-01-31 03:59:26,104414,-4315.000,434.000,7168.000,0.000,0.000,4.000,0.000,0.000,0
2026-01-31 03:59:26,104454,-4310.000,433.000,7168.000,0.000,-1.000,7.000,0.000,0.000,0
2026-01-31 03:59:26,104494,-4310.000,433.000,7168.000,-2.000,5.000,5.000,0.000,0.000,0
2026-01-31 03:59:26,104534,-4305.000,430.000,7172.000,2.000,1.000,7.000,0.000,0.000,0
2026-01-31 03:59:26,104574,-4307.000,437.000,7172.000,-4.000,5.000,6.000,0.000,0.000,0
2026-01-31 03:59:26,104614,-4309.000,434.000,7170.000,-3.000,4.000,5.000,0.000,0.000,0
2026-01-31 03:59:26,104654,-4306.000,428.000,7170.000,-1.000,2.000,5.000,0.000,0.000,0
2026-01-31 03:59:26,104694,-4311.000,426.000,7177.000,-2.000,2.000,4.000,0.000,0.000,0
2026-01-31 03:59:26,104734,-4308.000,433.000,7176.000,-1.000,5.000,4.000,0.000,0.000,0
2026-01-31 03:59:26,104774,-4312.000,432.000,7172.000,-1.000,1.000,6.000,0.000,0.000,0
2026-01-31 03:59:26,104814,-4308.000,436.000,7171.000,1.000,5.000,8.000,0.000,0.000,0
2026-01-31 03:59:26,104854,-4310.000,432.000,7168.000,-2.000,1.000,4.000,0.000,0.000,0
2026-01-31 03:59:26,104894,-4309.000,430.000,7180.000,-1.000,6.000,6.000,0.000,0.000,0
2026-01-31 03:59:26,104934,-4308.000,437.000,7173.000,-1.000,0.000,9.000,0.000,0.000,0
2026-01-31 03:59:27,104974,-4310.000,431.000,7165.000,0.000,-2.000,6.000,0.000,0.000,0
2026-01-31 03:59:27,105014,-4311.000,435.000,7168.000,1.000,3.000,6.000,0.000,0.000,0
2026-01-31 03:59:27,105054,-4306.000,437.000,7166.000,0.000,1.000,8.000,0.000,0.000,0
2026-01-31 03:59:27,105094,-4308.000,432.000,7169.000,0.000,0.000,5.000,0.000,0.000,0
2026-01-31 03:59:27,105134,-4311.000,430.000,7171.000,-1.000,4.000,5.000,0.000,0.000,0
2026-01-31 03:59:27,105174,-4310.000,438.000,7175.000,-3.000,4.000,5.000,0.000,0.000,0
2026-01-31 03:59:27,105214,-4312.000,434.000,7175.000,-1.000,3.000,5.000,0.000,0.000,0
2026-01-31 03:59:27,105254,-4309.000,436.000,7170.000,-3.000,5.000,3.000,0.000,0.000,0
2026-01-31 03:59:27,105295,-4314.000,432.000,7166.000,-2.000,3.000,5.000,0.000,0.000,0
2026-01-31 03:59:27,105334,-4308.000,431.000,7173.000,-2.000,3.000,5.000,0.000,0.000,0
2026-01-31 03:59:27,105377,-4313.000,436.000,7169.000,-6.000,5.000,3.000,0.000,0.000,0
2026-01-31 03:59:27,105414,-4311.000,430.000,7169.000,-5.000,2.000,6.000,0.000,0.000,0
2026-01-31 03:59:27,105454,-4307.000,432.000,7161.000,-1.000,-2.000,5.000,0.000,0.000,0
2026-01-31 03:59:27,105494,-4305.000,432.000,7172.000,0.000,-1.000,5.000,0.000,0.000,0
2026-01-31 03:59:27,105534,-4316.000,432.000,7172.000,-1.000,1.000,8.000,0.000,0.000,0
2026-01-31 03:59:27,105574,-4310.000,435.000,7172.000,-2.000,-1.000,10.000,0.000,0.000,0
2026-01-31 03:59:27,105614,-4314.000,432.000,7162.000,3.000,-1.000,11.000,0.000,0.000,0
2026-01-31 03:59:27,105654,-4309.000,430.000,7164.000,1.000,-3.000,10.000,0.000,0.000,0
2026-01-31 03:59:27,105694,-4309.000,435.000,7165.000,0.000,-1.000,9.000,0.000,0.000,0
2026-01-31 03:59:27,105734,-4309.000,435.000,7175.000,-1.000,0.000,8.000,0.000,0.000,0
2026-01-31 03:59:27,105774,-4312.000,439.000,7170.000,-2.000,-1.000,8.000,0.000,0.000,0
2026-01-31 03:59:27,105814,-4309.000,433.000,7173.000,3.000,1.000,7.000,0.000,0.000,0
2026-01-31 03:59:27,105854,-4311.000,434.000,7164.000,-4.000,0.000,5.000,0.000,0.000,0
2026-01-31 03:59:27,105894,-4313.000,433.000,7173.000,2.000,2.000,7.000,0.000,0.000,0
2026-01-31 03:59:27,105934,-4314.000,430.000,7173.000,-1.000,6.000,5.000,0.000,0.000,0
2026-01-31 03:59:28,105974,-4316.000,427.000,7165.000,7.000,-5.000,12.000,0.000,0.000,0
2026-01-31 03:59:28,106014,-4309.000,433.000,7170.000,0.000,-3.000,9.000,0.000,0.000,0
2026-01-31 03:59:28,106054,-4314.000,433.000,7162.000,2.000,0.000,10.000,0.000,0.000,0
2026-01-31 03:59:28,106094,-4308.000,434.000,7168.000,1.000,-1.000,6.000,0.000,0.000,0
2026-01-31 03:59:28,106134,-4314.000,438.000,7169.000,0.000,-3.000,7.000,0.000,0.000,0
2026-01-31 03:59:28,106174,-4310.000,436.000,7169.000,-1.000,1.000,7.000,0.000,0.000,0
2026-01-31 03:59:28,106214,-4307.000,434.000,7177.000,1.000,-4.000,10.000,0.000,0.000,0
2026-01-31 03:59:28,106254,-4309.000,433.000,7173.000,4.000,-4.000,10.000,0.000,0.000,0
2026-01-31 03:59:28,106294,-4303.000,434.000,7169.000,0.000,0.000,10.000,0.000,0.000,0
2026-01-31 03:59:28,106334,-4311.000,433.000,7169.000,0.000,2.000,4.000,0.000,0.000,0
2026-01-31 03:59:28,106374,-4312.000,432.000,7168.000,0.000,2.000,7.000,0.000,0.000,0
2026-01-31 03:59:28,106414,-4308.000,433.000,7167.000,-2.000,-3.000,6.000,0.000,0.000,0
2026-01-31 03:59:28,106454,-4312.000,439.000,7165.000,-1.000,1.000,5.000,0.000,0.000,0
2026-01-31 03:59:28,106494,-4309.000,435.000,7169.000,-2.000,1.000,5.000,0.000,0.000,0
2026-01-31 03:59:28,106534,-4309.000,436.000,7178.000,-1.000,1.000,4.000,0.000,0.000,0
2026-01-31 03:59:28,106574,-4306.000,434.000,7171.000,2.000,2.000,8.000,0.000,0.000,0
2026-01-31 03:59:28,106614,-4315.000,435.000,7174.000,-3.000,2.000,7.000,0.000,0.000,0
2026-01-31 03:59:28,106654,-4315.000,433.000,7165.000,-3.000,1.000,7.000,0.000,0.000,0
2026-01-31 03:59:28,106694,-4316.000,436.000,7173.000,4.000,0.000,8.000,0.000,0.000,0
2026-01-31 03:59:28,106734,-4316.000,431.000,7171.000,-1.000,-1.000,6.000,0.000,0.000,0
2026-01-31 03:59:28,106774,-4317.000,433.000,7166.000,1.000,4.000,5.000,0.000,0.000,0
2026-01-31 03:59:28,106814,-4310.000,435.000,7169.000,2.000,0.000,7.000,0.000,0.000,0
2026-01-31 03:59:28,106854,-4311.000,436.000,7170.000,-1.000,0.000,4.000,0.000,0.000,0
2026-01-31 03:59:28,106894,-4322.000,432.000,7163.000,-2.000,3.000,4.000,0.000,0.000,0
2026-01-31 03:59:28,106934,-4309.000,431.000,7166.000,-3.000,4.000,4.000,0.000,0.000,0
2026-01-31 03:59:29,106974,-4314.000,431.000,7165.000,0.000,-1.000,6.000,0.000,0.000,0
2026-01-31 03:59:29,107014,-4312.000,435.000,7169.000,1.000,4.000,5.000,0.000,0.000,0
2026-01-31 03:59:29,107054,-4317.000,435.000,7171.000,1.000,1.000,5.000,0.000,0.000,0
2026-01-31 03:59:29,107094,-4311.000,431.000,7162.000,2.000,3.000,9.000,0.000,0.000,0
2026-01-31 03:59:29,107134,-4315.000,434.000,7164.000,-4.000,-2.000,6.000,0.000,0.000,0
2026-01-31 03:59:29,107174,-4317.000,439.000,7168.000,-1.000,3.000,4.000,0.000,0.000,0
2026-01-31 03:59:29,107214,-4310.000,435.000,7166.000,-1.000,5.000,3.000,0.000,0.000,0
2026-01-31 03:59:29,107254,-4311.000,431.000,7166.000,1.000,3.000,9.000,0.000,0.000,0
2026-01-31 03:59:29,107294,-4306.000,438.000,7164.000,1.000,1.000,9.000,0.000,0.000,0
2026-01-31 03:59:29,107334,-4317.000,434.000,7166.000,2.000,5.000,6.000,0.000,0.000,0
2026-01-31 03:59:29,107377,-4310.000,436.000,7161.000,-2.000,2.000,8.000,0.000,0.000,0
2026-01-31 03:59:29,107414,-4311.000,437.000,7164.000,1.000,3.000,9.000,0.000,0.000,0
2026-01-31 03:59:29,107454,-4316.000,436.000,7165.000,-1.000,-5.000,8.000,0.000,0.000,0
2026-01-31 03:59:29,107494,-4315.000,434.000,7172.000,-1.000,0.000,8.000,0.000,0.000,0
2026-01-31 03:59:29,107534,-4308.000,436.000,7164.000,-1.000,-1.000,7.000,0.000,0.000,0
2026-01-31 03:59:29,107574,-4313.000,435.000,7168.000,1.000,2.000,7.000,0.000,0.000,0
2026-01-31 03:59:29,107614,-4313.000,435.000,7156.000,-2.000,4.000,6.000,0.000,0.000,0
2026-01-31 03:59:29,107654,-4313.000,439.000,7169.000,0.000,0.000,7.000,0.000,0.000,0
2026-01-31 03:59:29,107694,-4319.000,436.000,7168.000,0.000,1.000,6.000,0.000,0.000,0
2026-01-31 03:59:29,107734,-4314.000,435.000,7162.000,-1.000,3.000,5.000,0.000,0.000,0
2026-01-31 03:59:29,107774,-4316.000,427.000,7169.000,-3.000,0.000,5.000,0.000,0.000,0
2026-01-31 03:59:29,107814,-4317.000,439.000,7167.000,-7.000,-1.000,4.000,0.000,0.000,0
2026-01-31 03:59:29,107854,-4317.000,436.000,7163.000,1.000,3.000,7.000,0.000,0.000,0
2026-01-31 03:59:29,107894,-4314.000,433.000,7162.000,1.000,3.000,5.000,0.000,0.000,0
2026-01-31 03:59:29,107934,-4314.000,429.000,7161.000,0.000,1.000,6.000,0.000,0.000,0
2026-01-31 03:59:30,107974,-4311.000,435.000,7167.000,0.000,0.000,7.000,0.000,0.000,0
2026-01-31 03:59:30,108014,-4315.000,434.000,7170.000,0.000,3.000,7.000,0.000,0.000,0
2026-01-31 03:59:30,108054,-4313.000,434.000,7162.000,0.000,2.000,4.000,0.000,0.000,0
2026-01-31 03:59:30,108094,-4315.000,441.000,7162.000,-4.000,0.000,4.000,0.000,0.000,0
2026-01-31 03:59:30,108134,-4312.000,439.000,7167.000,-1.000,1.000,7.000,0.000,0.000,0
2026-01-31 03:59:30,108174,-4310.000,436.000,7165.000,0.000,2.000,6.000,0.000,0.000,0
2026-01-31 03:59:30,108214,-4314.000,437.000,7167.000,1.000,2.000,4.000,0.000,0.000,0
2026-01-31 03:59:30,108254,-4313.000,438.000,7166.000,1.000,4.000,5.000,0.000,0.000,0
2026-01-31 03:59:30,108294,-4312.000,439.000,7165.000,-1.000,0.000,5.000,0.000,0.000,0
2026-01-31 03:59:30,108334,-4311.000,436.000,7168.000,-1.000,2.000,5.000,0.000,0.000,0
2026-01-31 03:59:30,108374,-4318.000,439.000,7171.000,1.000,4.000,4.000,0.000,0.000,0
2026-01-31 03:59:30,108414,-4319.000,436.000,7161.000,-1.000,-2.000,3.000,0.000,0.000,0
2026-01-31 03:59:30,108454,-4310.000,440.000,7167.000,-1.000,5.000,3.000,0.000,0.000,0
2026-01-31 03:59:30,108494,-4315.000,434.000,7162.000,-4.000,1.000,3.000,0.000,0.000,0
2026-01-31 03:59:30,108534,-4315.000,440.000,7164.000,0.000,0.000,7.000,0.000,0.000,0
2026-01-31 03:59:30,108574,-4314.000,439.000,7166.000,-3.000,5.000,3.000,0.000,0.000,0
2026-01-31 03:59:30,108614,-4316.000,439.000,7163.000,-4.000,1.000,4.000,0.000,0.000,0
2026-01-31 03:59:30,108654,-4320.000,439.000,7164.000,-2.000,2.000,4.000,0.000,0.000,0
2026-01-31 03:59:30,108694,-4313.000,443.000,7169.000,-1.000,0.000,4.000,0.000,0.000,0
2026-01-31 03:59:30,108734,-4319.000,436.000,7162.000,-3.000,2.000,2.000,0.000,0.000,0
2026-01-31 03:59:30,108774,-4313.000,436.000,7163.000,3.000,0.000,8.000,0.000,0.000,0
2026-01-31 03:59:30,108814,-4316.000,437.000,7170.000,0.000,-3.000,6.000,0.000,0.000,0
2026-01-31 03:59:30,108854,-4317.000,440.000,7167.000,-3.000,2.000,3.000,0.000,0.000,0
2026-01-31 03:59:30,108894,-4315.000,437.000,7168.000,2.000,2.000,5.000,0.000,0.000,0
2026-01-31 03:59:30,108934,-4312.000,436.000,7165.000,-1.000,2.000,6.000,0.000,0.000,0
2026-01-31 03:59:31,108974,-4314.000,438.000,7165.000,-1.000,1.000,4.000,0.000,0.000,0
2026-01-31 03:59:31,109014,-4319.000,432.000,7171.000,2.000,1.000,5.000,0.000,0.000,0
2026-01-31 03:59:31,109054,-4318.000,440.000,7165.000,-3.000,3.000,5.000,0.000,0.000,0
2026-01-31 03:59:31,109094,-4312.000,436.000,7163.000,2.000,3.000,5.000,0.000,0.000,0
2026-01-31 03:59:31,109134,-4317.000,433.000,7169.000,-7.000,-3.000,3.000,0.000,0.000,0
2026-01-31 03:59:31,109174,-4318.000,437.000,7165.000,2.000,3.000,5.000,0.000,0.000,0
2026-01-31 03:59:31,109214,-4318.000,439.000,7168.000,-1.000,0.000,6.000,0.000,0.000,0
2026-01-31 03:59:31,109259,-4315.000,437.000,7159.000,3.000,5.000,5.000,0.000,0.000,0
2026-01-31 03:59:31,109294,-4316.000,429.000,7170.000,0.000,4.000,4.000,0.000,0.000,0
2026-01-31 03:59:31,109334,-4311.000,437.000,7161.000,-2.000,-1.000,4.000,0.000,0.000,0
2026-01-31 03:59:31,109374,-4321.000,435.000,7172.000,0.000,6.000,3.000,0.000,0.000,0
2026-01-31 03:59:31,109414,-4321.000,440.000,7165.000,-4.000,-2.000,5.000,0.000,0.000,0
2026-01-31 03:59:31,109454,-4315.000,437.000,7164.000,0.000,-1.000,4.000,0.000,0.000,0
2026-01-31 03:59:31,109494,-4316.000,438.000,7163.000,-5.000,2.000,4.000,0.000,0.000,0
2026-01-31 03:59:31,109534,-4321.000,436.000,7161.000,2.000,-1.000,4.000,0.000,0.000,0
2026-01-31 03:59:31,109574,-4316.000,438.000,7166.000,-1.000,3.000,4.000,0.000,0.000,0
2026-01-31 03:59:31,109614,-4313.000,439.000,7162.000,3.000,2.000,9.000,0.000,0.000,0
2026-01-31 03:59:31,109654,-4316.000,435.000,7164.000,-3.000,0.000,5.000,0.000,0.000,0
2026-01-31 03:59:31,109694,-4321.000,435.000,7160.000,3.000,0.000,7.000,0.000,0.000,0
2026-01-31 03:59:31,109734,-4320.000,438.000,7166.000,-4.000,-3.000,7.000,0.000,0.000,0
2026-01-31 03:59:31,109774,-4314.000,446.000,7153.000,1.000,4.000,6.000,0.000,0.000,0
2026-01-31 03:59:31,109814,-4316.000,436.000,7168.000,0.000,1.000,5.000,0.000,0.000,0
2026-01-31 03:59:31,109854,-4318.000,437.000,7156.000,-9.000,1.000,2.000,0.000,0.000,0
2026-01-31 03:59:31,109894,-4321.000,431.000,7172.000,8.000,7.000,6.000,0.000,0.000,0
2026-01-31 03:59:31,109934,-4317.000,440.000,7158.000,-12.000,-4.000,1.000,0.000,0.000,0
2026-01-31 03:59:32,109974,-4317.000,444.000,7159.000,11.000,3.000,8.000,0.000,0.000,0
2026-01-31 03:59:32,110014,-4316.000,425.000,7163.000,-6.000,-2.000,7.000,0.000,0.000,0
2026-01-31 03:59:32,110054,-4318.000,439.000,7160.000,2.000,0.000,9.000,0.000,0.000,0
2026-01-31 03:59:32,110094,-4316.000,443.000,7159.000,4.000,2.000,8.000,0.000,0.000,0
2026-01-31 03:59:32,110134,-4318.000,436.000,7164.000,4.000,-1.000,7.000,0.000,0.000,0
2026-01-31 03:59:32,110174,-4322.000,434.000,7164.000,0.000,3.000,6.000,0.000,0.000,0
2026-01-31 03:59:32,110214,-4317.000,438.000,7162.000,-3.000,1.000,9.000,0.000,0.000,0
2026-01-31 03:59:32,110254,-4317.000,434.000,7167.000,8.000,0.000,11.000,0.000,0.000,0
2026-01-31 03:59:32,110294,-4315.000,439.000,7154.000,-8.000,0.000,7.000,0.000,0.000,0
2026-01-31 03:59:32,110334,-4323.000,439.000,7160.000,7.000,4.000,7.000,0.000,0.000,0
2026-01-31 03:59:32,110374,-4318.000,432.000,7159.000,-8.000,-3.000,4.000,0.000,0.000,0
2026-01-31 03:59:32,110414,-4322.000,435.000,7160.000,-1.000,1.000,5.000,0.000,0.000,0
2026-01-31 03:59:32,110454,-4323.000,437.000,7162.000,3.000,1.000,8.000,0.000,0.000,0
2026-01-31 03:59:32,110494,-4319.000,438.000,7164.000,3.000,4.000,6.000,0.000,0.000,0
2026-01-31 03:59:32,110534,-4319.000,435.000,7167.000,-3.000,3.000,5.000,0.000,0.000,0
2026-01-31 03:59:32,110574,-4318.000,436.000,7156.000,-5.000,2.000,5.000,0.000,0.000,0
2026-01-31 03:59:32,110614,-4319.000,434.000,7156.000,2.000,3.000,6.000,0.000,0.000,0
2026-01-31 03:59:32,110654,-4317.000,439.000,7162.000,-2.000,1.000,5.000,0.000,0.000,0
2026-01-31 03:59:32,110694,-4322.000,434.000,7153.000,-1.000,2.000,5.000,0.000,0.000,0
2026-01-31 03:59:32,110734,-4320.000,436.000,7164.000,1.000,5.000,3.000,0.000,0.000,0
2026-01-31 03:59:32,110774,-4324.000,437.000,7159.000,-1.000,0.000,5.000,0.000,0.000,0
2026-01-31 03:59:32,110814,-4322.000,439.000,7157.000,-1.000,2.000,5.000,0.000,0.000,0
2026-01-31 03:59:32,110854,-4320.000,442.000,7168.000,1.000,1.000,7.000,0.000,0.000,0
2026-01-31 03:59:32,110894,-4326.000,440.000,7164.000,0.000,-2.000,6.000,0.000,0.000,0
2026-01-31 03:59:32,110934,-4317.000,441.000,7160.000,-2.000,4.000,4.000,0.000,0.000,0
2026-01-31 03:59:33,110974,-4326.000,436.000,7161.000,-3.000,0.000,6.000,0.000,0.000,0
2026-01-31 03:59:33,111014,-4318.000,440.000,7161.000,-1.000,2.000,6.000,0.000,0.000,0
2026-01-31 03:59:33,111054,-4319.000,440.000,7156.000,-1.000,3.000,4.000,0.000,0.000,0
2026-01-31 03:59:33,111094,-4327.000,442.000,7157.000,-3.000,-1.000,8.000,0.000,0.000,0
2026-01-31 03:59:33,111134,-4323.000,434.000,7167.000,-3.000,2.000,6.000,0.000,0.000,0
2026-01-31 03:59:33,111174,-4324.000,436.000,7160.000,2.000,-1.000,6.000,0.000,0.000,0
2026-01-31 03:59:33,111214,-4318.000,442.000,7155.000,0.000,0.000,5.000,0.000,0.000,0
2026-01-31 03:59:33,111257,-4324.000,434.000,7162.000,-3.000,0.000,3.000,0.000,0.000,0
2026-01-31 03:59:33,111296,-4318.000,438.000,7164.000,3.000,2.000,7.000,0.000,0.000,0
2026-01-31 03:59:33,111334,-4320.000,443.000,7163.000,-1.000,2.000,6.000,0.000,0.000,0
2026-01-31 03:59:33,111377,-4324.000,443.000,7166.000,-1.000,5.000,5.000,0.000,0.000,0
2026-01-31 03:59:33,111414,-4324.000,440.000,7166.000,-4.000,1.000,3.000,0.000,0.000,0
2026-01-31 03:59:33,111454,-4318.000,444.000,7158.000,-1.000,1.000,5.000,0.000,0.000,0
2026-01-31 03:59:33,111494,-4327.000,436.000,7166.000,-1.000,0.000,5.000,0.000,0.000,0
2026-01-31 03:59:33,111534,-4316.000,439.000,7159.000,-6.000,-1.000,4.000,0.000,0.000,0
2026-01-31 03:59:33,111574,-4319.000,435.000,7165.000,8.000,6.000,8.000,0.000,0.000,0
2026-01-31 03:59:33,111614,-4317.000,445.000,7158.000,-9.000,-2.000,3.000,0.000,0.000,0
2026-01-31 03:59:33,111654,-4322.000,434.000,7168.000,6.000,8.000,6.000,0.000,0.000,0
2026-01-31 03:59:33,111694,-4328.000,446.000,7160.000,-9.000,-4.000,1.000,0.000,0.000,0
2026-01-31 03:59:33,111734,-4323.000,440.000,7173.000,5.000,5.000,6.000,0.000,0.000,0
2026-01-31 03:59:33,111774,-4321.000,440.000,7163.000,-4.000,0.000,5.000,0.000,0.000,0
2026-01-31 03:59:33,111814,-4322.000,445.000,7157.000,-9.000,-2.000,3.000,0.000,0.000,0
2026-01-31 03:59:33,111854,-4323.000,439.000,7159.000,14.000,5.000,12.000,0.000,0.000,0
2026-01-31 03:59:33,111894,-4320.000,437.000,7161.000,-12.000,-3.000,4.000,0.000,0.000,0
2026-01-31 03:59:33,111934,-4328.000,443.000,7158.000,6.000,3.000,7.000,0.000,0.000,0
2026-01-31 03:59:34,111974,-4323.000,442.000,7164.000,-2.000,0.000,4.000,0.000,0.000,0
2026-01-31 03:59:34,112014,-4317.000,441.000,7156.000,8.000,1.000,9.000,0.000,0.000,0
2026-01-31 03:59:34,112054,-4319.000,439.000,7162.000,-2.000,1.000,4.000,0.000,0.000,0
2026-01-31 03:59:34,112094,-4326.000,446.000,7145.000,-10.000,-2.000,3.000,0.000,0.000,0
2026-01-31 03:59:34,112134,-4321.000,440.000,7167.000,12.000,4.000,11.000,0.000,0.000,0
2026-01-31 03:59:34,112174,-4322.000,440.000,7158.000,-12.000,-3.000,1.000,0.000,0.000,0
2026-01-31 03:59:34,112214,-4327.000,434.000,7165.000,15.000,5.000,12.000,0.000,0.000,0
2026-01-31 03:59:34,112254,-4326.000,438.000,7160.000,-6.000,-5.000,5.000,0.000,0.000,0
2026-01-31 03:59:34,112294,-4325.000,441.000,7155.000,3.000,0.000,9.000,0.000,0.000,0
2026-01-31 03:59:34,112334,-4324.000,440.000,7167.000,6.000,-1.000,10.000,0.000,0.000,0
2026-01-31 03:59:34,112374,-4320.000,441.000,7155.000,-7.000,-3.000,4.000,0.000,0.000,0
2026-01-31 03:59:34,112414,-4316.000,442.000,7161.000,2.000,-1.000,5.000,0.000,0.000,0
2026-01-31 03:59:34,112454,-4322.000,441.000,7148.000,-10.000,-2.000,2.000,0.000,0.000,0
2026-01-31 03:59:34,112494,-4316.000,439.000,7160.000,8.000,6.000,7.000,0.000,0.000,0
2026-01-31 03:59:34,112534,-4329.000,445.000,7157.000,-10.000,-3.000,2.000,0.000,0.000,0
2026-01-31 03:59:34,112574,-4323.000,439.000,7156.000,6.000,2.000,11.000,0.000,0.000,0
2026-01-31 03:59:34,112614,-4323.000,437.000,7156.000,-1.000,-3.000,5.000,0.000,0.000,0
2026-01-31 03:59:34,112654,-4324.000,440.000,7155.000,-5.000,-1.000,5.000,0.000,0.000,0
2026-01-31 03:59:34,112694,-4328.000,435.000,7159.000,8.000,2.000,9.000,0.000,0.000,0
2026-01-31 03:59:34,112734,-4321.000,440.000,7152.000,-5.000,-2.000,4.000,0.000,0.000,0
2026-01-31 03:59:34,112774,-4318.000,439.000,7155.000,-1.000,3.000,4.000,0.000,0.000,0
2026-01-31 03:59:34,112814,-4329.000,439.000,7155.000,0.000,0.000,10.000,0.000,0.000,0
2026-01-31 03:59:34,112854,-4322.000,439.000,7159.000,4.000,1.000,7.000,0.000,0.000,0
2026-01-31 03:59:34,112894,-4324.000,438.000,7161.000,0.000,1.000,7.000,0.000,0.000,0
2026-01-31 03:59:34,112934,-4323.000,442.000,7163.000,1.000,2.000,6.000,0.000,0.000,0
2026-01-31 03:59:35,112974,-4326.000,443.000,7164.000,-6.000,0.000,4.000,0.000,0.000,0
2026-01-31 03:59:35,113014,-4321.000,445.000,7160.000,4.000,3.000,8.000,0.000,0.000,0
2026-01-31 03:59:35,113054,-4327.000,441.000,7152.000,1.000,-1.000,5.000,0.000,0.000,0
2026-01-31 03:59:35,113094,-4327.000,439.000,7165.000,-4.000,1.000,4.000,0.000,0.000,0
2026-01-31 03:59:35,113134,-4321.000,438.000,7158.000,0.000,0.000,7.000,0.000,0.000,0
2026-01-31 03:59:35,113174,-4323.000,442.000,7156.000,-2.000,0.000,4.000,0.000,0.000,0
2026-01-31 03:59:35,113214,-4324.000,434.000,7158.000,2.000,5.000,5.000,0.000,0.000,0
2026-01-31 03:59:35,113254,-4324.000,445.000,7158.000,1.000,0.000,7.000,0.000,0.000,0
2026-01-31 03:59:35,113294,-4325.000,446.000,7160.000,-1.000,3.000,4.000,0.000,0.000,0
2026-01-31 03:59:35,113334,-4324.000,440.000,7151.000,-2.000,1.000,4.000,0.000,0.000,0
2026-01-31 03:59:35,113377,-4330.000,440.000,7153.000,2.000,1.000,5.000,0.000,0.000,0
2026-01-31 03:59:35,113416,-4328.000,440.000,7154.000,-3.000,-1.000,8.000,0.000,0.000,0
2026-01-31 03:59:35,113454,-4327.000,444.000,7161.000,1.000,4.000,5.000,0.000,0.000,0
2026-01-31 03:59:35,113494,-4325.000,440.000,7158.000,0.000,1.000,6.000,0.000,0.000,0
2026-01-31 03:59:35,113534,-4321.000,442.000,7160.000,1.000,-1.000,7.000,0.000,0.000,0
2026-01-31 03:59:35,113574,-4325.000,441.000,7154.000,-1.000,0.000,8.000,0.000,0.000,0
2026-01-31 03:59:35,113614,-4325.000,447.000,7158.000,-3.000,-5.000,6.000,0.000,0.000,0
2026-01-31 03:59:35,113654,-4327.000,442.000,7161.000,7.000,2.000,7.000,0.000,0.000,0
2026-01-31 03:59:35,113694,-4324.000,443.000,7154.000,-4.000,-3.000,6.000,0.000,0.000,0
2026-01-31 03:59:35,113734,-4330.000,451.000,7161.000,6.000,4.000,7.000,0.000,0.000,0
2026-01-31 03:59:35,113774,-4322.000,454.000,7136.000,-11.000,-4.000,2.000,0.000,0.000,0
2026-01-31 03:59:35,113814,-4327.000,444.000,7165.000,8.000,1.000,8.000,0.000,0.000,0
2026-01-31 03:59:35,113854,-4320.000,449.000,7160.000,-6.000,0.000,5.000,0.000,0.000,0
2026-01-31 03:59:35,113894,-4325.000,444.000,7156.000,6.000,2.000,8.000,0.000,0.000,0
2026-01-31 03:59:35,113934,-4328.000,447.000,7154.000,-21.000,-9.000,0.000,0.000,0.000,0
2026-01-31 03:59:36,113974,-4325.000,447.000,7164.000,12.000,5.000,10.000,0.000,0.000,0
2026-01-31 03:59:36,114014,-4323.000,446.000,7154.000,0.000,-1.000,4.000,0.000,0.000,0
2026-01-31 03:59:36,114054,-4333.000,451.000,7156.000,2.000,-1.000,9.000,0.000,0.000,0
2026-01-31 03:59:36,114094,-4319.000,444.000,7160.000,1.000,-2.000,9.000,0.000,0.000,0
2026-01-31 03:59:36,114134,-4322.000,443.000,7155.000,-13.000,-2.000,5.000,0.000,0.000,0
2026-01-31 03:59:36,114174,-4324.000,442.000,7158.000,9.000,3.000,9.000,0.000,0.000,0
2026-01-31 03:59:36,114214,-4324.000,446.000,7156.000,-4.000,-2.000,4.000,0.000,0.000,0
2026-01-31 03:59:36,114254,-4328.000,447.000,7157.000,10.000,4.000,8.000,0.000,0.000,0
2026-01-31 03:59:36,114294,-4326.000,443.000,7157.000,-5.000,-3.000,5.000,0.000,0.000,0
2026-01-31 03:59:36,114334,-4326.000,442.000,7160.000,0.000,1.000,7.000,0.000,0.000,0
2026-01-31 03:59:36,114374,-4326.000,444.000,7149.000,2.000,0.000,4.000,0.000,0.000,0
2026-01-31 03:59:36,114414,-4329.000,447.000,7163.000,4.000,1.000,8.000,0.000,0.000,0
2026-01-31 03:59:36,114454,-4332.000,447.000,7153.000,-7.000,-1.000,3.000,0.000,0.000,0
2026-01-31 03:59:36,114494,-4325.000,440.000,7159.000,4.000,-2.000,8.000,0.000,0.000,0
2026-01-31 03:59:36,114534,-4325.000,442.000,7152.000,-7.000,-2.000,2.000,0.000,0.000,0
2026-01-31 03:59:36,114574,-4321.000,446.000,7149.000,11.000,3.000,9.000,0.000,0.000,0
2026-01-31 03:59:36,114614,-4327.000,442.000,7161.000,5.000,-3.000,9.000,0.000,0.000,0
2026-01-31 03:59:36,114654,-4330.000,444.000,7151.000,-3.000,-1.000,6.000,0.000,0.000,0
2026-01-31 03:59:36,114694,-4323.000,442.000,7158.000,-4.000,-4.000,6.000,0.000,0.000,0
2026-01-31 03:59:36,114734,-4327.000,441.000,7149.000,1.000,1.000,4.000,0.000,0.000,0
2026-01-31 03:59:36,114774,-4329.000,438.000,7154.000,13.000,1.000,13.000,0.000,0.000,0
2026-01-31 03:59:36,114814,-4328.000,452.000,7162.000,-8.000,-2.000,1.000,0.000,0.000,0
2026-01-31 03:59:36,114854,-4330.000,452.000,7156.000,3.000,1.000,7.000,0.000,0.000,0
2026-01-31 03:59:36,114894,-4328.000,444.000,7161.000,-1.000,-1.000,7.000,0.000,0.000,0
2026-01-31 03:59:36,114934,-4322.000,454.000,7147.000,1.000,1.000,6.000,0.000,0.000,0
2026-01-31 03:59:37,114974,-4324.000,441.000,7161.000,11.000,3.000,9.000,0.000,0.000,0
2026-01-31 03:59:37,115014,-4332.000,446.000,7147.000,-9.000,-8.000,4.000,0.000,0.000,0
2026-01-31 03:59:37,115054,-4328.000,448.000,7153.000,1.000,0.000,9.000,0.000,0.000,0
2026-01-31 03:59:37,115094,-4332.000,450.000,7152.000,5.000,-2.000,8.000,0.000,0.000,0
2026-01-31 03:59:37,115134,-4330.000,448.000,7158.000,13.000,3.000,12.000,0.000,0.000,0
2026-01-31 03:59:37,115174,-4330.000,444.000,7156.000,-1.000,-2.000,7.000,0.000,0.000,0
2026-01-31 03:59:37,115214,-4329.000,448.000,7152.000,-3.000,-4.000,7.000,0.000,0.000,0
2026-01-31 03:59:37,115254,-4330.000,445.000,7151.000,-3.000,-2.000,9.000,0.000,0.000,0
2026-01-31 03:59:37,115295,-4332.000,453.000,7151.000,3.000,1.000,8.000,0.000,0.000,0
2026-01-31 03:59:37,115334,-4328.000,449.000,7160.000,10.000,-3.000,14.000,0.000,0.000,1
2026-01-31 03:59:37,115376,-4323.000,448.000,7151.000,-2.000,-5.000,7.000,0.000,0.000,1
2026-01-31 03:59:37,115414,-4328.000,449.000,7155.000,0.000,-2.000,12.000,0.000,0.000,1
2026-01-31 03:59:37,115454,-4328.000,450.000,7151.000,-2.000,-2.000,8.000,0.000,0.000,1
2026-01-31 03:59:37,115494,-4324.000,449.000,7153.000,14.000,2.000,12.000,0.000,0.000,1
2026-01-31 03:59:37,115534,-4332.000,445.000,7154.000,1.000,0.000,7.000,0.000,0.000,1
2026-01-31 03:59:37,115574,-4331.000,446.000,7154.000,-3.000,-1.000,7.000,0.000,0.000,1
2026-01-31 03:59:37,115614,-4326.000,446.000,7152.000,0.000,-5.000,10.000,0.000,0.000,1
2026-01-31 03:59:37,115654,-4330.000,444.000,7147.000,1.000,-3.000,5.000,0.000,0.000,1
2026-01-31 03:59:37,115694,-4336.000,449.000,7149.000,11.000,4.000,12.000,0.000,0.000,1
2026-01-31 03:59:37,115734,-4331.000,448.000,7159.000,1.000,-3.000,7.000,0.000,0.000,1
2026-01-31 03:59:37,115774,-4329.000,446.000,7161.000,2.000,-2.000,8.000,0.000,0.000,1
2026-01-31 03:59:37,115814,-4327.000,453.000,7155.000,-1.000,-6.000,5.000,0.000,0.000,1
2026-01-31 03:59:37,115854,-4327.000,446.000,7155.000,6.000,1.000,9.000,0.000,0.000,1
2026-01-31 03:59:37,115894,-4326.000,450.000,7159.000,8.000,1.000,8.000,0.000,0.000,1
2026-01-31 03:59:37,115934,-4331.000,447.000,7151.000,1.000,0.000,8.000,0.000,0.000,1
2026-01-31 03:59:38,115974,-4329.000,449.000,7152.000,-3.000,-3.000,9.000,0.000,0.000,1
2026-01-31 03:59:38,116014,-4330.000,445.000,7153.000,3.000,-1.000,6.000,0.000,0.000,1
2026-01-31 03:59:38,116054,-4333.000,449.000,7153.000,5.000,-1.000,10.000,0.000,0.000,1
2026-01-31 03:59:38,116094,-4337.000,445.000,7147.000,6.000,1.000,9.000,0.000,0.000,1
2026-01-31 03:59:38,116134,-4332.000,447.000,7157.000,1.000,-1.000,5.000,0.000,0.000,1
2026-01-31 03:59:38,116174,-4332.000,443.000,7149.000,-1.000,0.000,7.000,0.000,0.000,1
2026-01-31 03:59:38,116214,-4327.000,448.000,7151.000,4.000,2.000,7.000,0.000,0.000,1
2026-01-31 03:59:38,116254,-4332.000,448.000,7156.000,4.000,-1.000,9.000,0.000,0.000,1
2026-01-31 03:59:38,116294,-4333.000,452.000,7155.000,1.000,-1.000,6.000,0.000,0.000,1
2026-01-31 03:59:38,116334,-4338.000,447.000,7151.000,-2.000,-3.000,4.000,0.000,0.000,1
2026-01-31 03:59:38,116374,-4333.000,450.000,7153.000,-2.000,-1.000,6.000,0.000,0.000,0
2026-01-31 03:59:38,116414,-4328.000,449.000,7145.000,3.000,1.000,6.000,0.000,0.000,0
2026-01-31 03:59:38,116454,-4336.000,452.000,7156.000,3.000,2.000,6.000,0.000,0.000,0
2026-01-31 03:59:38,116494,-4331.000,450.000,7148.000,2.000,2.000,5.000,0.000,0.000,0
2026-01-31 03:59:38,116534,-4335.000,451.000,7148.000,3.000,0.000,8.000,0.000,0.000,0
2026-01-31 03:59:38,116574,-4332.000,450.000,7147.000,-3.000,0.000,6.000,0.000,0.000,0
2026-01-31 03:59:38,116614,-4331.000,444.000,7155.000,2.000,1.000,7.000,0.000,0.000,0
2026-01-31 03:59:38,116654,-4326.000,452.000,7152.000,-4.000,-6.000,6.000,0.000,0.000,0
2026-01-31 03:59:38,116694,-4337.000,447.000,7147.000,3.000,2.000,6.000,0.000,0.000,0
2026-01-31 03:59:38,116734,-4332.000,450.000,7154.000,3.000,0.000,7.000,0.000,0.000,0
2026-01-31 03:59:38,116774,-4338.000,451.000,7155.000,0.000,0.000,5.000,0.000,0.000,0
2026-01-31 03:59:38,116814,-4334.000,451.000,7147.000,0.000,1.000,5.000,0.000,0.000,0
2026-01-31 03:59:38,116854,-4332.000,449.000,7157.000,-5.000,-4.000,5.000,0.000,0.000,0
2026-01-31 03:59:38,116894,-4342.000,450.000,7148.000,1.000,0.000,7.000,0.000,0.000,0
2026-01-31 03:59:38,116934,-4332.000,450.000,7148.000,-1.000,0.000,7.000,0.000,0.000,0
2026-01-31 03:59:39,116974,-4336.000,445.000,7159.000,5.000,3.000,6.000,0.000,0.000,0
2026-01-31 03:59:39,117014,-4338.000,446.000,7153.000,-3.000,-1.000,6.000,0.000,0.000,0
2026-01-31 03:59:39,117054,-4335.000,448.000,7154.000,-2.000,0.000,5.000,0.000,0.000,0
2026-01-31 03:59:39,117094,-4332.000,450.000,7153.000,6.000,2.000,8.000,0.000,0.000,0
2026-01-31 03:59:39,117134,-4337.000,452.000,7149.000,1.000,1.000,6.000,0.000,0.000,0
2026-01-31 03:59:39,117174,-4336.000,442.000,7154.000,0.000,1.000,4.000,0.000,0.000,0
2026-01-31 03:59:39,117214,-4334.000,450.000,7151.000,-1.000,0.000,7.000,0.000,0.000,0
2026-01-31 03:59:39,117257,-4332.000,453.000,7151.000,-3.000,2.000,6.000,0.000,0.000,0
2026-01-31 03:59:39,117297,-4338.000,450.000,7157.000,3.000,3.000,4.000,0.000,0.000,0
2026-01-31 03:59:39,117334,-4337.000,449.000,7154.000,4.000,1.000,6.000,0.000,0.000,0
2026-01-31 03:59:39,117374,-4334.000,447.000,7148.000,-12.000,-3.000,5.000,0.000,0.000,0
2026-01-31 03:59:39,117414,-4338.000,450.000,7151.000,6.000,3.000,5.000,0.000,0.000,0
2026-01-31 03:59:39,117454,-4337.000,453.000,7154.000,-1.000,-4.000,4.000,0.000,0.000,0
2026-01-31 03:59:39,117494,-4335.000,446.000,7156.000,5.000,0.000,10.000,0.000,0.000,0
2026-01-31 03:59:39,117534,-4334.000,448.000,7153.000,7.000,1.000,6.000,0.000,0.000,0
2026-01-31 03:59:39,117574,-4333.000,446.000,7153.000,-8.000,-3.000,6.000,0.000,0.000,0
2026-01-31 03:59:39,117614,-4331.000,449.000,7151.000,4.000,1.000,6.000,0.000,0.000,0
2026-01-31 03:59:39,117654,-4330.000,453.000,7153.000,-1.000,0.000,5.000,0.000,0.000,0
2026-01-31 03:59:39,117694,-4337.000,453.000,7149.000,6.000,-1.000,8.000,0.000,0.000,0
2026-01-31 03:59:39,117734,-4332.000,452.000,7154.000,1.000,-1.000,5.000,0.000,0.000,0
2026-01-31 03:59:39,117774,-4339.000,456.000,7144.000,-11.000,-8.000,4.000,0.000,0.000,0
2026-01-31 03:59:39,117814,-4337.000,446.000,7161.000,6.000,3.000,7.000,0.000,0.000,0
2026-01-31 03:59:39,117854,-4340.000,448.000,7150.000,3.000,-1.000,6.000,0.000,0.000,0
2026-01-31 03:59:39,117894,-4334.000,449.000,7157.000,1.000,-1.000,6.000,0.000,0.000,0
2026-01-31 03:59:39,117934,-4334.000,453.000,7156.000,4.000,0.000,7.000,0.000,0.000,0
2026-01-31 03:59:40,117974,-4332.000,454.000,7147.000,-10.000,-3.000,3.000,0.000,0.000,0
2026-01-31 03:59:40,118014,-4336.000,450.000,7154.000,6.000,3.000,6.000,0.000,0.000,0
2026-01-31 03:59:40,118054,-4333.000,453.000,7151.000,-1.000,1.000,5.000,0.000,0.000,0
2026-01-31 03:59:40,118094,-4336.000,455.000,7153.000,3.000,0.000,6.000,0.000,0.000,0
2026-01-31 03:59:40,118134,-4338.000,454.000,7146.000,-4.000,0.000,4.000,0.000,0.000,0
2026-01-31 03:59:40,118174,-4334.000,454.000,7149.000,-5.000,-5.000,3.000,0.000,0.000,0
2026-01-31 03:59:40,118214,-4341.000,446.000,7152.000,1.000,0.000,6.000,0.000,0.000,0
2026-01-31 03:59:40,118254,-4338.000,454.000,7146.000,0.000,1.000,7.000,0.000,0.000,0
2026-01-31 03:59:40,118294,-4341.000,452.000,7152.000,3.000,-3.000,5.000,0.000,0.000,0
2026-01-31 03:59:40,118334,-4330.000,455.000,7146.000,-4.000,1.000,4.000,0.000,0.000,0
2026-01-31 03:59:40,118374,-4331.000,453.000,7151.000,-1.000,1.000,7.000,0.000,0.000,0
2026-01-31 03:59:40,118414,-4335.000,452.000,7146.000,-6.000,-2.000,3.000,0.000,0.000,0
2026-01-31 03:59:40,118454,-4331.000,454.000,7152.000,10.000,4.000,8.000,0.000,0.000,0
2026-01-31 03:59:40,118494,-4337.000,457.000,7155.000,-8.000,-4.000,4.000,0.000,0.000,0
2026-01-31 03:59:40,118534,-4328.000,453.000,7152.000,0.000,3.000,5.000,0.000,0.000,0
2026-01-31 03:59:40,118574,-4334.000,455.000,7148.000,-3.000,-2.000,7.000,0.000,0.000,0
2026-01-31 03:59:40,118614,-4334.000,453.000,7142.000,1.000,2.000,5.000,0.000,0.000,0
2026-01-31 03:59:40,118654,-4336.000,456.000,7158.000,8.000,3.000,9.000,0.000,0.000,0
2026-01-31 03:59:40,118694,-4340.000,452.000,7150.000,-3.000,-2.000,3.000,0.000,0.000,0
2026-01-31 03:59:40,118734,-4334.000,454.000,7156.000,1.000,0.000,7.000,0.000,0.000,0
2026-01-31 03:59:40,118774,-4335.000,459.000,7146.000,-5.000,-3.000,7.000,0.000,0.000,0
2026-01-31 03:59:40,118814,-4333.000,453.000,7149.000,15.000,2.000,8.000,0.000,0.000,0
2026-01-31 03:59:40,118854,-4335.000,454.000,7144.000,-2.000,-1.000,7.000,0.000,0.000,0
2026-01-31 03:59:40,118894,-4341.000,447.000,7151.000,2.000,-4.000,8.000,0.000,0.000,0
2026-01-31 03:59:40,118934,-4331.000,456.000,7147.000,-8.000,-3.000,7.000,0.000,0.000,0
2026-01-31 03:59:41,118974,-4333.000,453.000,7150.000,12.000,3.000,11.000,0.000,0.000,0
2026-01-31 03:59:41,119014,-4335.000,450.000,7145.000,-2.000,-3.000,4.000,0.000,0.000,0
2026-01-31 03:59:41,119054,-4337.000,448.000,7152.000,9.000,2.000,12.000,0.000,0.000,0
2026-01-31 03:59:41,119094,-4338.000,450.000,7155.000,-7.000,-6.000,7.000,0.000,0.000,0
2026-01-31 03:59:41,119134,-4332.000,452.000,7145.000,-1.000,-4.000,8.000,0.000,0.000,0
2026-01-31 03:59:41,119174,-4335.000,452.000,7155.000,10.000,0.000,12.000,0.000,0.000,0
2026-01-31 03:59:41,119214,-4341.000,456.000,7151.000,-3.000,-6.000,6.000,0.000,0.000,0
2026-01-31 03:59:41,119257,-4331.000,451.000,7137.000,-12.000,-2.000,-1.000,0.000,0.000,0
2026-01-31 03:59:41,119296,-4334.000,454.000,7152.000,8.000,6.000,8.000,0.000,0.000,0
2026-01-31 03:59:41,119334,-4336.000,452.000,7155.000,2.000,3.000,8.000,0.000,0.000,0
2026-01-31 03:59:41,119374,-4338.000,454.000,7144.000,3.000,2.000,7.000,0.000,0.000,0
2026-01-31 03:59:41,119414,-4339.000,453.000,7156.000,11.000,-1.000,10.000,0.000,0.000,0
2026-01-31 03:59:41,119454,-4334.000,459.000,7144.000,-10.000,-4.000,7.000,0.000,0.000,0
2026-01-31 03:59:41,119494,-4338.000,452.000,7150.000,0.000,3.000,3.000,0.000,0.000,0
2026-01-31 03:59:41,119534,-4339.000,455.000,7149.000,1.000,-4.000,8.000,0.000,0.000,0
2026-01-31 03:59:41,119574,-4338.000,451.000,7145.000,3.000,0.000,10.000,0.000,0.000,0
2026-01-31 03:59:41,119614,-4341.000,453.000,7143.000,2.000,-4.000,9.000,0.000,0.000,0
2026-01-31 03:59:41,119654,-4341.000,455.000,7154.000,2.000,-3.000,12.000,0.000,0.000,0
2026-01-31 03:59:41,119694,-4342.000,453.000,7139.000,-6.000,-4.000,5.000,0.000,0.000,0
2026-01-31 03:59:41,119734,-4337.000,449.000,7149.000,14.000,2.000,14.000,0.000,0.000,0
2026-01-31 03:59:41,119774,-4342.000,451.000,7147.000,-2.000,-5.000,8.000,0.000,0.000,0
2026-01-31 03:59:41,119814,-4336.000,456.000,7144.000,0.000,-4.000,6.000,0.000,0.000,0
2026-01-31 03:59:41,119854,-4337.000,452.000,7150.000,3.000,-4.000,9.000,0.000,0.000,0
2026-01-31 03:59:41,119894,-4342.000,458.000,7153.000,-3.000,-5.000,7.000,0.000,0.000,0
2026-01-31 03:59:41,119934,-4339.000,455.000,7153.000,14.000,4.000,10.000,0.000,0.000,0
2026-01-31 03:59:42,119974,-4343.000,450.000,7140.000,-5.000,-6.000,8.000,0.000,0.000,0
2026-01-31 03:59:42,120014,-4337.000,453.000,7152.000,3.000,-2.000,10.000,0.000,0.000,0
2026-01-31 03:59:42,120054,-4340.000,456.000,7151.000,-5.000,-4.000,9.000,0.000,0.000,0
2026-01-31 03:59:42,120094,-4342.000,455.000,7151.000,10.000,1.000,10.000,0.000,0.000,0
2026-01-31 03:59:42,120134,-4332.000,456.000,7149.000,-3.000,-5.000,6.000,0.000,0.000,0
2026-01-31 03:59:42,120174,-4342.000,455.000,7147.000,2.000,0.000,7.000,0.000,0.000,0
2026-01-31 03:59:42,120214,-4338.000,451.000,7152.000,-1.000,2.000,3.000,0.000,0.000,0
2026-01-31 03:59:42,120254,-4343.000,456.000,7139.000,-4.000,-2.000,4.000,0.000,0.000,0
2026-01-31 03:59:42,120294,-4340.000,454.000,7145.000,6.000,2.000,6.000,0.000,0.000,0
2026-01-31 03:59:42,120334,-4341.000,453.000,7146.000,-2.000,-4.000,6.000,0.000,0.000,0
2026-01-31 03:59:42,120374,-4342.000,456.000,7146.000,2.000,0.000,7.000,0.000,0.000,0
2026-01-31 03:59:42,120414,-4335.000,458.000,7147.000,-3.000,-1.000,5.000,0.000,0.000,0
2026-01-31 03:59:42,120454,-4340.000,455.000,7151.000,3.000,-1.000,9.000,0.000,0.000,0
2026-01-31 03:59:42,120494,-4341.000,458.000,7148.000,4.000,-1.000,6.000,0.000,0.000,0
2026-01-31 03:59:42,120534,-4337.000,452.000,7142.000,0.000,-7.000,10.000,0.000,0.000,0
2026-01-31 03:59:42,120574,-4342.000,454.000,7145.000,-3.000,-3.000,7.000,0.000,0.000,0
2026-01-31 03:59:42,120614,-4342.000,458.000,7145.000,2.000,-2.000,4.000,0.000,0.000,0
2026-01-31 03:59:42,120654,-4344.000,457.000,7158.000,1.000,0.000,4.000,0.000,0.000,0
2026-01-31 03:59:42,120694,-4346.000,460.000,7141.000,2.000,1.000,5.000,0.000,0.000,0
2026-01-31 03:59:42,120734,-4344.000,455.000,7154.000,3.000,2.000,4.000,0.000,0.000,0
2026-01-31 03:59:42,120774,-4341.000,453.000,7147.000,1.000,3.000,7.000,0.000,0.000,0
2026-01-31 03:59:42,120814,-4336.000,454.000,7145.000,2.000,1.000,2.000,0.000,0.000,0
2026-01-31 03:59:42,120854,-4344.000,454.000,7142.000,-2.000,-3.000,7.000,0.000,0.000,0
2026-01-31 03:59:42,120894,-4338.000,457.000,7148.000,5.000,1.000,5.000,0.000,0.000,0
2026-01-31 03:59:42,120934,-4342.000,457.000,7143.000,-3.000,0.000,5.000,0.000,0.000,0
2026-01-31 03:59:43,120974,-4340.000,458.000,7150.000,1.000,-1.000,6.000,0.000,0.000,0
2026-01-31 03:59:43,121014,-4336.000,454.000,7147.000,-1.000,-1.000,5.000,0.000,0.000,0
2026-01-31 03:59:43,121054,-4345.000,448.000,7147.000,3.000,2.000,7.000,0.000,0.000,0
2026-01-31 03:59:43,121094,-4341.000,457.000,7155.000,-1.000,-1.000,7.000,0.000,0.000,0
2026-01-31 03:59:43,121134,-4337.000,455.000,7153.000,1.000,-2.000,6.000,0.000,0.000,0
2026-01-31 03:59:43,121174,-4342.000,456.000,7152.000,-3.000,2.000,4.000,0.000,0.000,0
2026-01-31 03:59:43,121214,-4336.000,461.000,7146.000,5.000,1.000,7.000,0.000,0.000,0
2026-01-31 03:59:43,121257,-4338.000,456.000,7148.000,-2.000,1.000,2.000,0.000,0.000,0
2026-01-31 03:59:43,121297,-4342.000,461.000,7150.000,-1.000,3.000,4.000,0.000,0.000,0
2026-01-31 03:59:43,121334,-4344.000,455.000,7144.000,-1.000,-3.000,7.000,0.000,0.000,0
2026-01-31 03:59:43,121374,-4339.000,464.000,7154.000,-2.000,-1.000,6.000,0.000,0.000,0
2026-01-31 03:59:43,121414,-4343.000,454.000,7145.000,0.000,4.000,2.000,0.000,0.000,0
2026-01-31 03:59:43,121454,-4341.000,458.000,7149.000,2.000,-3.000,6.000,0.000,0.000,0
2026-01-31 03:59:43,121494,-4342.000,460.000,7153.000,-4.000,-3.000,8.000,0.000,0.000,0
2026-01-31 03:59:43,121534,-4343.000,455.000,7153.000,8.000,-1.000,7.000,0.000,0.000,0
2026-01-31 03:59:43,121574,-4342.000,458.000,7148.000,1.000,-5.000,10.000,0.000,0.000,0
2026-01-31 03:59:43,121614,-4343.000,459.000,7145.000,0.000,-3.000,9.000,0.000,0.000,0
2026-01-31 03:59:43,121654,-4336.000,451.000,7152.000,3.000,-4.000,11.000,0.000,0.000,0
2026-01-31 03:59:43,121694,-4339.000,455.000,7143.000,-6.000,-6.000,7.000,0.000,0.000,0
2026-01-31 03:59:43,121734,-4343.000,457.000,7159.000,9.000,1.000,9.000,0.000,0.000,0
2026-01-31 03:59:43,121774,-4341.000,458.000,7147.000,-3.000,-4.000,8.000,0.000,0.000,0
2026-01-31 03:59:43,121814,-4340.000,459.000,7142.000,3.000,-3.000,11.000,0.000,0.000,0
2026-01-31 03:59:43,121854,-4337.000,457.000,7144.000,4.000,0.000,8.000,0.000,0.000,0
2026-01-31 03:59:43,121894,-4342.000,456.000,7145.000,1.000,-2.000,9.000,0.000,0.000,0
2026-01-31 03:59:43,121934,-4338.000,455.000,7140.000,3.000,-1.000,8.000,0.000,0.000,0
2026-01-31 03:59:44,121974,-4342.000,459.000,7137.000,2.000,-3.000,7.000,0.000,0.000,0
2026-01-31 03:59:44,122014,-4340.000,452.000,7162.000,-24.000,-8.000,4.000,0.000,0.000,0
2026-01-31 03:59:44,122054,-4344.000,477.000,7130.000,2.000,2.000,5.000,0.000,0.000,0
2026-01-31 03:59:44,122094,-4344.000,451.000,7162.000,21.000,5.000,11.000,0.000,0.000,0
2026-01-31 03:59:44,122134,-4340.000,460.000,7132.000,-30.000,-11.000,3.000,0.000,0.000,0
2026-01-31 03:59:44,122174,-4347.000,449.000,7156.000,49.000,12.000,20.000,0.000,0.000,0
2026-01-31 03:59:44,122214,-4345.000,451.000,7154.000,-33.000,-17.000,3.000,0.000,0.000,0
2026-01-31 03:59:44,122254,-4337.000,462.000,7129.000,11.000,3.000,9.000,0.000,0.000,0
2026-01-31 03:59:44,122294,-4346.000,458.000,7146.000,-27.000,-12.000,2.000,0.000,0.000,0
2026-01-31 03:59:44,122334,-4343.000,463.000,7135.000,6.000,-1.000,9.000,0.000,0.000,0
2026-01-31 03:59:44,122374,-4342.000,454.000,7158.000,8.000,-1.000,11.000,0.000,0.000,0
2026-01-31 03:59:44,122414,-4341.000,460.000,7129.000,-24.000,-9.000,4.000,0.000,0.000,0
2026-01-31 03:59:44,122454,-4342.000,452.000,7150.000,38.000,11.000,16.000,0.000,0.000,0
2026-01-31 03:59:44,122494,-4342.000,457.000,7151.000,-15.000,-11.000,5.000,0.000,0.000,0
2026-01-31 03:59:44,122534,-4338.000,456.000,7135.000,6.000,2.000,10.000,0.000,0.000,0
2026-01-31 03:59:44,122574,-4346.000,458.000,7158.000,-1.000,-2.000,6.000,0.000,0.000,0
2026-01-31 03:59:44,122614,-4342.000,461.000,7136.000,-16.000,-7.000,3.000,0.000,0.000,0
2026-01-31 03:59:44,122654,-4340.000,459.000,7153.000,20.000,0.000,6.000,0.000,0.000,0
2026-01-31 03:59:44,122694,-4344.000,456.000,7140.000,-2.000,-5.000,8.000,0.000,0.000,0
2026-01-31 03:59:44,122734,-4344.000,453.000,7150.000,5.000,2.000,7.000,0.000,0.000,0
2026-01-31 03:59:44,122774,-4345.000,463.000,7141.000,-9.000,-8.000,6.000,0.000,0.000,0
2026-01-31 03:59:44,122814,-4341.000,460.000,7148.000,14.000,5.000,8.000,0.000,0.000,0
2026-01-31 03:59:44,122854,-4345.000,453.000,7143.000,-5.000,-5.000,5.000,0.000,0.000,0
2026-01-31 03:59:44,122894,-4342.000,459.000,7147.000,3.000,0.000,5.000,0.000,0.000,0
2026-01-31 03:59:44,122934,-4342.000,462.000,7144.000,-8.000,-4.000,4.000,0.000,0.000,0
2026-01-31 03:59:45,122974,-4342.000,462.000,7139.000,-2.000,-1.000,5.000,0.000,0.000,0
2026-01-31 03:59:45,123014,-4341.000,464.000,7150.000,6.000,1.000,6.000,0.000,0.000,0
2026-01-31 03:59:45,123054,-4344.000,458.000,7141.000,1.000,-1.000,7.000,0.000,0.000,0
2026-01-31 03:59:45,123094,-4342.000,459.000,7145.000,0.000,-5.000,7.000,0.000,0.000,0
2026-01-31 03:59:45,123134,-4345.000,459.000,7148.000,-7.000,-2.000,7.000,0.000,0.000,0
2026-01-31 03:59:45,123174,-4345.000,461.000,7146.000,5.000,2.000,9.000,0.000,0.000,0
2026-01-31 03:59:45,123214,-4345.000,463.000,7144.000,0.000,-1.000,4.000,0.000,0.000,0
2026-01-31 03:59:45,123254,-4345.000,458.000,7147.000,3.000,4.000,6.000,0.000,0.000,0
2026-01-31 03:59:45,123295,-4347.000,456.000,7147.000,-5.000,0.000,0.000,0.000,0.000,0
2026-01-31 03:59:45,123334,-4346.000,458.000,7144.000,-1.000,0.000,5.000,0.000,0.000,0
2026-01-31 03:59:45,123374,-4342.000,461.000,7147.000,1.000,-1.000,8.000,0.000,0.000,0
2026-01-31 03:59:45,123414,-4347.000,456.000,7147.000,-1.000,1.000,4.000,0.000,0.000,0
2026-01-31 03:59:45,123454,-4342.000,462.000,7139.000,-1.000,3.000,5.000,0.000,0.000,0
2026-01-31 03:59:45,123494,-4343.000,460.000,7136.000,-6.000,-4.000,3.000,0.000,0.000,0
2026-01-31 03:59:45,123534,-4348.000,464.000,7143.000,1.000,4.000,3.000,0.000,0.000,0
2026-01-31 03:59:45,123574,-4341.000,461.000,7141.000,0.000,-3.000,5.000,0.000,0.000,0
2026-01-31 03:59:45,123614,-4344.000,460.000,7139.000,-1.000,0.000,3.000,0.000,0.000,0
2026-01-31 03:59:45,123654,-4342.000,462.000,7141.000,1.000,0.000,6.000,0.000,0.000,0
2026-01-31 03:59:45,123694,-4339.000,466.000,7139.000,-5.000,-3.000,8.000,0.000,0.000,0
2026-01-31 03:59:45,123734,-4343.000,454.000,7145.000,5.000,-2.000,6.000,0.000,0.000,0
2026-01-31 03:59:45,123774,-4345.000,457.000,7147.000,2.000,-1.000,7.000,0.000,0.000,0
2026-01-31 03:59:45,123814,-4348.000,468.000,7149.000,-1.000,-4.000,6.000,0.000,0.000,0
2026-01-31 03:59:45,123854,-4340.000,462.000,7144.000,-1.000,1.000,4.000,0.000,0.000,0
2026-01-31 03:59:45,123894,-4343.000,454.000,7147.000,1.000,-1.000,8.000,0.000,0.000,0
2026-01-31 03:59:45,123934,-4345.000,452.000,7141.000,3.000,-3.000,9.000,0.000,0.000,0
2026-01-31 03:59:46,123974,-4343.000,457.000,7144.000,3.000,-3.000,8.000,0.000,0.000,0
2026-01-31 03:59:46,124014,-4345.000,460.000,7143.000,1.000,-3.000,8.000,0.000,0.000,0
2026-01-31 03:59:46,124054,-4345.000,459.000,7148.000,-1.000,-3.000,5.000,0.000,0.000,0
2026-01-31 03:59:46,124094,-4348.000,459.000,7144.000,3.000,1.000,4.000,0.000,0.000,0
2026-01-31 03:59:46,124134,-4346.000,454.000,7141.000,-1.000,-5.000,8.000,0.000,0.000,0
2026-01-31 03:59:46,124174,-4344.000,464.000,7147.000,2.000,-2.000,5.000,0.000,0.000,0
2026-01-31 03:59:46,124214,-4347.000,461.000,7140.000,-1.000,-5.000,9.000,0.000,0.000,0
2026-01-31 03:59:46,124254,-4349.000,454.000,7135.000,3.000,1.000,6.000,0.000,0.000,0
2026-01-31 03:59:46,124294,-4345.000,456.000,7142.000,0.000,-1.000,3.000,0.000,0.000,0
2026-01-31 03:59:46,124334,-4349.000,464.000,7142.000,1.000,-3.000,8.000,0.000,0.000,0
2026-01-31 03:59:46,124374,-4346.000,457.000,7136.000,-2.000,3.000,4.000,0.000,0.000,0
2026-01-31 03:59:46,124414,-4347.000,458.000,7146.000,1.000,-2.000,7.000,0.000,0.000,0
2026-01-31 03:59:46,124454,-4345.000,462.000,7136.000,0.000,-2.000,7.000,0.000,0.000,0
2026-01-31 03:59:46,124494,-4344.000,454.000,7143.000,3.000,3.000,7.000,0.000,0.000,0
2026-01-31 03:59:46,124534,-4342.000,463.000,7141.000,-2.000,-4.000,6.000,0.000,0.000,0
2026-01-31 03:59:46,124574,-4345.000,459.000,7154.000,1.000,2.000,4.000,0.000,0.000,0
2026-01-31 03:59:46,124614,-4347.000,461.000,7152.000,-1.000,-1.000,5.000,0.000,0.000,0
2026-01-31 03:59:46,124654,-4352.000,464.000,7145.000,4.000,1.000,6.000,0.000,0.000,0
2026-01-31 03:59:46,124694,-4352.000,462.000,7142.000,1.000,-2.000,6.000,0.000,0.000,0
2026-01-31 03:59:46,124734,-4347.000,457.000,7140.000,0.000,-1.000,7.000,0.000,0.000,0
2026-01-31 03:59:46,124774,-4346.000,460.000,7143.000,3.000,-1.000,8.000,0.000,0.000,0
2026-01-31 03:59:46,124814,-4348.000,460.000,7142.000,-2.000,-1.000,1.000,0.000,0.000,0
2026-01-31 03:59:46,124854,-4349.000,458.000,7148.000,3.000,-2.000,9.000,0.000,0.000,0
2026-01-31 03:59:46,124894,-4346.000,456.000,7150.000,-1.000,-2.000,5.000,0.000,0.000,0
2026-01-31 03:59:46,124934,-4352.000,460.000,7142.000,3.000,-1.000,7.000,0.000,0.000,0
2026-01-31 03:59:47,124974,-4347.000,465.000,7143.000,-4.000,-3.000,6.000,0.000,0.000,0
2026-01-31 03:59:47,125014,-4344.000,460.000,7146.000,1.000,-1.000,8.000,0.000,0.000,0
2026-01-31 03:59:47,125054,-4353.000,458.000,7148.000,-1.000,-2.000,4.000,0.000,0.000,0
2026-01-31 03:59:47,125094,-4342.000,464.000,7149.000,0.000,0.000,6.000,0.000,0.000,0
2026-01-31 03:59:47,125134,-4352.000,458.000,7143.000,4.000,-2.000,4.000,0.000,0.000,0
2026-01-31 03:59:47,125174,-4348.000,460.000,7144.000,0.000,1.000,6.000,0.000,0.000,0
2026-01-31 03:59:47,125214,-4346.000,458.000,7143.000,0.000,0.000,8.000,0.000,0.000,0
2026-01-31 03:59:47,125257,-4349.000,455.000,7143.000,-1.000,2.000,8.000,0.000,0.000,0
2026-01-31 03:59:47,125296,-4347.000,463.000,7141.000,1.000,2.000,5.000,0.000,0.000,0
2026-01-31 03:59:47,125334,-4350.000,459.000,7135.000,1.000,3.000,5.000,0.000,0.000,0
2026-01-31 03:59:47,125377,-4349.000,465.000,7140.000,1.000,3.000,4.000,0.000,0.000,0
2026-01-31 03:59:47,125414,-4350.000,461.000,7143.000,2.000,-2.000,6.000,0.000,0.000,0
2026-01-31 03:59:47,125454,-4346.000,459.000,7142.000,3.000,1.000,7.000,0.000,0.000,0
2026-01-31 03:59:47,125494,-4342.000,459.000,7144.000,2.000,-1.000,8.000,0.000,0.000,0
2026-01-31 03:59:47,125534,-4349.000,458.000,7141.000,3.000,0.000,6.000,0.000,0.000,0
2026-01-31 03:59:47,125574,-4347.000,461.000,7137.000,2.000,-3.000,10.000,0.000,0.000,0
2026-01-31 03:59:47,125614,-4350.000,464.000,7143.000,1.000,-1.000,9.000,0.000,0.000,0
2026-01-31 03:59:47,125654,-4348.000,463.000,7145.000,5.000,-3.000,9.000,0.000,0.000,0
2026-01-31 03:59:47,125694,-4349.000,464.000,7141.000,2.000,-1.000,10.000,0.000,0.000,0
2026-01-31 03:59:47,125734,-4346.000,465.000,7138.000,0.000,-4.000,7.000,0.000,0.000,0
2026-01-31 03:59:47,125774,-4345.000,459.000,7138.000,1.000,-1.000,7.000,0.000,0.000,0
2026-01-31 03:59:47,125814,-4347.000,457.000,7142.000,5.000,-4.000,9.000,0.000,0.000,0
2026-01-31 03:59:47,125854,-4346.000,453.000,7140.000,1.000,-5.000,12.000,0.000,0.000,0
2026-01-31 03:59:47,125894,-4345.000,461.000,7141.000,3.000,-2.000,8.000,0.000,0.000,0
2026-01-31 03:59:47,125934,-4347.000,456.000,7139.000,0.000,-4.000,10.000,0.000,0.000,0
2026-01-31 03:59:48,125974,-4344.000,462.000,7141.000,2.000,-2.000,8.000,0.000,0.000,0
2026-01-31 03:59:48,126014,-4347.000,463.000,7139.000,3.000,1.000,8.000,0.000,0.000,0
2026-01-31 03:59:48,126054,-4347.000,465.000,7145.000,2.000,-5.000,9.000,0.000,0.000,0
2026-01-31 03:59:48,126094,-4348.000,461.000,7141.000,3.000,-1.000,9.000,0.000,0.000,0
2026-01-31 03:59:48,126134,-4349.000,466.000,7143.000,0.000,-4.000,7.000,0.000,0.000,0
2026-01-31 03:59:48,126174,-4348.000,463.000,7143.000,-3.000,-1.000,7.000,0.000,0.000,0
2026-01-31 03:59:48,126214,-4352.000,462.000,7141.000,2.000,1.000,5.000,0.000,0.000,0
2026-01-31 03:59:48,126254,-4346.000,457.000,7146.000,-1.000,0.000,6.000,0.000,0.000,0
2026-01-31 03:59:48,126294,-4351.000,460.000,7145.000,2.000,2.000,8.000,0.000,0.000,0
2026-01-31 03:59:48,126334,-4350.000,463.000,7139.000,-2.000,-4.000,5.000,0.000,0.000,0
2026-01-31 03:59:48,126374,-4348.000,462.000,7146.000,2.000,-1.000,7.000,0.000,0.000,0
2026-01-31 03:59:48,126414,-4352.000,464.000,7136.000,-3.000,-1.000,2.000,0.000,0.000,0
2026-01-31 03:59:48,126454,-4344.000,461.000,7143.000,3.000,-5.000,7.000,0.000,0.000,0
2026-01-31 03:59:48,126494,-4349.000,463.000,7141.000,-4.000,0.000,4.000,0.000,0.000,0
2026-01-31 03:59:48,126534,-4349.000,460.000,7134.000,3.000,0.000,4.000,0.000,0.000,0
2026-01-31 03:59:48,126574,-4346.000,464.000,7137.000,-2.000,-4.000,7.000,0.000,0.000,0
2026-01-31 03:59:48,126614,-4351.000,459.000,7137.000,2.000,-1.000,9.000,0.000,0.000,0
2026-01-31 03:59:48,126654,-4348.000,463.000,7147.000,2.000,-2.000,8.000,0.000,0.000,0
2026-01-31 03:59:48,126694,-4354.000,464.000,7141.000,0.000,-3.000,9.000,0.000,0.000,0
2026-01-31 03:59:48,126734,-4349.000,461.000,7144.000,4.000,-2.000,8.000,0.000,0.000,0
2026-01-31 03:59:48,126774,-4354.000,462.000,7139.000,-1.000,-2.000,7.000,0.000,0.000,0
2026-01-31 03:59:48,126814,-4355.000,462.000,7147.000,2.000,-4.000,13.000,0.000,0.000,0
2026-01-31 03:59:48,126854,-4346.000,462.000,7142.000,1.000,-5.000,7.000,0.000,0.000,0
2026-01-31 03:59:48,126894,-4353.000,463.000,7148.000,0.000,-1.000,8.000,0.000,0.000,0
2026-01-31 03:59:48,126934,-4343.000,460.000,7138.000,2.000,-4.000,6.000,0.000,0.000,0
2026-01-31 03:59:49,126974,-4347.000,461.000,7143.000,3.000,-1.000,8.000,0.000,0.000,0
2026-01-31 03:59:49,127014,-4355.000,458.000,7138.000,0.000,-1.000,6.000,0.000,0.000,0
2026-01-31 03:59:49,127054,-4349.000,462.000,7139.000,1.000,-1.000,6.000,0.000,0.000,0
2026-01-31 03:59:49,127094,-4351.000,463.000,7138.000,0.000,-2.000,4.000,0.000,0.000,0
2026-01-31 03:59:49,127134,-4347.000,460.000,7141.000,-1.000,0.000,7.000,0.000,0.000,0
2026-01-31 03:59:49,127174,-4348.000,465.000,7140.000,-2.000,-2.000,4.000,0.000,0.000,0
2026-01-31 03:59:49,127214,-4348.000,462.000,7142.000,-1.000,2.000,7.000,0.000,0.000,0
2026-01-31 03:59:49,127259,-4353.000,462.000,7141.000,-1.000,2.000,3.000,0.000,0.000,0
2026-01-31 03:59:49,127294,-4353.000,465.000,7144.000,-3.000,1.000,5.000,0.000,0.000,0
2026-01-31 03:59:49,127334,-4350.000,460.000,7142.000,-2.000,1.000,9.000,0.000,0.000,0
2026-01-31 03:59:49,127377,-4347.000,460.000,7143.000,-1.000,3.000,3.000,0.000,0.000,0
2026-01-31 03:59:49,127414,-4346.000,463.000,7140.000,-1.000,1.000,7.000,0.000,0.000,0
2026-01-31 03:59:49,127454,-4348.000,465.000,7138.000,-2.000,-6.000,6.000,0.000,0.000,0
2026-01-31 03:59:49,127494,-4350.000,463.000,7148.000,2.000,-2.000,7.000,0.000,0.000,0
2026-01-31 03:59:49,127534,-4353.000,463.000,7144.000,2.000,-1.000,6.000,0.000,0.000,0
2026-01-31 03:59:49,127574,-4352.000,464.000,7145.000,0.000,0.000,7.000,0.000,0.000,0
2026-01-31 03:59:49,127614,-4352.000,461.000,7143.000,0.000,1.000,7.000,0.000,0.000,0
2026-01-31 03:59:49,127654,-4352.000,465.000,7146.000,2.000,2.000,5.000,0.000,0.000,0
2026-01-31 03:59:49,127694,-4355.000,463.000,7144.000,-2.000,-5.000,6.000,0.000,0.000,0
2026-01-31 03:59:49,127734,-4354.000,460.000,7142.000,3.000,-1.000,8.000,0.000,0.000,0
2026-01-31 03:59:49,127774,-4353.000,460.000,7137.000,1.000,-4.000,9.000,0.000,0.000,0
2026-01-31 03:59:49,127814,-4347.000,463.000,7137.000,2.000,-5.000,11.000,0.000,0.000,0
2026-01-31 03:59:49,127854,-4354.000,462.000,7144.000,4.000,-1.000,10.000,0.000,0.000,0
2026-01-31 03:59:49,127894,-4345.000,458.000,7139.000,2.000,-2.000,8.000,0.000,0.000,0
2026-01-31 03:59:49,127934,-4350.000,465.000,7140.000,1.000,-1.000,7.000,0.000,0.000,0
2026-01-31 03:59:50,127974,-4351.000,464.000,7143.000,1.000,-2.000,6.000,0.000,0.000,0
2026-01-31 03:59:50,128014,-4352.000,467.000,7149.000,1.000,-1.000,6.000,0.000,0.000,0
2026-01-31 03:59:50,128054,-4350.000,459.000,7147.000,2.000,-2.000,4.000,0.000,0.000,0
2026-01-31 03:59:50,128094,-4351.000,463.000,7137.000,1.000,-4.000,10.000,0.000,0.000,0
2026-01-31 03:59:50,128134,-4354.000,463.000,7149.000,0.000,-6.000,10.000,0.000,0.000,0
2026-01-31 03:59:50,128174,-4354.000,465.000,7138.000,0.000,-5.000,6.000,0.000,0.000,0
2026-01-31 03:59:50,128214,-4345.000,469.000,7139.000,-2.000,-3.000,6.000,0.000,0.000,0
2026-01-31 03:59:50,128254,-4352.000,461.000,7142.000,7.000,-3.000,8.000,0.000,0.000,0
2026-01-31 03:59:50,128294,-4346.000,457.000,7141.000,-1.000,-2.000,7.000,0.000,0.000,0
2026-01-31 03:59:50,128334,-4350.000,458.000,7139.000,3.000,-2.000,8.000,0.000,0.312,1
2026-01-31 03:59:50,128374,-4346.000,462.000,7143.000,-4.000,-5.000,5.000,0.000,0.312,1
2026-01-31 03:59:50,128414,-4350.000,464.000,7142.000,4.000,2.000,6.000,0.000,0.312,1
2026-01-31 03:59:50,128454,-4358.000,462.000,7142.000,1.000,-1.000,7.000,0.000,0.312,1
2026-01-31 03:59:50,128494,-4350.000,465.000,7142.000,-3.000,-3.000,6.000,0.000,0.312,1
2026-01-31 03:59:50,128534,-4353.000,459.000,7149.000,2.000,3.000,5.000,0.000,0.312,1
2026-01-31 03:59:50,128574,-4348.000,469.000,7147.000,-5.000,-3.000,4.000,0.000,0.312,1
2026-01-31 03:59:50,128614,-4352.000,460.000,7149.000,5.000,1.000,7.000,0.000,0.312,1
2026-01-31 03:59:50,128654,-4349.000,465.000,7151.000,-1.000,0.000,4.000,0.000,0.312,1
2026-01-31 03:59:50,128694,-4354.000,465.000,7144.000,2.000,0.000,9.000,0.000,0.312,1
2026-01-31 03:59:50,128734,-4353.000,462.000,7140.000,-1.000,-2.000,4.000,0.000,0.312,1
2026-01-31 03:59:50,128774,-4359.000,463.000,7148.000,4.000,-1.000,7.000,0.000,0.312,1
2026-01-31 03:59:50,128814,-4351.000,464.000,7149.000,-3.000,-4.000,9.000,0.000,0.312,1
2026-01-31 03:59:50,128854,-4347.000,458.000,7133.000,0.000,1.000,6.000,0.000,0.312,1
2026-01-31 03:59:50,128894,-4359.000,462.000,7142.000,2.000,-6.000,10.000,0.000,0.312,1
2026-01-31 03:59:50,128934,-4355.000,462.000,7132.000,-1.000,-5.000,10.000,0.000,0.312,1
2026-01-31 03:59:51,128974,-4351.000,461.000,7144.000,4.000,0.000,8.000,0.000,0.312,1
2026-01-31 03:59:51,129014,-4351.000,468.000,7142.000,-1.000,-5.000,8.000,0.000,0.312,1
2026-01-31 03:59:51,129054,-4348.000,460.000,7144.000,4.000,-3.000,10.000,0.000,0.312,1
2026-01-31 03:59:51,129094,-4352.000,465.000,7142.000,-4.000,-2.000,3.000,0.000,0.312,1
2026-01-31 03:59:51,129134,-4349.000,458.000,7143.000,5.000,-1.000,8.000,0.000,0.312,1
2026-01-31 03:59:51,129174,-4354.000,462.000,7139.000,-2.000,-1.000,7.000,0.000,0.312,1
2026-01-31 03:59:51,129214,-4346.000,462.000,7140.000,7.000,-5.000,12.000,0.000,0.312,1
2026-01-31 03:59:51,129256,-4351.000,458.000,7148.000,-3.000,0.000,7.000,0.000,0.312,1
2026-01-31 03:59:51,129296,-4352.000,466.000,7146.000,5.000,1.000,8.000,0.000,0.312,1
2026-01-31 03:59:51,129337,-4354.000,467.000,7144.000,-3.000,-1.000,9.000,0.000,0.000,1
2026-01-31 03:59:51,129374,-4347.000,465.000,7144.000,-2.000,-2.000,9.000,0.000,0.000,1
2026-01-31 03:59:51,129420,-4357.000,466.000,7142.000,2.000,-1.000,8.000,0.000,0.000,1
2026-01-31 03:59:51,129454,-4354.000,463.000,7143.000,0.000,2.000,6.000,0.000,0.000,1
2026-01-31 03:59:51,129494,-4357.000,463.000,7139.000,3.000,-5.000,14.000,0.000,0.000,1
2026-01-31 03:59:51,129534,-4355.000,463.000,7144.000,1.000,-4.000,6.000,0.000,0.000,1
2026-01-31 03:59:51,129574,-4354.000,463.000,7141.000,4.000,-3.000,7.000,0.000,0.000,1
2026-01-31 03:59:51,129614,-4352.000,463.000,7146.000,-3.000,-4.000,9.000,0.000,0.000,1
2026-01-31 03:59:51,129654,-4350.000,467.000,7145.000,3.000,-3.000,8.000,0.000,0.000,1
2026-01-31 03:59:51,129694,-4355.000,467.000,7142.000,2.000,-3.000,9.000,0.000,0.000,1
2026-01-31 03:59:51,129734,-4356.000,466.000,7140.000,0.000,-4.000,10.000,0.000,0.000,1
2026-01-31 03:59:51,129774,-4350.000,468.000,7136.000,2.000,-4.000,9.000,0.000,0.000,1
2026-01-31 03:59:51,129814,-4351.000,462.000,7136.000,2.000,-4.000,7.000,0.000,0.000,1
2026-01-31 03:59:51,129854,-4357.000,462.000,7142.000,1.000,-5.000,12.000,0.000,0.000,1
2026-01-31 03:59:51,129894,-4352.000,460.000,7145.000,4.000,-4.000,7.000,0.000,0.000,1
2026-01-31 03:59:51,129934,-4351.000,463.000,7142.000,0.000,-3.000,9.000,0.000,0.000,1
2026-01-31 03:59:52,129974,-4356.000,466.000,7139.000,0.000,-6.000,6.000,0.000,0.000,1
2026-01-31 03:59:52,130014,-4356.000,467.000,7147.000,1.000,-4.000,3.000,0.000,0.000,1
2026-01-31 03:59:52,130054,-4352.000,463.000,7144.000,0.000,-1.000,5.000,0.000,0.000,1
2026-01-31 03:59:52,130094,-4357.000,467.000,7146.000,-1.000,-1.000,9.000,0.000,0.000,1
2026-01-31 03:59:52,130134,-4351.000,465.000,7145.000,1.000,-1.000,6.000,0.000,0.000,1
2026-01-31 03:59:52,130174,-4348.000,463.000,7144.000,2.000,2.000,6.000,0.000,0.000,1
2026-01-31 03:59:52,130214,-4355.000,462.000,7145.000,-1.000,-4.000,7.000,0.000,0.000,1
2026-01-31 03:59:52,130254,-4353.000,461.000,7144.000,0.000,-3.000,5.000,0.000,0.000,1
2026-01-31 03:59:52,130294,-4357.000,462.000,7145.000,-1.000,-1.000,6.000,0.000,0.000,1
2026-01-31 03:59:52,130334,-4355.000,465.000,7146.000,0.000,-3.000,7.000,0.000,0.000,1
2026-01-31 03:59:52,130374,-4354.000,460.000,7134.000,1.000,-2.000,4.000,0.000,0.000,0
2026-01-31 03:59:52,130414,-4357.000,465.000,7138.000,1.000,-3.000,6.000,0.000,0.000,0
2026-01-31 03:59:52,130454,-4353.000,465.000,7138.000,0.000,-2.000,6.000,0.000,0.000,0
2026-01-31 03:59:52,130494,-4352.000,466.000,7141.000,1.000,0.000,3.000,0.000,0.000,0
2026-01-31 03:59:52,130534,-4357.000,461.000,7139.000,0.000,-1.000,7.000,0.000,0.000,0
2026-01-31 03:59:52,130574,-4349.000,465.000,7143.000,3.000,0.000,7.000,0.000,0.000,0
2026-01-31 03:59:52,130614,-4354.000,463.000,7137.000,2.000,0.000,5.000,0.000,0.000,0
2026-01-31 03:59:52,130654,-4351.000,466.000,7142.000,0.000,-2.000,7.000,0.000,0.000,0
2026-01-31 03:59:52,130694,-4353.000,468.000,7128.000,-1.000,-2.000,7.000,0.000,0.000,0
2026-01-31 03:59:52,130734,-4353.000,463.000,7138.000,3.000,-2.000,8.000,0.000,0.000,0
2026-01-31 03:59:52,130774,-4356.000,462.000,7137.000,2.000,-1.000,9.000,0.000,0.000,0
2026-01-31 03:59:52,130814,-4356.000,463.000,7134.000,7.000,-3.000,11.000,0.000,0.000,0
2026-01-31 03:59:52,130854,-4360.000,466.000,7140.000,-2.000,-5.000,7.000,0.000,0.000,0
2026-01-31 03:59:52,130894,-4357.000,465.000,7145.000,4.000,0.000,9.000,0.000,0.000,0
2026-01-31 03:59:52,130934,-4359.000,464.000,7139.000,0.000,-5.000,9.000,0.000,0.000,0
2026-01-31 03:59:53,130974,-4361.000,462.000,7134.000,4.000,-3.000,10.000,0.000,0.000,0
2026-01-31 03:59:53,131014,-4360.000,461.000,7143.000,3.000,-4.000,9.000,0.000,0.000,0
2026-01-31 03:59:53,131054,-4354.000,464.000,7136.000,6.000,-2.000,10.000,0.000,0.000,0
2026-01-31 03:59:53,131094,-4354.000,466.000,7144.000,2.000,-2.000,8.000,0.000,0.000,0
2026-01-31 03:59:53,131134,-4352.000,464.000,7139.000,-1.000,-6.000,9.000,0.000,0.000,0
2026-01-31 03:59:53,131174,-4356.000,468.000,7146.000,5.000,2.000,8.000,0.000,0.000,0
2026-01-31 03:59:53,131214,-4357.000,465.000,7138.000,-1.000,-5.000,6.000,0.000,0.000,0
2026-01-31 03:59:53,131257,-4356.000,468.000,7148.000,1.000,4.000,3.000,0.000,0.000,0
2026-01-31 03:59:53,131296,-4354.000,469.000,7136.000,-7.000,-2.000,7.000,0.000,0.000,0
2026-01-31 03:59:53,131334,-4356.000,463.000,7149.000,6.000,5.000,9.000,0.000,0.000,0
2026-01-31 03:59:53,131374,-4353.000,463.000,7144.000,1.000,-3.000,10.000,0.000,0.000,0
2026-01-31 03:59:53,131414,-4354.000,466.000,7145.000,8.000,4.000,8.000,0.000,0.000,0
2026-01-31 03:59:53,131454,-4357.000,464.000,7143.000,-6.000,-2.000,4.000,0.000,0.000,0
2026-01-31 03:59:53,131494,-4356.000,468.000,7142.000,3.000,-4.000,10.000,0.000,0.000,0
2026-01-31 03:59:53,131534,-4353.000,463.000,7150.000,1.000,-6.000,7.000,0.000,0.000,0
2026-01-31 03:59:53,131574,-4350.000,467.000,7140.000,-1.000,-3.000,9.000,0.000,0.000,0
2026-01-31 03:59:53,131614,-4356.000,467.000,7139.000,11.000,-1.000,13.000,0.000,0.000,0
2026-01-31 03:59:53,131654,-4354.000,465.000,7145.000,-3.000,-4.000,7.000,0.000,0.000,0
2026-01-31 03:59:53,131694,-4355.000,463.000,7140.000,5.000,0.000,8.000,0.000,0.000,0
2026-01-31 03:59:53,131734,-4359.000,465.000,7138.000,-4.000,-4.000,5.000,0.000,0.000,0
2026-01-31 03:59:53,131774,-4358.000,463.000,7135.000,-2.000,-4.000,6.000,0.000,0.000,0
2026-01-31 03:59:53,131814,-4358.000,463.000,7134.000,-1.000,-4.000,6.000,0.000,0.000,0
2026-01-31 03:59:53,131854,-4357.000,470.000,7133.000,-2.000,-3.000,7.000,0.000,0.000,0
2026-01-31 03:59:53,131894,-4349.000,466.000,7135.000,1.000,1.000,5.000,0.000,0.000,0
2026-01-31 03:59:53,131934,-4354.000,465.000,7133.000,-3.000,-6.000,3.000,0.000,0.000,0
2026-01-31 03:59:54,131974,-4353.000,466.000,7136.000,2.000,-2.000,8.000,0.000,0.000,0
2026-01-31 03:59:54,132014,-4357.000,467.000,7132.000,0.000,2.000,4.000,0.000,0.000,0
2026-01-31 03:59:54,132054,-4356.000,466.000,7135.000,0.000,-4.000,5.000,0.000,0.000,0
2026-01-31 03:59:54,132094,-4353.000,463.000,7128.000,2.000,-3.000,8.000,0.000,0.000,0
2026-01-31 03:59:54,132134,-4356.000,468.000,7122.000,1.000,-2.000,9.000,0.000,0.000,0
2026-01-31 03:59:54,132174,-4357.000,464.000,7135.000,2.000,-5.000,11.000,0.000,0.000,0
2026-01-31 03:59:54,132214,-4359.000,465.000,7129.000,2.000,-2.000,8.000,0.000,0.000,0
2026-01-31 03:59:54,132254,-4363.000,461.000,7132.000,1.000,-6.000,6.000,0.000,0.000,0
2026-01-31 03:59:54,132294,-4355.000,461.000,7126.000,1.000,0.000,8.000,0.000,0.000,0
2026-01-31 03:59:54,132334,-4354.000,464.000,7136.000,3.000,-3.000,8.000,0.000,0.000,0
2026-01-31 03:59:54,132374,-4356.000,470.000,7124.000,1.000,-1.000,7.000,0.000,0.000,0
2026-01-31 03:59:54,132414,-4352.000,460.000,7129.000,-1.000,0.000,6.000,0.000,0.000,0
2026-01-31 03:59:54,132454,-4355.000,467.000,7133.000,1.000,-1.000,5.000,0.000,0.000,0
2026-01-31 03:59:54,132494,-4356.000,463.000,7128.000,-2.000,-4.000,5.000,0.000,0.000,0
2026-01-31 03:59:54,132534,-4354.000,465.000,7128.000,2.000,-1.000,7.000,0.000,0.000,0
2026-01-31 03:59:54,132574,-4354.000,473.000,7130.000,-4.000,-3.000,6.000,0.000,0.000,0
2026-01-31 03:59:54,132614,-4356.000,464.000,7125.000,1.000,-1.000,5.000,0.000,0.000,0
2026-01-31 03:59:54,132654,-4356.000,467.000,7130.000,-2.000,-4.000,6.000,0.000,0.000,0
2026-01-31 03:59:54,132694,-4354.000,465.000,7133.000,0.000,-2.000,6.000,0.000,0.000,0
2026-01-31 03:59:54,132734,-4353.000,466.000,7142.000,3.000,0.000,5.000,0.000,0.000,0
2026-01-31 03:59:54,132774,-4352.000,466.000,7138.000,-5.000,-3.000,4.000,0.000,0.000,0
2026-01-31 03:59:54,132814,-4355.000,465.000,7130.000,-2.000,-3.000,10.000,0.000,0.000,0
2026-01-31 03:59:54,132854,-4354.000,465.000,7140.000,1.000,-3.000,5.000,0.000,0.000,0
2026-01-31 03:59:54,132894,-4358.000,465.000,7136.000,0.000,-3.000,4.000,0.000,0.000,0
2026-01-31 03:59:54,132934,-4353.000,467.000,7127.000,3.000,-6.000,6.000,0.000,0.000,0
2026-01-31 03:59:55,132974,-4352.000,461.000,7130.000,2.000,0.000,6.000,0.000,0.000,0
2026-01-31 03:59:55,133014,-4356.000,466.000,7134.000,3.000,-2.000,9.000,0.000,0.000,0
2026-01-31 03:59:55,133054,-4354.000,463.000,7137.000,-3.000,-2.000,6.000,0.000,0.000,0
2026-01-31 03:59:55,133094,-4358.000,462.000,7135.000,3.000,2.000,3.000,0.000,0.000,0
2026-01-31 03:59:55,133134,-4353.000,473.000,7145.000,-1.000,0.000,5.000,0.000,0.000,0
2026-01-31 03:59:55,133174,-4359.000,461.000,7146.000,-2.000,-1.000,6.000,0.000,0.000,0
2026-01-31 03:59:55,133214,-4355.000,469.000,7141.000,1.000,-1.000,6.000,0.000,0.000,0
2026-01-31 03:59:55,133254,-4354.000,469.000,7141.000,-3.000,-2.000,5.000,0.000,0.000,0
2026-01-31 03:59:55,133295,-4355.000,464.000,7141.000,3.000,0.000,6.000,0.000,0.000,0
2026-01-31 03:59:55,133334,-4360.000,466.000,7135.000,0.000,-1.000,3.000,0.000,0.000,1
2026-01-31 03:59:55,133374,-4354.000,463.000,7136.000,0.000,0.000,8.000,0.000,0.000,1
2026-01-31 03:59:55,133414,-4353.000,465.000,7135.000,-2.000,-4.000,7.000,0.000,0.000,1
2026-01-31 03:59:55,133454,-4357.000,471.000,7138.000,8.000,1.000,6.000,0.000,0.000,1
2026-01-31 03:59:55,133494,-4356.000,470.000,7130.000,-7.000,-1.000,4.000,0.000,0.000,1
2026-01-31 03:59:55,133534,-4360.000,463.000,7136.000,6.000,0.000,10.000,0.000,0.000,1
2026-01-31 03:59:55,133574,-4354.000,462.000,7126.000,-4.000,-3.000,4.000,0.000,0.000,1
2026-01-31 03:59:55,133614,-4363.000,463.000,7137.000,2.000,0.000,5.000,0.000,0.000,1
2026-01-31 03:59:55,133654,-4356.000,462.000,7145.000,2.000,0.000,7.000,0.000,0.000,1
2026-01-31 03:59:55,133694,-4363.000,462.000,7134.000,5.000,0.000,5.000,0.000,0.000,1
2026-01-31 03:59:55,133734,-4352.000,465.000,7147.000,-4.000,1.000,5.000,0.000,0.000,1
2026-01-31 03:59:55,133774,-4361.000,466.000,7141.000,1.000,-1.000,6.000,0.000,0.000,1
2026-01-31 03:59:55,133814,-4355.000,466.000,7147.000,4.000,3.000,3.000,0.000,0.000,1
2026-01-31 03:59:55,133854,-4353.000,470.000,7142.000,-3.000,-5.000,8.000,0.000,0.000,1
2026-01-31 03:59:55,133894,-4356.000,468.000,7138.000,3.000,-3.000,10.000,0.000,0.000,1
2026-01-31 03:59:55,133934,-4352.000,464.000,7135.000,2.000,-4.000,9.000,0.000,0.000,1
2026-01-31 03:59:56,133974,-4354.000,468.000,7144.000,7.000,-1.000,11.000,0.000,0.000,1
2026-01-31 03:59:56,134014,-4355.000,466.000,7135.000,-1.000,-6.000,10.000,0.000,0.000,1
2026-01-31 03:59:56,134054,-4355.000,465.000,7133.000,5.000,0.000,10.000,0.000,0.000,1
2026-01-31 03:59:56,134094,-4359.000,465.000,7135.000,-2.000,-5.000,8.000,0.000,0.000,1
2026-01-31 03:59:56,134134,-4357.000,466.000,7140.000,7.000,-1.000,11.000,0.000,0.000,1
2026-01-31 03:59:56,134174,-4358.000,464.000,7141.000,0.000,-6.000,8.000,0.000,0.000,1
2026-01-31 03:59:56,134214,-4355.000,464.000,7138.000,3.000,-2.000,10.000,0.000,0.000,1
2026-01-31 03:59:56,134254,-4360.000,469.000,7136.000,-1.000,-3.000,10.000,0.000,0.000,1
2026-01-31 03:59:56,134294,-4361.000,464.000,7132.000,4.000,-3.000,12.000,0.000,0.000,1
2026-01-31 03:59:56,134334,-4360.000,467.000,7132.000,8.000,1.000,9.000,0.000,0.000,1
2026-01-31 03:59:56,134374,-4354.000,466.000,7129.000,-1.000,-4.000,8.000,0.000,0.000,0
2026-01-31 03:59:56,134414,-4357.000,467.000,7139.000,3.000,-6.000,10.000,0.000,0.000,0
2026-01-31 03:59:56,134454,-4355.000,468.000,7127.000,-1.000,-5.000,10.000,0.000,0.000,0
2026-01-31 03:59:56,134494,-4358.000,465.000,7132.000,1.000,-4.000,10.000,0.000,0.000,0
2026-01-31 03:59:56,134534,-4352.000,465.000,7136.000,0.000,-4.000,7.000,0.000,0.000,0
2026-01-31 03:59:56,134574,-4360.000,467.000,7139.000,4.000,-2.000,9.000,0.000,0.000,0
2026-01-31 03:59:56,134614,-4359.000,464.000,7135.000,-2.000,-3.000,9.000,0.000,0.000,0
2026-01-31 03:59:56,134654,-4358.000,469.000,7132.000,1.000,0.000,5.000,0.000,0.000,0
2026-01-31 03:59:56,134694,-4355.000,469.000,7142.000,-1.000,-1.000,4.000,0.000,0.000,0
2026-01-31 03:59:56,134734,-4356.000,465.000,7136.000,-2.000,1.000,7.000,0.000,0.000,0
2026-01-31 03:59:56,134774,-4358.000,461.000,7136.000,0.000,0.000,8.000,0.000,0.000,0
2026-01-31 03:59:56,134814,-4357.000,468.000,7143.000,0.000,-2.000,6.000,0.000,0.000,0
2026-01-31 03:59:56,134854,-4361.000,466.000,7135.000,3.000,1.000,8.000,0.000,0.000,0
2026-01-31 03:59:56,134894,-4356.000,467.000,7133.000,3.000,-1.000,6.000,0.000,0.000,0
2026-01-31 03:59:56,134934,-4357.000,465.000,7126.000,-1.000,-4.000,6.000,0.000,0.000,0
2026-01-31 03:59:57,134974,-4357.000,460.000,7133.000,7.000,3.000,9.000,0.000,0.000,0
2026-01-31 03:59:57,135014,-4356.000,462.000,7131.000,-6.000,-3.000,5.000,0.000,0.000,0
2026-01-31 03:59:57,135054,-4354.000,467.000,7132.000,8.000,0.000,9.000,0.000,0.000,0
2026-01-31 03:59:57,135094,-4353.000,460.000,7142.000,-4.000,-2.000,6.000,0.000,0.000,0
2026-01-31 03:59:57,135134,-4361.000,468.000,7130.000,2.000,-3.000,8.000,0.000,0.000,0
2026-01-31 03:59:57,135174,-4361.000,472.000,7143.000,6.000,0.000,8.000,0.000,0.000,0
2026-01-31 03:59:57,135214,-4357.000,466.000,7133.000,0.000,-5.000,10.000,0.000,0.000,0
2026-01-31 03:59:57,135257,-4359.000,468.000,7131.000,-8.000,-5.000,6.000,0.000,0.000,0
2026-01-31 03:59:57,135294,-4356.000,466.000,7127.000,-5.000,-3.000,8.000,0.000,0.000,0
2026-01-31 03:59:57,135334,-4356.000,465.000,7136.000,6.000,1.000,7.000,0.000,0.000,0
2026-01-31 03:59:57,135377,-4357.000,469.000,7130.000,-2.000,0.000,4.000,0.000,0.000,0
2026-01-31 03:59:57,135414,-4355.000,466.000,7129.000,5.000,-4.000,8.000,0.000,0.000,0
2026-01-31 03:59:57,135454,-4364.000,468.000,7132.000,-1.000,-2.000,8.000,0.000,0.000,0
2026-01-31 03:59:57,135494,-4360.000,460.000,7136.000,1.000,1.000,4.000,0.000,0.000,0
2026-01-31 03:59:57,135534,-4362.000,461.000,7136.000,-1.000,-4.000,6.000,0.000,0.000,0
2026-01-31 03:59:57,135574,-4352.000,465.000,7146.000,-1.000,-1.000,8.000,0.000,0.000,0
2026-01-31 03:59:57,135614,-4361.000,466.000,7134.000,2.000,-2.000,7.000,0.000,0.000,0
2026-01-31 03:59:57,135654,-4359.000,470.000,7135.000,-2.000,-2.000,6.000,0.000,0.000,0
2026-01-31 03:59:57,135694,-4355.000,464.000,7129.000,4.000,-1.000,5.000,0.000,0.000,0
2026-01-31 03:59:57,135734,-4358.000,467.000,7139.000,-2.000,-2.000,5.000,0.000,0.000,0
2026-01-31 03:59:57,135774,-4358.000,462.000,7136.000,-1.000,1.000,5.000,0.000,0.000,0
2026-01-31 03:59:57,135814,-4360.000,461.000,7134.000,0.000,-5.000,7.000,0.000,0.000,0
2026-01-31 03:59:57,135854,-4356.000,462.000,7133.000,3.000,-1.000,7.000,0.000,0.000,0
2026-01-31 03:59:57,135894,-4356.000,463.000,7136.000,-2.000,-3.000,4.000,0.000,0.000,0
2026-01-31 03:59:57,135934,-4359.000,465.000,7131.000,3.000,-1.000,9.000,0.000,0.000,0
2026-01-31 03:59:58,135974,-4361.000,467.000,7130.000,-3.000,-3.000,5.000,0.000,0.000,0
2026-01-31 03:59:58,136014,-4356.000,468.000,7136.000,6.000,-1.000,8.000,0.000,0.000,0
2026-01-31 03:59:58,136054,-4361.000,470.000,7133.000,-3.000,-3.000,9.000,0.000,0.000,0
2026-01-31 03:59:58,136094,-4351.000,467.000,7129.000,-1.000,-4.000,5.000,0.000,0.000,0
2026-01-31 03:59:58,136134,-4358.000,470.000,7131.000,4.000,-2.000,10.000,0.000,0.000,0
2026-01-31 03:59:58,136174,-4358.000,474.000,7125.000,-4.000,-4.000,5.000,0.000,0.000,0
2026-01-31 03:59:58,136214,-4359.000,463.000,7127.000,6.000,0.000,7.000,0.000,0.000,0
2026-01-31 03:59:58,136254,-4360.000,462.000,7134.000,-3.000,-5.000,5.000,0.000,0.000,0
2026-01-31 03:59:58,136294,-4354.000,465.000,7135.000,5.000,-2.000,8.000,0.000,0.000,0
2026-01-31 03:59:58,136334,-4356.000,464.000,7127.000,-1.000,-1.000,7.000,0.000,0.000,0
2026-01-31 03:59:58,136374,-4361.000,467.000,7135.000,0.000,-1.000,8.000,0.000,0.000,0
2026-01-31 03:59:58,136414,-4361.000,469.000,7123.000,-2.000,-5.000,6.000,0.000,0.000,0
2026-01-31 03:59:58,136454,-4357.000,465.000,7136.000,3.000,2.000,8.000,0.000,0.000,0
2026-01-31 03:59:58,136494,-4358.000,464.000,7139.000,-2.000,-4.000,8.000,0.000,0.000,0
2026-01-31 03:59:58,136534,-4359.000,470.000,7133.000,5.000,0.000,8.000,0.000,0.000,0
2026-01-31 03:59:58,136574,-4356.000,466.000,7136.000,0.000,0.000,6.000,0.000,0.000,0
2026-01-31 03:59:58,136614,-4363.000,465.000,7135.000,-3.000,-2.000,6.000,0.000,0.000,0
2026-01-31 03:59:58,136654,-4359.000,472.000,7139.000,1.000,-1.000,6.000,0.000,0.000,0
2026-01-31 03:59:58,136694,-4364.000,467.000,7131.000,-2.000,2.000,5.000,0.000,0.000,0
2026-01-31 03:59:58,136734,-4363.000,462.000,7139.000,0.000,-2.000,7.000,0.000,0.000,0
2026-01-31 03:59:58,136774,-4359.000,466.000,7138.000,-2.000,-2.000,4.000,0.000,0.000,0
2026-01-31 03:59:58,136814,-4355.000,462.000,7137.000,0.000,-5.000,6.000,0.000,0.000,0
2026-01-31 03:59:58,136854,-4353.000,464.000,7133.000,-3.000,-5.000,7.000,0.000,0.000,0
2026-01-31 03:59:58,136894,-4358.000,469.000,7140.000,3.000,-2.000,6.000,0.000,0.000,0
2026-01-31 03:59:58,136934,-4361.000,467.000,7137.000,-1.000,-2.000,5.000,0.000,0.000,0
2026-01-31 03:59:59,136974,-4362.000,463.000,7140.000,2.000,3.000,8.000,0.000,0.000,0
2026-01-31 03:59:59,137014,-4360.000,467.000,7142.000,1.000,0.000,5.000,0.000,0.000,0
2026-01-31 03:59:59,137054,-4361.000,468.000,7135.000,2.000,0.000,6.000,0.000,0.000,0
2026-01-31 03:59:59,137094,-4354.000,468.000,7135.000,1.000,-2.000,8.000,0.000,0.000,0
2026-01-31 03:59:59,137134,-4354.000,468.000,7135.000,1.000,-1.000,6.000,0.000,0.000,0
2026-01-31 03:59:59,137174,-4365.000,467.000,7133.000,-2.000,0.000,8.000,0.000,0.000,0
2026-01-31 03:59:59,137214,-4362.000,467.000,7133.000,1.000,-5.000,6.000,0.000,0.000,0
2026-01-31 03:59:59,137257,-4361.000,471.000,7134.000,-4.000,0.000,7.000,0.000,0.000,0
2026-01-31 03:59:59,137297,-4360.000,466.000,7138.000,3.000,1.000,5.000,0.000,0.000,0
2026-01-31 03:59:59,137334,-4361.000,469.000,7138.000,0.000,1.000,6.000,0.000,0.000,0
2026-01-31 03:59:59,137377,-4363.000,467.000,7138.000,-1.000,2.000,7.000,0.000,0.000,0
2026-01-31 03:59:59,137414,-4362.000,465.000,7131.000,1.000,-1.000,6.000,0.000,0.000,0
2026-01-31 03:59:59,137454,-4364.000,467.000,7130.000,-2.000,-4.000,9.000,0.000,0.000,0
2026-01-31 03:59:59,137494,-4360.000,470.000,7138.000,0.000,-4.000,7.000,0.000,0.000,0
2026-01-31 03:59:59,137534,-4353.000,467.000,7131.000,-1.000,-6.000,9.000,0.000,0.000,0
2026-01-31 03:59:59,137574,-4361.000,469.000,7130.000,5.000,-3.000,9.000,0.000,0.000,0
2026-01-31 03:59:59,137614,-4361.000,462.000,7141.000,1.000,-6.000,7.000,0.000,0.000,0
2026-01-31 03:59:59,137654,-4359.000,467.000,7131.000,2.000,-1.000,9.000,0.000,0.000,0
2026-01-31 03:59:59,137694,-4351.000,472.000,7131.000,4.000,-3.000,9.000,0.000,0.000,0
2026-01-31 03:59:59,137734,-4360.000,467.000,7128.000,-4.000,-5.000,6.000,0.000,0.000,0
2026-01-31 03:59:59,137774,-4361.000,467.000,7136.000,5.000,0.000,10.000,0.000,0.000,0
2026-01-31 03:59:59,137814,-4364.000,465.000,7139.000,-3.000,-7.000,12.000,0.000,0.000,0
2026-01-31 03:59:59,137854,-4360.000,467.000,7132.000,3.000,-5.000,9.000,0.000,0.000,0
2026-01-31 03:59:59,137894,-4359.000,470.000,7140.000,-1.000,-3.000,9.000,0.000,0.000,0
2026-01-31 03:59:59,137934,-4358.000,463.000,7142.000,5.000,-4.000,10.000,0.000,0.000,0
2026-01-31 04:00:00,137974,-4363.000,469.000,7135.000,-1.000,-2.000,5.000,0.000,0.000,0
