datetime_local,uptime_ms,acc_x,acc_y,acc_z,gyro_x,gyro_y,gyro_z,speed_mps,turn_rate_deg_s,gps_valid
2026-01-31 04:22:14,23014,-5068.000,-4512.000,4352.000,104.000,955.000,227.000,0.000,0.000,0
2026-01-31 04:22:14,23054,-4823.000,-5435.000,4358.000,875.000,427.000,569.000,0.000,0.000,0
2026-01-31 04:22:14,23094,-5180.000,-5513.000,5248.000,1006.000,708.000,692.000,0.000,0.000,0
2026-01-31 04:22:14,23134,-5183.000,-4626.000,4460.000,-403.000,66.000,-19.000,0.000,0.000,0
2026-01-31 04:22:14,23174,-5073.000,-4701.000,4147.000,-575.000,540.000,59.000,0.000,0.000,0
2026-01-31 04:22:14,23214,-5127.000,-4969.000,4498.000,212.000,516.000,455.000,0.000,0.000,0
2026-01-31 04:22:14,23254,-5156.000,-4818.000,4356.000,17.000,433.000,180.000,0.000,0.000,0
2026-01-31 04:22:15,23294,-5196.000,-5002.000,4110.000,-52.000,677.000,323.000,0.000,0.000,0
2026-01-31 04:22:15,23334,-5143.000,-4854.000,4479.000,151.000,324.000,303.000,0.000,0.000,0
2026-01-31 04:22:15,23374,-5169.000,-4833.000,4093.000,-6.000,82.000,92.000,0.000,0.000,0
2026-01-31 04:22:15,23414,-5128.000,-4899.000,4292.000,-521.000,57.000,-86.000,0.000,0.000,0
2026-01-31 04:22:15,23455,-4085.000,-5123.000,3509.000,-2136.000,430.000,19.000,0.000,0.000,0
2026-01-31 04:22:15,23494,-5157.000,-4836.000,3102.000,-3243.000,595.000,1067.000,0.000,0.000,0
2026-01-31 04:22:15,23534,-6457.000,-4515.000,3135.000,-4245.000,291.000,2544.000,0.000,0.000,0
2026-01-31 04:22:15,23574,-4424.000,-5297.000,2679.000,-4966.000,1766.000,4306.000,0.000,0.000,0
2026-01-31 04:22:15,23614,-5990.000,-4281.000,2498.000,-2316.000,2851.000,6402.000,0.000,0.000,0
2026-01-31 04:22:15,23654,-6739.000,-3734.000,2031.000,-317.000,2192.000,7013.000,0.000,0.000,0
2026-01-31 04:22:15,23694,-5700.000,-2030.000,451.000,5946.000,5144.000,8738.000,0.000,0.000,0
2026-01-31 04:22:15,23734,-6873.000,-762.000,1315.000,11097.000,9494.000,7093.000,0.000,0.000,0
2026-01-31 04:22:15,23774,-7425.000,-457.000,1912.000,8398.000,8012.000,6382.000,0.000,0.000,0
2026-01-31 04:22:15,23814,-8420.000,-459.000,1913.000,2089.000,5890.000,4702.000,0.000,0.000,0
2026-01-31 04:22:15,23854,-7877.000,-920.000,1883.000,-3760.000,4970.000,3376.000,0.000,0.000,0
2026-01-31 04:22:15,23894,-8447.000,-1073.000,1290.000,-7011.000,4192.000,1210.000,0.000,0.000,0
2026-01-31 04:22:15,23934,-9795.000,-1200.000,748.000,-7594.000,579.000,-944.000,0.000,0.000,0
2026-01-31 04:22:15,23974,-9013.000,-1213.000,257.000,-5359.000,-841.000,-2261.000,0.000,0.000,0
2026-01-31 04:22:15,24014,-8781.000,-874.000,201.000,-2369.000,-857.000,-3289.000,0.000,0.000,0
2026-01-31 04:22:15,24054,-9352.000,-592.000,14.000,373.000,-2956.000,-3737.000,0.000,0.000,0
2026-01-31 04:22:15,24094,-7611.000,-313.000,46.000,3198.000,-425.000,-1590.000,0.000,0.000,0
2026-01-31 04:22:15,24134,-8972.000,-465.000,272.000,4220.000,-39.000,248.000,0.000,0.000,0
2026-01-31 04:22:15,24174,-9197.000,-336.000,657.000,4910.000,1419.000,985.000,0.000,0.000,0
2026-01-31 04:22:15,24214,-8891.000,-459.000,953.000,5501.000,2187.000,2236.000,0.000,0.000,0
2026-01-31 04:22:15,24254,-7685.000,-464.000,1120.000,5458.000,1907.000,2588.000,0.000,0.000,0
2026-01-31 04:22:16,24294,-8011.000,-862.000,734.000,5446.000,-663.000,2178.000,0.000,0.000,0
2026-01-31 04:22:16,24334,-9528.000,-209.000,1398.000,5576.000,-1373.000,1342.000,0.000,0.000,0
2026-01-31 04:22:16,24374,-8567.000,-1588.000,322.000,7372.000,-3434.000,4027.000,0.000,0.000,0
2026-01-31 04:22:16,24414,-6493.000,-864.000,-247.000,9154.000,-2263.000,-213.000,0.000,0.000,0
2026-01-31 04:22:16,24455,-6593.000,-615.000,-6.000,7876.000,-1400.000,312.000,0.000,0.000,0
2026-01-31 04:22:16,24494,-6102.000,366.000,505.000,2159.000,3569.000,-7109.000,0.000,0.000,0
2026-01-31 04:22:16,24534,-11176.000,1354.000,1905.000,-4497.000,2120.000,-7834.000,0.000,0.000,0
2026-01-31 04:22:16,24574,-7035.000,1042.000,696.000,-10903.000,-4400.000,-3605.000,0.000,0.000,0
2026-01-31 04:22:16,24614,-7507.000,491.000,93.000,-13223.000,2023.000,1041.000,0.000,0.000,0
2026-01-31 04:22:16,24654,-10264.000,-126.000,-1050.000,-12277.000,171.000,3199.000,0.000,0.000,0
2026-01-31 04:22:16,24694,-9358.000,354.000,728.000,-9936.000,1756.000,4176.000,0.000,0.000,0
2026-01-31 04:22:16,24737,-8383.000,-755.000,14.000,-3039.000,-571.000,6919.000,0.000,0.000,0
2026-01-31 04:22:16,24774,-7412.000,-238.000,52.000,-932.000,-455.000,4853.000,0.000,0.000,0
2026-01-31 04:22:16,24814,-8656.000,-523.000,54.000,3388.000,-1470.000,4207.000,0.000,0.000,0
2026-01-31 04:22:16,24854,-8695.000,145.000,521.000,6084.000,-2078.000,2162.000,0.000,0.000,0
2026-01-31 04:22:16,24894,-9679.000,-709.000,834.000,2215.000,-996.000,5034.000,0.000,0.000,0
2026-01-31 04:22:16,24934,-7405.000,24.000,-162.000,-10715.000,145.000,-795.000,0.000,0.000,0
2026-01-31 04:22:16,24974,-7596.000,-278.000,419.000,-3333.000,-2265.000,-2029.000,0.000,0.000,0
2026-01-31 04:22:16,25016,-7273.000,-261.000,-257.000,-755.000,-2308.000,-3491.000,0.000,0.000,0
2026-01-31 04:22:16,25054,-9006.000,-449.000,-53.000,4357.000,271.000,-2674.000,0.000,0.000,0
2026-01-31 04:22:16,25094,-9633.000,47.000,169.000,7829.000,998.000,-2958.000,0.000,0.000,0
2026-01-31 04:22:16,25134,-8413.000,259.000,495.000,8515.000,118.000,-1178.000,0.000,0.000,0
2026-01-31 04:22:16,25174,-7812.000,175.000,510.000,7951.000,1339.000,-2833.000,0.000,0.000,0
2026-01-31 04:22:16,25214,-8013.000,531.000,932.000,5239.000,1099.000,-3769.000,0.000,0.000,0
2026-01-31 04:22:16,25254,-8446.000,380.000,779.000,-119.000,-144.000,-3051.000,0.000,0.000,0
2026-01-31 04:22:17,25294,-10803.000,-49.000,604.000,-3268.000,-184.000,-3737.000,0.000,0.000,0
2026-01-31 04:22:17,25334,-6530.000,832.000,966.000,-5473.000,445.000,-4012.000,0.000,0.000,0
2026-01-31 04:22:17,25374,-4871.000,425.000,122.000,-6090.000,-1190.000,2084.000,0.000,0.000,0
2026-01-31 04:22:17,25414,-7879.000,-1196.000,-618.000,-6198.000,-505.000,1931.000,0.000,0.000,0
2026-01-31 04:22:17,25455,-9774.000,119.000,740.000,-3849.000,4659.000,-9537.000,0.000,0.000,0
2026-01-31 04:22:17,25494,-8863.000,878.000,981.000,-3956.000,510.000,-4335.000,0.000,0.000,0
2026-01-31 04:22:17,25534,-8837.000,-23.000,103.000,-4145.000,-1930.000,5216.000,0.000,0.000,0
2026-01-31 04:22:17,25574,-8671.000,-744.000,-110.000,-3242.000,2235.000,3266.000,0.000,0.000,0
2026-01-31 04:22:17,25614,-8247.000,336.000,927.000,-3111.000,1647.000,1586.000,0.000,0.000,0
2026-01-31 04:22:17,25654,-10017.000,-270.000,421.000,-4001.000,-4106.000,2672.000,0.000,0.000,0
2026-01-31 04:22:17,25694,-8329.000,96.000,428.000,-3970.000,-3756.000,-217.000,0.000,0.000,0
2026-01-31 04:22:17,25734,-8056.000,-173.000,40.000,-3431.000,-2499.000,2852.000,0.000,0.000,0
2026-01-31 04:22:17,25774,-8531.000,-433.000,219.000,-2464.000,-480.000,3149.000,0.000,0.000,0
2026-01-31 04:22:17,25814,-5290.000,413.000,-2246.000,-27464.000,2479.000,-2413.000,0.000,0.000,0
2026-01-31 04:22:17,25854,-8357.000,-1358.000,-3121.000,-16046.000,-3096.000,4698.000,0.000,0.000,0
2026-01-31 04:22:17,25894,-12354.000,-1176.000,-534.000,-3453.000,-780.000,-4806.000,0.000,0.000,0
2026-01-31 04:22:17,25934,-8555.000,331.000,15.000,-2366.000,-1185.000,-8381.000,0.000,0.000,0
2026-01-31 04:22:17,25974,-8662.000,-913.000,-576.000,-5921.000,78.000,3914.000,0.000,0.000,0
2026-01-31 04:22:17,26014,-8472.000,-1151.000,-233.000,7896.000,2721.000,2029.000,0.000,0.000,0
2026-01-31 04:22:17,26054,-7850.000,581.000,-886.000,5484.000,641.000,-3283.000,0.000,0.000,0
2026-01-31 04:22:17,26094,-5687.000,145.000,-808.000,9209.000,-2005.000,-729.000,0.000,0.000,0
2026-01-31 04:22:17,26134,-7659.000,-415.000,-617.000,11376.000,-413.000,663.000,0.000,0.000,0
2026-01-31 04:22:17,26174,-8938.000,824.000,391.000,8969.000,2900.000,-1512.000,0.000,0.000,0
2026-01-31 04:22:17,26214,-10047.000,-333.000,445.000,1026.000,-648.000,-211.000,0.000,0.000,0
2026-01-31 04:22:17,26254,-8655.000,-322.000,-105.000,914.000,-1335.000,-364.000,0.000,0.000,0
2026-01-31 04:22:18,26294,-7778.000,-200.000,239.000,1938.000,1130.000,473.000,0.000,0.000,0
2026-01-31 04:22:18,26334,-5983.000,-56.000,335.000,-268.000,1383.000,1348.000,0.000,0.000,0
2026-01-31 04:22:18,26374,-6725.000,-499.000,325.000,-1986.000,41.000,1327.000,0.000,0.000,0
2026-01-31 04:22:18,26414,-8011.000,-477.000,-318.000,-1498.000,-1500.000,-524.000,0.000,0.000,0
2026-01-31 04:22:18,26455,-9068.000,-586.000,83.000,-1894.000,-936.000,-996.000,0.000,0.000,0
2026-01-31 04:22:18,26494,-6276.000,5.000,-100.000,-2087.000,-250.000,-33.000,0.000,0.000,0
2026-01-31 04:22:18,26534,-9916.000,-1234.000,-1251.000,616.000,-1288.000,2276.000,0.000,0.000,0
2026-01-31 04:22:18,26574,-11877.000,-1179.000,-539.000,1428.000,-277.000,-3365.000,0.000,0.000,0
2026-01-31 04:22:18,26614,-6202.000,1064.000,740.000,2216.000,-70.000,-3596.000,0.000,0.000,0
2026-01-31 04:22:18,26654,-8770.000,-1065.000,-1062.000,74.000,-1057.000,4924.000,0.000,0.000,0
2026-01-31 04:22:18,26694,-7409.000,-221.000,560.000,1976.000,4207.000,161.000,0.000,0.000,0
2026-01-31 04:22:18,26737,-7977.000,-31.000,310.000,-68.000,-2340.000,-1138.000,0.000,0.000,0
2026-01-31 04:22:18,26776,-8853.000,-740.000,-463.000,-254.000,-1548.000,-828.000,0.000,0.000,0
2026-01-31 04:22:18,26814,-7672.000,-128.000,209.000,177.000,621.000,-1814.000,0.000,0.000,0
2026-01-31 04:22:18,26854,-5955.000,-261.000,-148.000,234.000,1595.000,962.000,0.000,0.000,0
2026-01-31 04:22:18,26894,-7397.000,-55.000,355.000,-240.000,1067.000,2989.000,0.000,0.000,0
2026-01-31 04:22:18,26934,-7649.000,-855.000,-77.000,-929.000,-598.000,-71.000,0.000,0.000,0
2026-01-31 04:22:18,26974,-6753.000,-56.000,-224.000,-378.000,-1724.000,-2848.000,0.000,0.000,0
2026-01-31 04:22:18,27017,-15462.000,-487.000,186.000,-899.000,-827.000,-1756.000,0.000,0.000,0
2026-01-31 04:22:18,27054,-13526.000,-1573.000,-196.000,-1791.000,-1601.000,-905.000,0.000,0.000,0
2026-01-31 04:22:18,27094,-8121.000,-83.000,1404.000,-787.000,-174.000,-321.000,0.000,0.000,0
2026-01-31 04:22:18,27134,-8172.000,-839.000,466.000,1827.000,3875.000,1434.000,0.000,0.000,0
2026-01-31 04:22:18,27174,-8690.000,-934.000,64.000,829.000,1044.000,974.000,0.000,0.000,0
2026-01-31 04:22:18,27214,-8292.000,-320.000,192.000,908.000,-1674.000,-1045.000,0.000,0.000,0
2026-01-31 04:22:18,27254,-8032.000,-852.000,-326.000,753.000,-1785.000,-188.000,0.000,0.000,0
2026-01-31 04:22:19,27294,-7976.000,-594.000,-91.000,1931.000,1219.000,-223.000,0.000,0.000,0
2026-01-31 04:22:19,27334,-8320.000,-472.000,311.000,1853.000,2186.000,98.000,0.000,0.000,0
2026-01-31 04:22:19,27374,-8376.000,-533.000,320.000,1018.000,-174.000,423.000,0.000,0.000,0
2026-01-31 04:22:19,27414,-8124.000,-535.000,17.000,293.000,-1397.000,44.000,0.000,0.000,0
2026-01-31 04:22:19,27455,-8049.000,-413.000,64.000,232.000,89.000,-276.000,0.000,0.000,0
2026-01-31 04:22:19,27494,-8219.000,-446.000,417.000,31.000,1552.000,-406.000,0.000,0.000,0
2026-01-31 04:22:19,27534,-8461.000,-652.000,92.000,-1342.000,-683.000,307.000,0.000,0.000,0
2026-01-31 04:22:19,27574,-8042.000,-565.000,27.000,-1728.000,-1120.000,-45.000,0.000,0.000,0
2026-01-31 04:22:19,27614,-7701.000,-437.000,66.000,-1926.000,-134.000,-83.000,0.000,0.000,0
2026-01-31 04:22:19,27654,-8028.000,-489.000,178.000,-2011.000,624.000,97.000,0.000,0.000,0
2026-01-31 04:22:19,27694,-6899.000,-513.000,-391.000,-2563.000,261.000,751.000,0.000,0.000,0
2026-01-31 04:22:19,27734,-8139.000,-856.000,-636.000,-1829.000,-847.000,1090.000,0.000,0.000,0
2026-01-31 04:22:19,27774,-9385.000,-649.000,-153.000,818.000,-452.000,-1305.000,0.000,0.000,0
2026-01-31 04:22:19,27814,-8759.000,-101.000,-65.000,1728.000,172.000,-2495.000,0.000,0.000,0
2026-01-31 04:22:19,27854,-7931.000,-372.000,44.000,472.000,-115.000,239.000,0.000,0.000,0
2026-01-31 04:22:19,27894,-8119.000,-705.000,84.000,78.000,650.000,1348.000,0.000,0.000,0
2026-01-31 04:22:19,27934,-8069.000,-403.000,258.000,-135.000,374.000,-288.000,0.000,0.000,0
2026-01-31 04:22:19,27974,-8235.000,-534.000,-71.000,-534.000,-695.000,-443.000,0.000,0.000,0
2026-01-31 04:22:19,28014,-7852.000,-474.000,-181.000,-164.000,-479.000,-281.000,0.000,0.000,0
2026-01-31 04:22:19,28054,-7668.000,-498.000,-280.000,101.000,15.000,374.000,0.000,0.000,0
2026-01-31 04:22:19,28094,-8408.000,-521.000,-139.000,87.000,605.000,237.000,0.000,0.000,0
2026-01-31 04:22:19,28134,-8245.000,-680.000,-36.000,-68.000,-45.000,-491.000,0.000,0.000,0
2026-01-31 04:22:19,28174,-8200.000,-524.000,12.000,149.000,-637.000,-90.000,0.000,0.000,0
2026-01-31 04:22:19,28214,-8249.000,-586.000,50.000,-63.000,-132.000,46.000,0.000,0.000,0
2026-01-31 04:22:19,28254,-7479.000,-447.000,-10.000,-21.000,544.000,164.000,0.000,0.000,0
2026-01-31 04:22:20,28294,-8331.000,-553.000,34.000,-131.000,59.000,586.000,0.000,0.000,0
2026-01-31 04:22:20,28334,-8366.000,-486.000,190.000,-230.000,-262.000,6.000,0.000,0.000,0
2026-01-31 04:22:20,28374,-8317.000,-524.000,19.000,94.000,-144.000,-745.000,0.000,0.000,0
2026-01-31 04:22:20,28414,-8443.000,-571.000,-220.000,113.000,24.000,-102.000,0.000,0.000,0
2026-01-31 04:22:20,28455,-8369.000,-573.000,27.000,57.000,392.000,203.000,0.000,0.000,0
2026-01-31 04:22:20,28494,-8225.000,-581.000,112.000,90.000,66.000,41.000,0.000,0.000,0
2026-01-31 04:22:20,28534,-8265.000,-540.000,-122.000,-160.000,-342.000,77.000,0.000,0.000,0
2026-01-31 04:22:20,28574,-8184.000,-550.000,-62.000,-117.000,-79.000,-28.000,0.000,0.000,0
2026-01-31 04:22:20,28614,-8124.000,-474.000,-22.000,69.000,209.000,41.000,0.000,0.000,0
2026-01-31 04:22:20,28654,-8212.000,-549.000,-2.000,-11.000,-22.000,6.000,0.000,0.000,0
2026-01-31 04:22:20,28694,-8205.000,-510.000,-24.000,-17.000,-165.000,53.000,0.000,0.000,0
2026-01-31 04:22:20,28734,-8235.000,-548.000,-100.000,-47.000,-27.000,42.000,0.000,0.000,0
2026-01-31 04:22:20,28774,-8216.000,-514.000,-53.000,24.000,122.000,-41.000,0.000,0.000,0
2026-01-31 04:22:20,28814,-8221.000,-520.000,14.000,53.000,-41.000,-8.000,0.000,0.000,0
2026-01-31 04:22:20,28854,-8199.000,-526.000,-32.000,-48.000,-105.000,21.000,0.000,0.000,0
2026-01-31 04:22:20,28894,-8184.000,-520.000,-57.000,-35.000,11.000,35.000,0.000,0.000,0
2026-01-31 04:22:20,28934,-8239.000,-514.000,-47.000,38.000,83.000,40.000,0.000,0.000,0
2026-01-31 04:22:20,28974,-8251.000,-538.000,-24.000,23.000,-33.000,-16.000,0.000,0.000,0
2026-01-31 04:22:20,29017,-8211.000,-531.000,-37.000,1.000,5.000,-36.000,0.000,0.000,0
2026-01-31 04:22:20,29054,-8213.000,-534.000,-20.000,17.000,41.000,-12.000,0.000,0.000,0
2026-01-31 04:22:20,29094,-8220.000,-525.000,-19.000,3.000,12.000,19.000,0.000,0.000,0
2026-01-31 04:22:20,29134,-8217.000,-526.000,-34.000,-21.000,-54.000,29.000,0.000,0.000,0
2026-01-31 04:22:20,29174,-8215.000,-530.000,-49.000,-3.000,-17.000,23.000,0.000,0.000,0
2026-01-31 04:22:20,29214,-8219.000,-525.000,-37.000,14.000,38.000,11.000,0.000,0.000,0
2026-01-31 04:22:20,29254,-8221.000,-518.000,-22.000,3.000,26.000,-3.000,0.000,0.000,0
2026-01-31 04:22:21,29294,-8221.000,-528.000,-28.000,7.000,-36.000,-7.000,0.000,0.000,0
2026-01-31 04:22:21,29334,-8217.000,-528.000,-27.000,6.000,-32.000,0.000,0.000,0.000,0
2026-01-31 04:22:21,29374,-8198.000,-524.000,-37.000,-17.000,7.000,5.000,0.000,0.000,0
2026-01-31 04:22:21,29414,-8213.000,-520.000,-25.000,9.000,-13.000,13.000,0.000,0.000,0
2026-01-31 04:22:21,29455,-8213.000,-524.000,-30.000,-4.000,-10.000,7.000,0.000,0.000,0
2026-01-31 04:22:21,29494,-8224.000,-526.000,-41.000,-4.000,9.000,0.000,0.000,0.000,0
2026-01-31 04:22:21,29534,-8217.000,-523.000,-24.000,7.000,8.000,-5.000,0.000,0.000,0
2026-01-31 04:22:21,29574,-8221.000,-528.000,-28.000,9.000,-6.000,-8.000,0.000,0.000,0
2026-01-31 04:22:21,29614,-8220.000,-529.000,-28.000,-5.000,-5.000,2.000,0.000,0.000,0
2026-01-31 04:22:21,29654,-8216.000,-528.000,-32.000,-1.000,-10.000,6.000,0.000,0.000,0
2026-01-31 04:22:21,29694,-8211.000,-526.000,-27.000,-6.000,-5.000,7.000,0.000,0.000,0
2026-01-31 04:22:21,29734,-8215.000,-524.000,-30.000,4.000,-4.000,4.000,0.000,0.000,0
2026-01-31 04:22:21,29774,-8220.000,-529.000,-36.000,7.000,1.000,0.000,0.000,0.000,0
2026-01-31 04:22:21,29814,-8220.000,-524.000,-32.000,4.000,-2.000,-3.000,0.000,0.000,0
2026-01-31 04:22:21,29854,-8217.000,-529.000,-22.000,2.000,-6.000,4.000,0.000,0.000,0
2026-01-31 04:22:21,29894,-8215.000,-520.000,-30.000,-4.000,-8.000,7.000,0.000,0.000,0
2026-01-31 04:22:21,29934,-8216.000,-525.000,-33.000,1.000,-7.000,11.000,0.000,0.000,0
2026-01-31 04:22:21,29974,-8215.000,-526.000,-37.000,4.000,-5.000,7.000,0.000,0.000,0
2026-01-31 04:22:21,30014,-8221.000,-527.000,-36.000,1.000,1.000,2.000,0.000,0.000,0
2026-01-31 04:22:21,30054,-8217.000,-523.000,-33.000,4.000,-1.000,1.000,0.000,0.000,0
2026-01-31 04:22:21,30094,-8213.000,-524.000,-32.000,2.000,-2.000,1.000,0.000,0.000,0
2026-01-31 04:22:21,30134,-8220.000,-530.000,-31.000,3.000,-2.000,0.000,0.000,0.000,0
2026-01-31 04:22:21,30174,-8215.000,-527.000,-38.000,-2.000,-6.000,4.000,0.000,0.000,0
2026-01-31 04:22:21,30214,-8216.000,-522.000,-30.000,-1.000,-7.000,5.000,0.000,0.000,0
2026-01-31 04:22:21,30254,-8213.000,-524.000,-32.000,5.000,-2.000,-2.000,0.000,0.000,0
2026-01-31 04:22:22,30294,-8223.000,-525.000,-28.000,0.000,4.000,3.000,0.000,0.000,0
2026-01-31 04:22:22,30334,-8221.000,-526.000,-39.000,-4.000,-6.000,5.000,0.000,0.000,0
2026-01-31 04:22:22,30374,-8225.000,-529.000,-32.000,5.000,-4.000,2.000,0.000,0.000,0
2026-01-31 04:22:22,30414,-8216.000,-525.000,-37.000,-5.000,2.000,3.000,0.000,0.000,0
2026-01-31 04:22:22,30455,-8216.000,-528.000,-37.000,1.000,-5.000,-2.000,0.000,0.000,0
2026-01-31 04:22:22,30494,-8213.000,-529.000,-30.000,9.000,-1.000,-3.000,0.000,0.000,0
2026-01-31 04:22:22,30534,-8215.000,-533.000,-38.000,-8.000,-3.000,5.000,0.000,0.000,0
2026-01-31 04:22:22,30574,-8213.000,-525.000,-33.000,10.000,-2.000,1.000,0.000,0.000,0
2026-01-31 04:22:22,30614,-8214.000,-526.000,-35.000,0.000,1.000,3.000,0.000,0.000,0
2026-01-31 04:22:22,30654,-8222.000,-531.000,-37.000,-6.000,-1.000,1.000,0.000,0.000,0
2026-01-31 04:22:22,30694,-8219.000,-526.000,-41.000,8.000,-7.000,4.000,0.000,0.000,0
2026-01-31 04:22:22,30734,-8220.000,-529.000,-28.000,0.000,-4.000,4.000,0.000,0.000,0
2026-01-31 04:22:22,30774,-8221.000,-529.000,-39.000,-6.000,1.000,1.000,0.000,0.000,0
2026-01-31 04:22:22,30814,-8223.000,-528.000,-28.000,5.000,-4.000,-2.000,0.000,0.000,0
2026-01-31 04:22:22,30854,-8218.000,-524.000,-30.000,1.000,-4.000,3.000,0.000,0.000,0
2026-01-31 04:22:22,30897,-8217.000,-520.000,-36.000,-1.000,-2.000,3.000,0.000,0.000,0
2026-01-31 04:22:22,30937,-8210.000,-527.000,-36.000,-6.000,-2.000,3.000,0.000,0.000,0
2026-01-31 04:22:22,30974,-8220.000,-524.000,-34.000,-12.000,4.000,0.000,0.000,0.000,0
2026-01-31 04:22:22,31019,-8211.000,-523.000,-31.000,8.000,3.000,-1.000,0.000,0.000,0
2026-01-31 04:22:22,31054,-8213.000,-529.000,-31.000,1.000,1.000,0.000,0.000,0.000,0
2026-01-31 04:22:22,31094,-8220.000,-528.000,-29.000,-3.000,-4.000,1.000,0.000,0.000,0
2026-01-31 04:22:22,31134,-8225.000,-525.000,-34.000,-2.000,-3.000,2.000,0.000,0.000,0
2026-01-31 04:22:22,31174,-8219.000,-526.000,-38.000,1.000,-6.000,4.000,0.000,0.000,0
2026-01-31 04:22:22,31214,-8218.000,-525.000,-25.000,-4.000,-3.000,4.000,0.000,0.000,0
2026-01-31 04:22:22,31254,-8214.000,-529.000,-29.000,2.000,-4.000,1.000,0.000,0.000,0
2026-01-31 04:22:23,31294,-8217.000,-524.000,-34.000,1.000,-1.000,1.000,0.000,0.000,0
2026-01-31 04:22:23,31334,-8224.000,-528.000,-31.000,1.000,-2.000,4.000,0.000,0.000,0
2026-01-31 04:22:23,31374,-8217.000,-527.000,-32.000,6.000,-3.000,2.000,0.000,0.000,0
2026-01-31 04:22:23,31414,-8222.000,-531.000,-31.000,-3.000,-4.000,3.000,0.000,0.000,0
2026-01-31 04:22:23,31455,-8222.000,-527.000,-33.000,0.000,1.000,1.000,0.000,0.000,0
2026-01-31 04:22:23,31494,-8216.000,-527.000,-30.000,7.000,-1.000,0.000,0.000,0.000,0
2026-01-31 04:22:23,31534,-8217.000,-522.000,-29.000,-3.000,-6.000,3.000,0.000,0.000,0
2026-01-31 04:22:23,31574,-8220.000,-526.000,-29.000,-1.000,-5.000,5.000,0.000,0.000,0
2026-01-31 04:22:23,31614,-8217.000,-523.000,-30.000,1.000,-6.000,8.000,0.000,0.000,0
2026-01-31 04:22:23,31654,-8216.000,-523.000,-25.000,-4.000,-7.000,1.000,0.000,0.000,0
2026-01-31 04:22:23,31694,-8212.000,-529.000,-29.000,2.000,-3.000,7.000,0.000,0.000,0
2026-01-31 04:22:23,31734,-8219.000,-529.000,-38.000,0.000,-2.000,-1.000,0.000,0.000,0
2026-01-31 04:22:23,31774,-8219.000,-526.000,-36.000,7.000,2.000,-4.000,0.000,0.000,0
2026-01-31 04:22:23,31814,-8218.000,-529.000,-32.000,8.000,1.000,0.000,0.000,0.000,0
2026-01-31 04:22:23,31854,-8218.000,-526.000,-27.000,7.000,-6.000,3.000,0.000,0.000,0
2026-01-31 04:22:23,31894,-8217.000,-528.000,-30.000,-5.000,5.000,3.000,0.000,0.000,0
2026-01-31 04:22:23,31934,-8217.000,-528.000,-38.000,2.000,-9.000,4.000,0.000,0.000,0
2026-01-31 04:22:23,31974,-8212.000,-531.000,-35.000,4.000,-3.000,2.000,0.000,0.000,0
2026-01-31 04:22:23,32014,-8223.000,-529.000,-37.000,-5.000,-4.000,2.000,0.000,0.000,0
2026-01-31 04:22:23,32054,-8218.000,-525.000,-38.000,2.000,-4.000,2.000,0.000,0.000,0
2026-01-31 04:22:23,32094,-8220.000,-525.000,-34.000,-1.000,-4.000,2.000,0.000,0.000,0
2026-01-31 04:22:23,32134,-8219.000,-523.000,-30.000,-1.000,-5.000,2.000,0.000,0.000,0
2026-01-31 04:22:23,32174,-8221.000,-533.000,-33.000,-3.000,-3.000,0.000,0.000,0.000,0
2026-01-31 04:22:23,32214,-8218.000,-527.000,-40.000,3.000,-2.000,1.000,0.000,0.000,0
2026-01-31 04:22:23,32254,-8214.000,-526.000,-34.000,-3.000,-4.000,1.000,0.000,0.000,0
2026-01-31 04:22:24,32294,-8216.000,-526.000,-30.000,2.000,-3.000,0.000,0.000,0.000,0
2026-01-31 04:22:24,32334,-8215.000,-530.000,-37.000,-4.000,0.000,2.000,0.000,0.000,0
2026-01-31 04:22:24,32374,-8228.000,-530.000,-37.000,-5.000,-5.000,4.000,0.000,0.000,0
2026-01-31 04:22:24,32414,-8218.000,-528.000,-35.000,4.000,-3.000,4.000,0.000,0.000,0
2026-01-31 04:22:24,32455,-8219.000,-531.000,-32.000,0.000,-4.000,2.000,0.000,0.000,0
2026-01-31 04:22:24,32494,-8215.000,-524.000,-34.000,2.000,-2.000,1.000,0.000,0.000,0
2026-01-31 04:22:24,32534,-8217.000,-532.000,-31.000,-1.000,-1.000,4.000,0.000,0.000,0
2026-01-31 04:22:24,32574,-8218.000,-526.000,-33.000,-1.000,-1.000,5.000,0.000,0.000,0
2026-01-31 04:22:24,32614,-8215.000,-528.000,-33.000,0.000,-5.000,2.000,0.000,0.000,0
2026-01-31 04:22:24,32654,-8220.000,-531.000,-33.000,1.000,-4.000,1.000,0.000,0.000,0
2026-01-31 04:22:24,32694,-8217.000,-526.000,-26.000,2.000,-1.000,3.000,0.000,0.000,0
2026-01-31 04:22:24,32734,-8213.000,-527.000,-36.000,2.000,-6.000,3.000,0.000,0.000,0
2026-01-31 04:22:24,32774,-8217.000,-528.000,-31.000,3.000,-5.000,5.000,0.000,0.000,0
2026-01-31 04:22:24,32814,-8221.000,-526.000,-29.000,4.000,-6.000,4.000,0.000,0.000,0
2026-01-31 04:22:24,32854,-8218.000,-527.000,-35.000,1.000,-6.000,5.000,0.000,0.000,0
2026-01-31 04:22:24,32894,-8214.000,-529.000,-34.000,-1.000,4.000,1.000,0.000,0.000,0
2026-01-31 04:22:24,32935,-8216.000,-531.000,-35.000,2.000,0.000,1.000,0.000,0.000,0
2026-01-31 04:22:24,32974,-8220.000,-526.000,-33.000,0.000,-4.000,1.000,0.000,0.000,0
2026-01-31 04:22:24,33017,-8222.000,-527.000,-31.000,4.000,7.000,-4.000,0.000,0.000,0
2026-01-31 04:22:24,33054,-8214.000,-526.000,-31.000,1.000,5.000,-2.000,0.000,0.000,0
2026-01-31 04:22:24,33094,-8215.000,-525.000,-33.000,1.000,-6.000,2.000,0.000,0.000,0
2026-01-31 04:22:24,33134,-8215.000,-532.000,-31.000,2.000,-5.000,2.000,0.000,0.000,0
2026-01-31 04:22:24,33174,-8217.000,-529.000,-36.000,-3.000,-2.000,5.000,0.000,0.000,0
2026-01-31 04:22:24,33214,-8211.000,-530.000,-36.000,0.000,-9.000,4.000,0.000,0.000,0
2026-01-31 04:22:24,33254,-8216.000,-519.000,-33.000,-3.000,-2.000,4.000,0.000,0.000,0
2026-01-31 04:22:25,33294,-8215.000,-528.000,-38.000,-2.000,-2.000,1.000,0.000,0.000,0
2026-01-31 04:22:25,33334,-8216.000,-524.000,-42.000,6.000,-4.000,4.000,0.000,0.000,0
2026-01-31 04:22:25,33374,-8218.000,-527.000,-41.000,6.000,0.000,2.000,0.000,0.000,0
2026-01-31 04:22:25,33414,-8209.000,-526.000,-30.000,2.000,-1.000,3.000,0.000,0.000,0
2026-01-31 04:22:25,33455,-8219.000,-525.000,-35.000,-1.000,-5.000,3.000,0.000,0.000,0
2026-01-31 04:22:25,33494,-8214.000,-526.000,-32.000,-1.000,-3.000,3.000,0.000,0.000,0
2026-01-31 04:22:25,33534,-8217.000,-531.000,-28.000,1.000,-3.000,0.000,0.000,0.000,0
2026-01-31 04:22:25,33574,-8218.000,-528.000,-31.000,2.000,-1.000,3.000,0.000,0.000,0
2026-01-31 04:22:25,33614,-8215.000,-530.000,-32.000,0.000,-4.000,0.000,0.000,0.000,0
2026-01-31 04:22:25,33654,-8218.000,-526.000,-33.000,0.000,-1.000,3.000,0.000,0.000,0
2026-01-31 04:22:25,33694,-8217.000,-531.000,-33.000,1.000,-5.000,5.000,0.000,0.000,0
2026-01-31 04:22:25,33734,-8219.000,-526.000,-39.000,2.000,-4.000,2.000,0.000,0.000,0
2026-01-31 04:22:25,33774,-8223.000,-529.000,-34.000,0.000,-3.000,2.000,0.000,0.000,0
2026-01-31 04:22:25,33814,-8220.000,-528.000,-31.000,3.000,-4.000,5.000,0.000,0.000,0
2026-01-31 04:22:25,33854,-8217.000,-528.000,-34.000,2.000,-4.000,2.000,0.000,0.000,0
2026-01-31 04:22:25,33894,-8213.000,-527.000,-32.000,4.000,-3.000,4.000,0.000,0.000,0
2026-01-31 04:22:25,33934,-8219.000,-527.000,-34.000,-3.000,-5.000,4.000,0.000,0.000,0
2026-01-31 04:22:25,33974,-8222.000,-526.000,-35.000,1.000,-3.000,3.000,0.000,0.000,0
2026-01-31 04:22:25,34014,-8219.000,-521.000,-29.000,0.000,-3.000,0.000,0.000,0.000,0
2026-01-31 04:22:25,34054,-8215.000,-526.000,-34.000,0.000,2.000,1.000,0.000,0.000,0
2026-01-31 04:22:25,34094,-8216.000,-528.000,-26.000,2.000,0.000,-2.000,0.000,0.000,0
2026-01-31 04:22:25,34134,-8218.000,-529.000,-34.000,1.000,-3.000,-1.000,0.000,0.000,0
2026-01-31 04:22:25,34174,-8227.000,-529.000,-32.000,3.000,-6.000,4.000,0.000,0.000,0
2026-01-31 04:22:25,34214,-8221.000,-522.000,-33.000,0.000,-3.000,2.000,0.000,0.000,0
2026-01-31 04:22:25,34254,-8221.000,-526.000,-33.000,1.000,-4.000,3.000,0.000,0.000,0
2026-01-31 04:22:26,34294,-8218.000,-524.000,-31.000,2.000,-7.000,5.000,0.000,0.000,0
2026-01-31 04:22:26,34334,-8221.000,-527.000,-34.000,2.000,-3.000,2.000,0.000,0.000,0
2026-01-31 04:22:26,34374,-8216.000,-532.000,-32.000,-1.000,-3.000,1.000,0.000,0.000,0
2026-01-31 04:22:26,34414,-8214.000,-529.000,-26.000,1.000,-5.000,1.000,0.000,0.000,0
2026-01-31 04:22:26,34455,-8218.000,-527.000,-34.000,1.000,2.000,1.000,0.000,0.000,0
2026-01-31 04:22:26,34494,-8221.000,-530.000,-39.000,3.000,-2.000,1.000,0.000,0.000,0
2026-01-31 04:22:26,34534,-8219.000,-529.000,-41.000,1.000,-2.000,2.000,0.000,0.000,0
2026-01-31 04:22:26,34574,-8216.000,-533.000,-33.000,2.000,-4.000,4.000,0.000,0.000,0
2026-01-31 04:22:26,34614,-8217.000,-528.000,-33.000,-2.000,-4.000,4.000,0.000,0.000,0
2026-01-31 04:22:26,34654,-8220.000,-531.000,-37.000,0.000,-4.000,6.000,0.000,0.000,0
2026-01-31 04:22:26,34694,-8223.000,-534.000,-31.000,0.000,-4.000,2.000,0.000,0.000,0
2026-01-31 04:22:26,34734,-8222.000,-525.000,-40.000,-3.000,-3.000,2.000,0.000,0.000,0
2026-01-31 04:22:26,34774,-8221.000,-530.000,-39.000,4.000,-4.000,1.000,0.000,0.000,0
2026-01-31 04:22:26,34814,-8218.000,-530.000,-38.000,1.000,-3.000,1.000,0.000,0.000,0
2026-01-31 04:22:26,34854,-8215.000,-529.000,-28.000,2.000,-1.000,0.000,0.000,0.000,0
2026-01-31 04:22:26,34897,-8216.000,-530.000,-30.000,0.000,-3.000,-1.000,0.000,0.000,0
2026-01-31 04:22:26,34936,-8219.000,-529.000,-36.000,-1.000,1.000,1.000,0.000,0.000,0
2026-01-31 04:22:26,34974,-8215.000,-527.000,-33.000,-2.000,0.000,0.000,0.000,0.000,0
2026-01-31 04:22:26,35014,-8216.000,-532.000,-38.000,0.000,-3.000,1.000,0.000,0.000,0
2026-01-31 04:22:26,35054,-8214.000,-523.000,-28.000,3.000,-2.000,1.000,0.000,0.000,0
2026-01-31 04:22:26,35094,-8215.000,-525.000,-33.000,-2.000,-3.000,3.000,0.000,0.000,0
2026-01-31 04:22:26,35134,-8215.000,-532.000,-39.000,3.000,-4.000,0.000,0.000,0.000,0
2026-01-31 04:22:26,35174,-8216.000,-533.000,-35.000,0.000,-4.000,1.000,0.000,0.000,0
2026-01-31 04:22:26,35214,-8215.000,-528.000,-35.000,-2.000,-5.000,2.000,0.000,0.000,0
2026-01-31 04:22:26,35254,-8218.000,-528.000,-37.000,3.000,-5.000,4.000,0.000,0.000,0
2026-01-31 04:22:27,35294,-8216.000,-529.000,-37.000,0.000,-2.000,4.000,0.000,0.000,0
2026-01-31 04:22:27,35334,-8220.000,-530.000,-32.000,0.000,-1.000,2.000,0.000,0.000,0
2026-01-31 04:22:27,35374,-8219.000,-532.000,-36.000,1.000,-1.000,2.000,0.000,0.000,0
2026-01-31 04:22:27,35414,-8211.000,-531.000,-36.000,0.000,-6.000,1.000,0.000,0.000,0
2026-01-31 04:22:27,35455,-8220.000,-527.000,-37.000,0.000,-4.000,6.000,0.000,0.000,0
2026-01-31 04:22:27,35494,-8220.000,-532.000,-26.000,0.000,-6.000,3.000,0.000,0.000,0
2026-01-31 04:22:27,35534,-8217.000,-528.000,-30.000,0.000,-2.000,3.000,0.000,0.000,0
2026-01-31 04:22:27,35574,-8212.000,-529.000,-36.000,1.000,-2.000,0.000,0.000,0.000,0
2026-01-31 04:22:27,35614,-8215.000,-531.000,-39.000,1.000,-4.000,3.000,0.000,0.000,0
2026-01-31 04:22:27,35654,-8220.000,-528.000,-26.000,1.000,1.000,0.000,0.000,0.000,0
2026-01-31 04:22:27,35694,-8216.000,-528.000,-35.000,0.000,-2.000,1.000,0.000,0.000,0
2026-01-31 04:22:27,35734,-8219.000,-528.000,-29.000,1.000,-3.000,-2.000,0.000,0.000,0
2026-01-31 04:22:27,35774,-8213.000,-531.000,-39.000,4.000,-3.000,2.000,0.000,0.000,0
2026-01-31 04:22:27,35814,-8219.000,-532.000,-31.000,-2.000,-5.000,4.000,0.000,0.000,0
2026-01-31 04:22:27,35854,-8217.000,-537.000,-37.000,1.000,-4.000,3.000,0.000,0.000,0
2026-01-31 04:22:27,35894,-8217.000,-533.000,-43.000,-1.000,-5.000,5.000,0.000,0.000,0
2026-01-31 04:22:27,35934,-8216.000,-528.000,-38.000,1.000,-3.000,4.000,0.000,0.000,0
2026-01-31 04:22:27,35974,-8216.000,-532.000,-25.000,0.000,-5.000,3.000,0.000,0.000,0
2026-01-31 04:22:27,36014,-8217.000,-527.000,-31.000,0.000,-4.000,1.000,0.000,0.000,0
2026-01-31 04:22:27,36054,-8221.000,-534.000,-30.000,2.000,-5.000,1.000,0.000,0.000,0
2026-01-31 04:22:27,36094,-8221.000,-533.000,-33.000,-1.000,-5.000,5.000,0.000,0.000,0
2026-01-31 04:22:27,36134,-8215.000,-525.000,-30.000,-1.000,-4.000,1.000,0.000,0.000,0
2026-01-31 04:22:27,36174,-8223.000,-532.000,-33.000,0.000,-2.000,0.000,0.000,0.000,0
2026-01-31 04:22:27,36214,-8223.000,-523.000,-30.000,1.000,-1.000,1.000,0.000,0.000,0
2026-01-31 04:22:27,36254,-8220.000,-529.000,-32.000,3.000,-4.000,6.000,0.000,0.000,0
2026-01-31 04:22:28,36294,-8215.000,-532.000,-37.000,0.000,-5.000,4.000,0.000,0.000,0
2026-01-31 04:22:28,36334,-8218.000,-529.000,-30.000,0.000,-10.000,7.000,0.000,0.000,0
2026-01-31 04:22:28,36374,-8217.000,-528.000,-40.000,3.000,-5.000,5.000,0.000,0.000,0
2026-01-31 04:22:28,36414,-8216.000,-529.000,-37.000,-2.000,-5.000,3.000,0.000,0.000,0
2026-01-31 04:22:28,36455,-8216.000,-531.000,-34.000,3.000,-5.000,4.000,0.000,0.000,0
2026-01-31 04:22:28,36494,-8219.000,-530.000,-35.000,2.000,-3.000,5.000,0.000,0.000,0
2026-01-31 04:22:28,36534,-8217.000,-533.000,-37.000,1.000,-5.000,5.000,0.000,0.000,0
2026-01-31 04:22:28,36574,-8219.000,-533.000,-36.000,3.000,-9.000,5.000,0.000,0.000,0
2026-01-31 04:22:28,36614,-8217.000,-528.000,-32.000,3.000,-4.000,7.000,0.000,0.000,0
2026-01-31 04:22:28,36654,-8217.000,-532.000,-33.000,4.000,-3.000,3.000,0.000,0.000,0
2026-01-31 04:22:28,36694,-8219.000,-532.000,-38.000,2.000,-5.000,3.000,0.000,0.000,0
2026-01-31 04:22:28,36734,-8219.000,-533.000,-31.000,-1.000,-4.000,4.000,0.000,0.000,0
2026-01-31 04:22:28,36774,-8216.000,-528.000,-39.000,2.000,-4.000,7.000,0.000,0.000,0
2026-01-31 04:22:28,36814,-8213.000,-529.000,-34.000,3.000,-5.000,7.000,0.000,0.000,0
2026-01-31 04:22:28,36854,-8218.000,-528.000,-28.000,5.000,-4.000,4.000,0.000,0.000,0
2026-01-31 04:22:28,36894,-8218.000,-532.000,-32.000,3.000,-2.000,3.000,0.000,0.000,0
2026-01-31 04:22:28,36934,-8213.000,-526.000,-25.000,4.000,-2.000,3.000,0.000,0.000,0
2026-01-31 04:22:28,36974,-8215.000,-532.000,-36.000,2.000,-6.000,6.000,0.000,0.000,0
2026-01-31 04:22:28,37019,-8216.000,-522.000,-32.000,2.000,-6.000,5.000,0.000,0.000,0
2026-01-31 04:22:28,37054,-8219.000,-529.000,-35.000,2.000,-6.000,7.000,0.000,0.000,0
2026-01-31 04:22:28,37094,-8216.000,-528.000,-40.000,1.000,-5.000,3.000,0.000,0.000,0
2026-01-31 04:22:28,37134,-8220.000,-532.000,-37.000,6.000,1.000,1.000,0.000,0.000,0
2026-01-31 04:22:28,37174,-8212.000,-527.000,-28.000,0.000,-6.000,5.000,0.000,0.000,0
2026-01-31 04:22:28,37214,-8215.000,-525.000,-37.000,1.000,-7.000,9.000,0.000,0.000,0
2026-01-31 04:22:28,37254,-8217.000,-536.000,-33.000,1.000,-7.000,6.000,0.000,0.000,0
2026-01-31 04:22:29,37294,-8218.000,-529.000,-31.000,5.000,-7.000,7.000,0.000,0.000,0
2026-01-31 04:22:29,37334,-8217.000,-533.000,-26.000,3.000,-3.000,5.000,0.000,0.000,0
2026-01-31 04:22:29,37374,-8219.000,-533.000,-38.000,3.000,-2.000,4.000,0.000,0.000,0
2026-01-31 04:22:29,37414,-8219.000,-524.000,-28.000,1.000,-5.000,6.000,0.000,0.000,0
2026-01-31 04:22:29,37455,-8215.000,-526.000,-35.000,0.000,-7.000,7.000,0.000,0.000,0
2026-01-31 04:22:29,37494,-8215.000,-533.000,-41.000,2.000,-6.000,4.000,0.000,0.000,0
2026-01-31 04:22:29,37534,-8218.000,-527.000,-31.000,0.000,-1.000,0.000,0.000,0.000,0
2026-01-31 04:22:29,37574,-8216.000,-529.000,-40.000,1.000,-4.000,1.000,0.000,0.000,0
2026-01-31 04:22:29,37614,-8213.000,-533.000,-37.000,5.000,-3.000,2.000,0.000,0.000,0
2026-01-31 04:22:29,37654,-8218.000,-533.000,-37.000,4.000,-4.000,4.000,0.000,0.000,0
2026-01-31 04:22:29,37694,-8219.000,-533.000,-35.000,-3.000,-4.000,4.000,0.000,0.000,0
2026-01-31 04:22:29,37734,-8220.000,-526.000,-38.000,1.000,-1.000,3.000,0.000,0.000,0
2026-01-31 04:22:29,37774,-8218.000,-527.000,-37.000,0.000,-5.000,2.000,0.000,0.000,0
2026-01-31 04:22:29,37814,-8215.000,-533.000,-37.000,2.000,-3.000,2.000,0.000,0.000,0
2026-01-31 04:22:29,37854,-8216.000,-530.000,-34.000,4.000,1.000,1.000,0.000,0.000,0
2026-01-31 04:22:29,37894,-8220.000,-529.000,-34.000,1.000,-3.000,3.000,0.000,0.000,0
2026-01-31 04:22:29,37934,-8219.000,-527.000,-34.000,1.000,-2.000,4.000,0.000,0.000,0
2026-01-31 04:22:29,37974,-8212.000,-531.000,-33.000,5.000,-3.000,3.000,0.000,0.000,0
2026-01-31 04:22:29,38014,-8214.000,-531.000,-32.000,-1.000,0.000,-1.000,0.000,0.000,0
2026-01-31 04:22:29,38054,-8216.000,-529.000,-27.000,2.000,-4.000,2.000,0.000,0.000,0
2026-01-31 04:22:29,38094,-8215.000,-530.000,-35.000,-2.000,-4.000,5.000,0.000,0.000,0
2026-01-31 04:22:29,38134,-8218.000,-528.000,-38.000,-1.000,-5.000,4.000,0.000,0.000,0
2026-01-31 04:22:29,38174,-8222.000,-529.000,-35.000,1.000,-4.000,2.000,0.000,0.000,0
2026-01-31 04:22:29,38214,-8214.000,-529.000,-34.000,2.000,-3.000,5.000,0.000,0.000,0
2026-01-31 04:22:29,38254,-8215.000,-531.000,-37.000,1.000,-2.000,1.000,0.000,0.000,0
2026-01-31 04:22:30,38294,-8215.000,-530.000,-38.000,-1.000,-3.000,2.000,0.000,0.000,0
2026-01-31 04:22:30,38334,-8215.000,-527.000,-33.000,-1.000,-4.000,3.000,0.000,0.000,0
2026-01-31 04:22:30,38374,-8224.000,-529.000,-41.000,3.000,-5.000,2.000,0.000,0.000,0
2026-01-31 04:22:30,38414,-8219.000,-531.000,-34.000,-1.000,-1.000,1.000,0.000,0.000,0
2026-01-31 04:22:30,38455,-8217.000,-529.000,-27.000,1.000,-2.000,4.000,0.000,0.000,0
2026-01-31 04:22:30,38494,-8225.000,-534.000,-35.000,0.000,-4.000,3.000,0.000,0.000,0
2026-01-31 04:22:30,38534,-8219.000,-525.000,-34.000,2.000,-2.000,6.000,0.000,0.000,0
2026-01-31 04:22:30,38574,-8223.000,-532.000,-31.000,-2.000,-4.000,3.000,0.000,0.000,0
2026-01-31 04:22:30,38614,-8216.000,-528.000,-41.000,-1.000,-3.000,2.000,0.000,0.000,0
2026-01-31 04:22:30,38654,-8218.000,-529.000,-27.000,1.000,0.000,1.000,0.000,0.000,0
2026-01-31 04:22:30,38694,-8218.000,-530.000,-36.000,-2.000,-4.000,0.000,0.000,0.000,0
2026-01-31 04:22:30,38734,-8215.000,-531.000,-33.000,1.000,-3.000,1.000,0.000,0.000,0
2026-01-31 04:22:30,38774,-8214.000,-532.000,-31.000,-2.000,-4.000,4.000,0.000,0.000,0
2026-01-31 04:22:30,38814,-8218.000,-530.000,-36.000,1.000,-1.000,2.000,0.000,0.000,0
2026-01-31 04:22:30,38854,-8221.000,-529.000,-33.000,2.000,-2.000,0.000,0.000,0.000,0
2026-01-31 04:22:30,38896,-8215.000,-529.000,-35.000,1.000,-3.000,2.000,0.000,0.000,0
2026-01-31 04:22:30,38936,-8224.000,-534.000,-35.000,1.000,-1.000,3.000,0.000,0.000,0
2026-01-31 04:22:30,38977,-8214.000,-530.000,-43.000,0.000,-3.000,2.000,0.000,0.000,0
2026-01-31 04:22:30,39014,-8219.000,-531.000,-33.000,-2.000,-1.000,1.000,0.000,0.000,0
2026-01-31 04:22:30,39058,-8222.000,-525.000,-35.000,-1.000,-3.000,1.000,0.000,0.000,0
2026-01-31 04:22:30,39094,-8221.000,-532.000,-35.000,-1.000,0.000,2.000,0.000,0.000,0
2026-01-31 04:22:30,39134,-8217.000,-526.000,-31.000,4.000,-1.000,5.000,0.000,0.000,0
2026-01-31 04:22:30,39174,-8217.000,-534.000,-41.000,1.000,-4.000,2.000,0.000,0.000,0
2026-01-31 04:22:30,39214,-8231.000,-529.000,-34.000,1.000,-3.000,5.000,0.000,0.000,0
2026-01-31 04:22:30,39254,-8216.000,-530.000,-36.000,4.000,-3.000,4.000,0.000,0.000,0
2026-01-31 04:22:31,39294,-8219.000,-531.000,-38.000,1.000,-6.000,3.000,0.000,0.000,0
2026-01-31 04:22:31,39334,-8218.000,-533.000,-35.000,2.000,-5.000,5.000,0.000,0.000,0
2026-01-31 04:22:31,39374,-8219.000,-527.000,-32.000,2.000,-5.000,7.000,0.000,0.000,0
2026-01-31 04:22:31,39414,-8217.000,-531.000,-36.000,4.000,0.000,4.000,0.000,0.000,0
2026-01-31 04:22:31,39455,-8222.000,-533.000,-33.000,4.000,-4.000,2.000,0.000,0.000,0
2026-01-31 04:22:31,39494,-8218.000,-534.000,-34.000,2.000,-3.000,3.000,0.000,0.000,0
2026-01-31 04:22:31,39534,-8220.000,-528.000,-33.000,1.000,-2.000,2.000,0.000,0.000,0
2026-01-31 04:22:31,39574,-8219.000,-532.000,-33.000,0.000,-1.000,2.000,0.000,0.000,0
2026-01-31 04:22:31,39614,-8218.000,-528.000,-30.000,2.000,-4.000,5.000,0.000,0.000,0
2026-01-31 04:22:31,39654,-8220.000,-528.000,-35.000,0.000,-4.000,3.000,0.000,0.000,0
2026-01-31 04:22:31,39694,-8220.000,-530.000,-37.000,2.000,-4.000,1.000,0.000,0.000,0
2026-01-31 04:22:31,39734,-8215.000,-527.000,-33.000,-1.000,0.000,1.000,0.000,0.000,0
2026-01-31 04:22:31,39774,-8221.000,-530.000,-29.000,-3.000,-1.000,2.000,0.000,0.000,0
2026-01-31 04:22:31,39814,-8221.000,-533.000,-39.000,-1.000,-1.000,3.000,0.000,0.000,0
2026-01-31 04:22:31,39854,-8225.000,-533.000,-40.000,-1.000,0.000,2.000,0.000,0.000,0
2026-01-31 04:22:31,39894,-8213.000,-533.000,-26.000,1.000,-4.000,4.000,0.000,0.000,0
2026-01-31 04:22:31,39934,-8221.000,-531.000,-27.000,1.000,-1.000,1.000,0.000,0.000,0
2026-01-31 04:22:31,39974,-8219.000,-530.000,-30.000,1.000,-1.000,2.000,0.000,0.000,0
2026-01-31 04:22:31,40014,-8211.000,-532.000,-33.000,2.000,-3.000,2.000,0.000,0.000,0
2026-01-31 04:22:31,40054,-8222.000,-529.000,-33.000,3.000,-1.000,3.000,0.000,0.000,0
2026-01-31 04:22:31,40094,-8218.000,-532.000,-31.000,-3.000,-3.000,1.000,0.000,0.000,0
2026-01-31 04:22:31,40134,-8222.000,-524.000,-35.000,1.000,-3.000,4.000,0.000,0.000,0
2026-01-31 04:22:31,40174,-8215.000,-528.000,-29.000,2.000,-5.000,3.000,0.000,0.000,0
2026-01-31 04:22:31,40214,-8223.000,-533.000,-39.000,-1.000,0.000,3.000,0.000,0.000,0
2026-01-31 04:22:31,40254,-8217.000,-532.000,-36.000,2.000,-5.000,4.000,0.000,0.000,0
2026-01-31 04:22:32,40294,-8220.000,-535.000,-35.000,3.000,-3.000,1.000,0.000,0.000,0
2026-01-31 04:22:32,40334,-8221.000,-528.000,-43.000,0.000,-4.000,2.000,0.000,0.000,0
2026-01-31 04:22:32,40374,-8217.000,-534.000,-28.000,1.000,-1.000,2.000,0.000,0.000,0
2026-01-31 04:22:32,40414,-8215.000,-535.000,-27.000,0.000,-2.000,1.000,0.000,0.000,0
2026-01-31 04:22:32,40455,-8210.000,-531.000,-33.000,-2.000,-3.000,4.000,0.000,0.000,0
2026-01-31 04:22:32,40494,-8215.000,-531.000,-25.000,3.000,-6.000,5.000,0.000,0.000,0
2026-01-31 04:22:32,40534,-8219.000,-533.000,-41.000,3.000,-2.000,4.000,0.000,0.000,0
2026-01-31 04:22:32,40574,-8214.000,-528.000,-39.000,0.000,-5.000,3.000,0.000,0.000,0
2026-01-31 04:22:32,40614,-8217.000,-529.000,-36.000,3.000,-3.000,4.000,0.000,0.000,0
2026-01-31 04:22:32,40654,-8216.000,-533.000,-32.000,3.000,-7.000,7.000,0.000,0.000,0
2026-01-31 04:22:32,40694,-8215.000,-529.000,-38.000,-2.000,-6.000,7.000,0.000,0.000,0
2026-01-31 04:22:32,40734,-8217.000,-528.000,-38.000,3.000,-1.000,2.000,0.000,0.000,0
2026-01-31 04:22:32,40774,-8220.000,-532.000,-32.000,4.000,-3.000,4.000,0.000,0.000,0
2026-01-31 04:22:32,40814,-8220.000,-534.000,-38.000,4.000,-3.000,4.000,0.000,0.000,0
2026-01-31 04:22:32,40854,-8217.000,-531.000,-32.000,2.000,-3.000,5.000,0.000,0.000,0
2026-01-31 04:22:32,40894,-8220.000,-531.000,-37.000,-2.000,-5.000,4.000,0.000,0.000,0
2026-01-31 04:22:32,40937,-8218.000,-529.000,-35.000,3.000,-1.000,0.000,0.000,0.000,0
2026-01-31 04:22:32,40977,-8225.000,-532.000,-23.000,-7.000,1.000,1.000,0.000,0.000,0
2026-01-31 04:22:32,41014,-8222.000,-532.000,-37.000,-2.000,-1.000,1.000,0.000,0.000,0
2026-01-31 04:22:32,41054,-8213.000,-531.000,-36.000,0.000,-1.000,0.000,0.000,0.000,0
2026-01-31 04:22:32,41094,-8225.000,-534.000,-33.000,-1.000,-1.000,0.000,0.000,0.000,0
2026-01-31 04:22:32,41134,-8218.000,-531.000,-35.000,-4.000,-3.000,5.000,0.000,0.000,0
2026-01-31 04:22:32,41174,-8224.000,-529.000,-35.000,1.000,-4.000,1.000,0.000,0.000,0
2026-01-31 04:22:32,41214,-8219.000,-531.000,-28.000,-1.000,1.000,0.000,0.000,0.000,0
2026-01-31 04:22:32,41254,-8216.000,-534.000,-30.000,-2.000,-1.000,0.000,0.000,0.000,0
2026-01-31 04:22:33,41294,-8222.000,-530.000,-29.000,2.000,-3.000,2.000,0.000,0.000,0
2026-01-31 04:22:33,41334,-8213.000,-531.000,-36.000,1.000,0.000,2.000,0.000,0.000,0
2026-01-31 04:22:33,41374,-8213.000,-533.000,-39.000,0.000,-1.000,1.000,0.000,0.000,0
2026-01-31 04:22:33,41414,-8220.000,-529.000,-34.000,2.000,0.000,-1.000,0.000,0.000,0
2026-01-31 04:22:33,41455,-8215.000,-534.000,-37.000,1.000,0.000,-1.000,0.000,0.000,0
2026-01-31 04:22:33,41494,-8218.000,-531.000,-29.000,3.000,-3.000,1.000,0.000,0.000,0
2026-01-31 04:22:33,41534,-8211.000,-527.000,-33.000,1.000,-7.000,4.000,0.000,0.000,0
2026-01-31 04:22:33,41574,-8220.000,-533.000,-33.000,0.000,-5.000,6.000,0.000,0.000,0
2026-01-31 04:22:33,41614,-8222.000,-531.000,-34.000,5.000,-1.000,5.000,0.000,0.000,0
2026-01-31 04:22:33,41654,-8219.000,-529.000,-32.000,6.000,-4.000,1.000,0.000,0.000,0
2026-01-31 04:22:33,41694,-8224.000,-535.000,-27.000,4.000,-6.000,5.000,0.000,0.000,0
2026-01-31 04:22:33,41734,-8216.000,-536.000,-34.000,1.000,-3.000,7.000,0.000,0.000,0
2026-01-31 04:22:33,41774,-8220.000,-532.000,-35.000,4.000,-5.000,5.000,0.000,0.000,0
2026-01-31 04:22:33,41814,-8212.000,-530.000,-35.000,4.000,-4.000,5.000,0.000,0.000,0
2026-01-31 04:22:33,41854,-8220.000,-527.000,-34.000,0.000,-3.000,2.000,0.000,0.000,0
2026-01-31 04:22:33,41894,-8219.000,-531.000,-35.000,2.000,-5.000,4.000,0.000,0.000,0
2026-01-31 04:22:33,41934,-8220.000,-531.000,-32.000,5.000,-4.000,6.000,0.000,0.000,0
2026-01-31 04:22:33,41974,-8212.000,-528.000,-32.000,1.000,-5.000,3.000,0.000,0.000,0
2026-01-31 04:22:33,42014,-8221.000,-526.000,-30.000,2.000,-3.000,6.000,0.000,0.000,0
2026-01-31 04:22:33,42054,-8220.000,-527.000,-31.000,-1.000,-4.000,4.000,0.000,0.000,0
2026-01-31 04:22:33,42094,-8218.000,-532.000,-33.000,2.000,-2.000,1.000,0.000,0.000,0
2026-01-31 04:22:33,42134,-8219.000,-526.000,-33.000,-1.000,-3.000,1.000,0.000,0.000,0
2026-01-31 04:22:33,42174,-8220.000,-533.000,-35.000,1.000,-3.000,2.000,0.000,0.000,0
2026-01-31 04:22:33,42214,-8219.000,-531.000,-35.000,0.000,-2.000,4.000,0.000,0.000,0
2026-01-31 04:22:33,42254,-8218.000,-528.000,-30.000,3.000,-1.000,3.000,0.000,0.000,0
2026-01-31 04:22:34,42294,-8213.000,-529.000,-35.000,2.000,-1.000,0.000,0.000,0.000,0
2026-01-31 04:22:34,42334,-8213.000,-532.000,-34.000,0.000,-5.000,4.000,0.000,0.000,0
2026-01-31 04:22:34,42374,-8216.000,-528.000,-32.000,1.000,-5.000,5.000,0.000,0.000,0
2026-01-31 04:22:34,42414,-8216.000,-536.000,-31.000,0.000,-4.000,3.000,0.000,0.000,0
2026-01-31 04:22:34,42455,-8225.000,-533.000,-38.000,-2.000,-7.000,2.000,0.000,0.000,0
2026-01-31 04:22:34,42494,-8221.000,-529.000,-33.000,0.000,-4.000,1.000,0.000,0.000,0
2026-01-31 04:22:34,42534,-8220.000,-531.000,-31.000,1.000,-2.000,3.000,0.000,0.000,0
2026-01-31 04:22:34,42574,-8219.000,-530.000,-39.000,-1.000,-2.000,2.000,0.000,0.000,0
2026-01-31 04:22:34,42614,-8220.000,-533.000,-33.000,-1.000,-4.000,2.000,0.000,0.000,0
2026-01-31 04:22:34,42654,-8222.000,-531.000,-30.000,0.000,-2.000,2.000,0.000,0.000,0
2026-01-31 04:22:34,42694,-8218.000,-527.000,-38.000,-3.000,-4.000,-1.000,0.000,0.000,0
2026-01-31 04:22:34,42734,-8216.000,-529.000,-35.000,3.000,3.000,-1.000,0.000,0.000,0
2026-01-31 04:22:34,42774,-8217.000,-534.000,-30.000,1.000,-1.000,4.000,0.000,0.000,0
2026-01-31 04:22:34,42814,-8225.000,-531.000,-26.000,1.000,1.000,1.000,0.000,0.000,0
2026-01-31 04:22:34,42854,-8223.000,-532.000,-31.000,-3.000,-2.000,2.000,0.000,0.000,0
2026-01-31 04:22:34,42897,-8214.000,-537.000,-36.000,1.000,-1.000,2.000,0.000,0.000,0
2026-01-31 04:22:34,42936,-8221.000,-534.000,-38.000,1.000,-4.000,2.000,0.000,0.000,0
2026-01-31 04:22:34,42974,-8218.000,-527.000,-27.000,-2.000,-2.000,3.000,0.000,0.000,0
2026-01-31 04:22:34,43014,-8217.000,-531.000,-39.000,0.000,-1.000,2.000,0.000,0.000,0
2026-01-31 04:22:34,43054,-8218.000,-532.000,-28.000,0.000,-1.000,3.000,0.000,0.000,0
2026-01-31 04:22:34,43094,-8212.000,-528.000,-30.000,2.000,-1.000,1.000,0.000,0.000,0
2026-01-31 04:22:34,43134,-8215.000,-531.000,-28.000,0.000,-1.000,1.000,0.000,0.000,0
2026-01-31 04:22:34,43174,-8219.000,-528.000,-36.000,2.000,-1.000,1.000,0.000,0.000,0
2026-01-31 04:22:34,43214,-8217.000,-532.000,-32.000,3.000,-1.000,2.000,0.000,0.000,0
2026-01-31 04:22:34,43254,-8220.000,-531.000,-32.000,4.000,-2.000,4.000,0.000,0.000,0
2026-01-31 04:22:35,43294,-8220.000,-532.000,-29.000,2.000,-1.000,2.000,0.000,0.000,0
2026-01-31 04:22:35,43334,-8221.000,-535.000,-27.000,4.000,-3.000,4.000,0.000,0.000,0
2026-01-31 04:22:35,43374,-8214.000,-532.000,-32.000,1.000,-7.000,4.000,0.000,0.000,0
2026-01-31 04:22:35,43414,-8218.000,-527.000,-33.000,1.000,-3.000,3.000,0.000,0.000,0
2026-01-31 04:22:35,43455,-8217.000,-526.000,-33.000,1.000,-1.000,3.000,0.000,0.000,0
2026-01-31 04:22:35,43494,-8218.000,-529.000,-38.000,-1.000,-6.000,4.000,0.000,0.000,0
2026-01-31 04:22:35,43534,-8222.000,-531.000,-37.000,0.000,-1.000,-1.000,0.000,0.000,0
2026-01-31 04:22:35,43574,-8216.000,-529.000,-34.000,0.000,-1.000,3.000,0.000,0.000,0
2026-01-31 04:22:35,43614,-8214.000,-529.000,-42.000,3.000,0.000,3.000,0.000,0.000,0
2026-01-31 04:22:35,43654,-8214.000,-531.000,-38.000,-2.000,-4.000,3.000,0.000,0.000,0
2026-01-31 04:22:35,43694,-8211.000,-527.000,-36.000,0.000,-3.000,0.000,0.000,0.000,0
2026-01-31 04:22:35,43734,-8212.000,-534.000,-28.000,1.000,-2.000,0.000,0.000,0.000,0
2026-01-31 04:22:35,43774,-8218.000,-528.000,-41.000,0.000,-2.000,4.000,0.000,0.000,0
2026-01-31 04:22:35,43814,-8220.000,-529.000,-34.000,1.000,-2.000,3.000,0.000,0.000,0
2026-01-31 04:22:35,43854,-8216.000,-532.000,-36.000,0.000,-6.000,4.000,0.000,0.000,0
2026-01-31 04:22:35,43894,-8215.000,-530.000,-35.000,0.000,-1.000,1.000,0.000,0.000,0
2026-01-31 04:22:35,43934,-8220.000,-529.000,-29.000,-3.000,-4.000,1.000,0.000,0.000,0
2026-01-31 04:22:35,43974,-8216.000,-530.000,-29.000,6.000,0.000,1.000,0.000,0.000,0
2026-01-31 04:22:35,44014,-8212.000,-526.000,-34.000,-3.000,1.000,3.000,0.000,0.000,0
2026-01-31 04:22:35,44054,-8218.000,-532.000,-36.000,-1.000,-6.000,4.000,0.000,0.000,0
2026-01-31 04:22:35,44094,-8220.000,-530.000,-32.000,5.000,-5.000,2.000,0.000,0.000,0
2026-01-31 04:22:35,44134,-8218.000,-533.000,-25.000,-4.000,2.000,1.000,0.000,0.000,0
2026-01-31 04:22:35,44174,-8217.000,-529.000,-35.000,-1.000,-1.000,3.000,0.000,0.000,0
2026-01-31 04:22:35,44214,-8221.000,-532.000,-33.000,6.000,-3.000,1.000,0.000,0.000,0
2026-01-31 04:22:35,44254,-8220.000,-531.000,-40.000,-3.000,-5.000,2.000,0.000,0.000,0
2026-01-31 04:22:36,44294,-8219.000,-526.000,-36.000,1.000,-5.000,1.000,0.000,0.000,0
2026-01-31 04:22:36,44334,-8215.000,-530.000,-32.000,4.000,1.000,2.000,0.000,0.000,0
2026-01-31 04:22:36,44374,-8217.000,-531.000,-36.000,-5.000,-1.000,-1.000,0.000,0.000,0
2026-01-31 04:22:36,44414,-8215.000,-530.000,-31.000,12.000,-5.000,2.000,0.000,0.000,0
2026-01-31 04:22:36,44455,-8214.000,-527.000,-38.000,-7.000,2.000,5.000,0.000,0.000,0
2026-01-31 04:22:36,44494,-8219.000,-530.000,-36.000,-3.000,-6.000,2.000,0.000,0.000,0
2026-01-31 04:22:36,44534,-8213.000,-536.000,-36.000,5.000,-1.000,0.000,0.000,0.000,0
2026-01-31 04:22:36,44574,-8220.000,-532.000,-38.000,-1.000,-5.000,5.000,0.000,0.000,0
2026-01-31 04:22:36,44614,-8220.000,-531.000,-27.000,4.000,1.000,5.000,0.000,0.000,0
2026-01-31 04:22:36,44654,-8219.000,-530.000,-39.000,-3.000,-7.000,3.000,0.000,0.000,0
2026-01-31 04:22:36,44694,-8219.000,-531.000,-33.000,4.000,-2.000,5.000,0.000,0.000,0
2026-01-31 04:22:36,44734,-8219.000,-532.000,-35.000,0.000,-6.000,3.000,0.000,0.000,0
2026-01-31 04:22:36,44774,-8221.000,-526.000,-36.000,8.000,-2.000,3.000,0.000,0.000,0
2026-01-31 04:22:36,44814,-8219.000,-531.000,-35.000,2.000,-4.000,9.000,0.000,0.000,0
2026-01-31 04:22:36,44854,-8219.000,-534.000,-43.000,-2.000,-7.000,7.000,0.000,0.000,0
2026-01-31 04:22:36,44897,-8218.000,-526.000,-25.000,-3.000,3.000,0.000,0.000,0.000,0
2026-01-31 04:22:36,44937,-8216.000,-534.000,-39.000,-1.000,-1.000,0.000,0.000,0.000,0
2026-01-31 04:22:36,44974,-8223.000,-531.000,-32.000,6.000,-2.000,1.000,0.000,0.000,0
2026-01-31 04:22:36,45017,-8217.000,-523.000,-29.000,-4.000,0.000,2.000,0.000,0.000,0
2026-01-31 04:22:36,45054,-8216.000,-533.000,-38.000,4.000,-4.000,2.000,0.000,0.000,0
2026-01-31 04:22:36,45094,-8217.000,-534.000,-37.000,-3.000,-3.000,1.000,0.000,0.000,0
2026-01-31 04:22:36,45134,-8220.000,-533.000,-40.000,3.000,-3.000,1.000,0.000,0.000,0
2026-01-31 04:22:36,45174,-8210.000,-531.000,-33.000,0.000,0.000,2.000,0.000,0.000,0
2026-01-31 04:22:36,45214,-8216.000,-532.000,-39.000,0.000,-3.000,0.000,0.000,0.000,0
2026-01-31 04:22:36,45254,-8213.000,-530.000,-33.000,3.000,-2.000,0.000,0.000,0.000,0
2026-01-31 04:22:37,45294,-8221.000,-531.000,-33.000,-4.000,-1.000,4.000,0.000,0.000,0
2026-01-31 04:22:37,45334,-8217.000,-527.000,-42.000,3.000,-8.000,2.000,0.000,0.000,0
2026-01-31 04:22:37,45374,-8213.000,-532.000,-32.000,-2.000,-2.000,2.000,0.000,0.000,0
2026-01-31 04:22:37,45414,-8220.000,-528.000,-32.000,2.000,-6.000,3.000,0.000,0.000,0
2026-01-31 04:22:37,45455,-8218.000,-533.000,-29.000,6.000,-1.000,2.000,0.000,0.000,0
2026-01-31 04:22:37,45494,-8223.000,-534.000,-36.000,-3.000,-3.000,3.000,0.000,0.000,0
2026-01-31 04:22:37,45534,-8213.000,-538.000,-33.000,3.000,-6.000,1.000,0.000,0.000,0
2026-01-31 04:22:37,45574,-8213.000,-535.000,-38.000,5.000,-1.000,1.000,0.000,0.000,0
2026-01-31 04:22:37,45614,-8217.000,-537.000,-46.000,1.000,1.000,-1.000,0.000,0.000,0
2026-01-31 04:22:37,45654,-8212.000,-534.000,-47.000,2.000,-5.000,1.000,0.000,0.000,0
2026-01-31 04:22:37,45694,-8213.000,-531.000,-36.000,7.000,-1.000,2.000,0.000,0.000,0
2026-01-31 04:22:37,45734,-8207.000,-535.000,-38.000,0.000,0.000,3.000,0.000,0.000,0
2026-01-31 04:22:37,45774,-8225.000,-531.000,-27.000,5.000,-4.000,0.000,0.000,0.000,0
2026-01-31 04:22:37,45814,-8219.000,-527.000,-27.000,2.000,2.000,3.000,0.000,0.000,0
2026-01-31 04:22:37,45854,-8217.000,-532.000,-27.000,-6.000,-1.000,2.000,0.000,0.000,0
2026-01-31 04:22:37,45894,-8223.000,-529.000,-30.000,5.000,-3.000,5.000,0.000,0.000,0
2026-01-31 04:22:37,45934,-8214.000,-525.000,-34.000,11.000,7.000,-6.000,0.000,0.000,0
2026-01-31 04:22:37,45974,-7928.000,-459.000,-29.000,3.000,-28.000,22.000,0.000,0.000,0
2026-01-31 04:22:37,46014,-7751.000,-414.000,-13.000,17.000,483.000,133.000,0.000,0.000,0
2026-01-31 04:22:37,46054,-7494.000,-503.000,-246.000,-68.000,-680.000,288.000,0.000,0.000,0
2026-01-31 04:22:37,46094,-7452.000,-577.000,-373.000,-214.000,-45.000,-1107.000,0.000,0.000,0
2026-01-31 04:22:37,46134,-8731.000,-407.000,146.000,633.000,125.000,302.000,0.000,0.000,0
2026-01-31 04:22:37,46174,-8696.000,-721.000,-262.000,-493.000,478.000,620.000,0.000,0.000,0
2026-01-31 04:22:37,46214,-9197.000,-600.000,-51.000,240.000,-101.000,170.000,0.000,0.000,0
2026-01-31 04:22:37,46254,-7386.000,-546.000,-104.000,-231.000,-318.000,-1493.000,0.000,0.000,0
2026-01-31 04:22:38,46294,-9395.000,-678.000,-121.000,432.000,-25.000,66.000,0.000,0.000,0
2026-01-31 04:22:38,46334,-8323.000,-707.000,-123.000,-109.000,664.000,322.000,0.000,0.000,0
2026-01-31 04:22:38,46374,-7889.000,-646.000,-128.000,197.000,341.000,781.000,0.000,0.000,0
2026-01-31 04:22:38,46414,-9183.000,-767.000,273.000,-288.000,-339.000,300.000,0.000,0.000,0
2026-01-31 04:22:38,46455,-7813.000,-54.000,76.000,-481.000,-689.000,-1964.000,0.000,0.000,0
2026-01-31 04:22:38,46494,-8017.000,-940.000,10.000,-1453.000,575.000,3481.000,0.000,0.000,0
2026-01-31 04:22:38,46534,-12302.000,-596.000,1091.000,742.000,-1856.000,1583.000,0.000,0.000,0
2026-01-31 04:22:38,46574,-6830.000,-39.000,-775.000,-231.000,-11158.000,2052.000,0.000,0.000,0
2026-01-31 04:22:38,46614,-6334.000,-1025.000,-1020.000,1922.000,-1033.000,6803.000,0.000,0.000,0
2026-01-31 04:22:38,46654,-7699.000,-824.000,-208.000,5096.000,8501.000,-795.000,0.000,0.000,0
2026-01-31 04:22:38,46694,-8014.000,366.000,28.000,5602.000,-1048.000,-2415.000,0.000,0.000,0
2026-01-31 04:22:38,46734,-8777.000,-539.000,-314.000,1979.000,-4724.000,-1327.000,0.000,0.000,0
2026-01-31 04:22:38,46774,-10430.000,-185.000,1194.000,1990.000,1221.000,-5669.000,0.000,0.000,0
2026-01-31 04:22:38,46814,-7105.000,770.000,1217.000,-769.000,663.000,4566.000,0.000,0.000,0
2026-01-31 04:22:38,46854,-8280.000,-1061.000,540.000,-3527.000,5378.000,5351.000,0.000,0.000,0
2026-01-31 04:22:38,46894,-8747.000,354.000,818.000,-5077.000,-2125.000,-2442.000,0.000,0.000,0
2026-01-31 04:22:38,46934,-9768.000,-735.000,-845.000,-9292.000,-6824.000,-2871.000,0.000,0.000,0
2026-01-31 04:22:38,46974,-7897.000,-14.000,228.000,-7656.000,1041.000,-8147.000,0.000,0.000,0
2026-01-31 04:22:38,47017,-10119.000,-1125.000,-436.000,-4098.000,1697.000,3982.000,0.000,0.000,0
2026-01-31 04:22:38,47054,-8546.000,-954.000,-290.000,-1702.000,2522.000,1474.000,0.000,0.000,0
2026-01-31 04:22:38,47094,-7940.000,-604.000,-125.000,2000.000,1715.000,-3213.000,0.000,0.000,0
2026-01-31 04:22:38,47134,-7886.000,-327.000,105.000,4955.000,-154.000,-4784.000,0.000,0.000,0
2026-01-31 04:22:38,47174,-7858.000,-161.000,-127.000,7155.000,740.000,-4673.000,0.000,0.000,0
2026-01-31 04:22:38,47214,-9002.000,-205.000,546.000,7681.000,3118.000,-2320.000,0.000,0.000,0
2026-01-31 04:22:38,47254,-8454.000,61.000,806.000,6180.000,1375.000,-1581.000,0.000,0.000,0
2026-01-31 04:22:39,47294,-8182.000,-224.000,393.000,2411.000,1302.000,-1573.000,0.000,0.000,0
2026-01-31 04:22:39,47334,-7563.000,262.000,1038.000,-109.000,2374.000,-908.000,0.000,0.000,0
2026-01-31 04:22:39,47374,-8144.000,-326.000,318.000,-2854.000,-408.000,2349.000,0.000,0.000,0
2026-01-31 04:22:39,47414,-7783.000,-404.000,168.000,-3738.000,465.000,388.000,0.000,0.000,0
2026-01-31 04:22:39,47455,-8107.000,-79.000,558.000,-3646.000,740.000,7.000,0.000,0.000,0
2026-01-31 04:22:39,47494,-7530.000,-307.000,40.000,-3280.000,-1599.000,3026.000,0.000,0.000,0
2026-01-31 04:22:39,47534,-7865.000,-720.000,-105.000,-1494.000,165.000,2753.000,0.000,0.000,0
2026-01-31 04:22:39,47574,-7850.000,-207.000,416.000,665.000,252.000,1286.000,0.000,0.000,0
2026-01-31 04:22:39,47614,-8744.000,-645.000,110.000,1630.000,-1380.000,2409.000,0.000,0.000,0
2026-01-31 04:22:39,47654,-9474.000,-775.000,-114.000,3017.000,-9038.000,9687.000,0.000,0.000,0
2026-01-31 04:22:39,47694,-7013.000,-875.000,-667.000,5742.000,-3371.000,4368.000,0.000,0.000,0
2026-01-31 04:22:39,47734,-9526.000,-267.000,563.000,8137.000,-872.000,5088.000,0.000,0.000,0
2026-01-31 04:22:39,47774,-10107.000,-1032.000,162.000,8890.000,-3635.000,6167.000,0.000,0.000,0
2026-01-31 04:22:39,47814,-5961.000,-757.000,-472.000,9953.000,482.000,5215.000,0.000,0.000,0
2026-01-31 04:22:39,47854,-8967.000,-547.000,609.000,9354.000,4119.000,2707.000,0.000,0.000,0
2026-01-31 04:22:39,47894,-7038.000,-391.000,992.000,6050.000,2187.000,-2140.000,0.000,0.000,0
2026-01-31 04:22:39,47934,-8205.000,-1121.000,539.000,2515.000,609.000,-2994.000,0.000,0.000,0
2026-01-31 04:22:39,47974,-9931.000,-864.000,850.000,-70.000,-1045.000,-6928.000,0.000,0.000,0
2026-01-31 04:22:39,48014,-9215.000,-772.000,144.000,-1272.000,-2824.000,-11208.000,0.000,0.000,0
2026-01-31 04:22:39,48054,-9378.000,-501.000,637.000,-1261.000,-453.000,-11937.000,0.000,0.000,0
2026-01-31 04:22:39,48094,-9135.000,-355.000,275.000,-1854.000,-1055.000,-10950.000,0.000,0.000,0
2026-01-31 04:22:39,48134,-9250.000,-627.000,581.000,-2928.000,-874.000,-7876.000,0.000,0.000,0
2026-01-31 04:22:39,48174,-7773.000,-805.000,51.000,-3149.000,-1419.000,-4612.000,0.000,0.000,0
2026-01-31 04:22:39,48214,-7322.000,-671.000,52.000,-2567.000,-921.000,-3099.000,0.000,0.000,0
2026-01-31 04:22:39,48254,-7314.000,-1035.000,194.000,-1710.000,-934.000,-440.000,0.000,0.000,0
2026-01-31 04:22:40,48294,-7041.000,-1016.000,638.000,-613.000,-356.000,2511.000,0.000,0.000,0
2026-01-31 04:22:40,48334,-6382.000,-1243.000,134.000,428.000,528.000,4683.000,0.000,0.000,0
2026-01-31 04:22:40,48374,-8684.000,-1390.000,169.000,1162.000,-36.000,5717.000,0.000,0.000,0
2026-01-31 04:22:40,48414,-9365.000,-1994.000,234.000,1915.000,191.000,7945.000,0.000,0.000,0
2026-01-31 04:22:40,48455,-9074.000,-2190.000,-39.000,6741.000,133.000,8137.000,0.000,0.000,0
2026-01-31 04:22:40,48494,-9180.000,-2071.000,242.000,9147.000,-144.000,5158.000,0.000,0.000,0
2026-01-31 04:22:40,48534,-8325.000,-2143.000,849.000,9558.000,7.000,2569.000,0.000,0.000,0
2026-01-31 04:22:40,48574,-7224.000,-2103.000,895.000,8559.000,-351.000,-935.000,0.000,0.000,0
2026-01-31 04:22:40,48614,-8025.000,-1317.000,726.000,6236.000,-3095.000,-6939.000,0.000,0.000,0
2026-01-31 04:22:40,48654,-7138.000,-1490.000,741.000,3731.000,-2266.000,-8515.000,0.000,0.000,0
2026-01-31 04:22:40,48694,-8935.000,-773.000,850.000,2398.000,-321.000,-8697.000,0.000,0.000,0
2026-01-31 04:22:40,48737,-7902.000,-1179.000,599.000,1569.000,641.000,-4518.000,0.000,0.000,0
2026-01-31 04:22:40,48777,-7701.000,-942.000,833.000,2760.000,2245.000,-1543.000,0.000,0.000,0
2026-01-31 04:22:40,48814,-7238.000,-1089.000,855.000,3284.000,2057.000,-270.000,0.000,0.000,0
2026-01-31 04:22:40,48854,-7032.000,-1082.000,852.000,3237.000,2689.000,1776.000,0.000,0.000,0
2026-01-31 04:22:40,48894,-6928.000,-1295.000,1077.000,1911.000,4234.000,3728.000,0.000,0.000,0
2026-01-31 04:22:40,48934,-7966.000,-1169.000,1230.000,380.000,3963.000,4367.000,0.000,0.000,0
2026-01-31 04:22:40,48974,-8783.000,-1485.000,1018.000,-1018.000,2394.000,5017.000,0.000,0.000,0
2026-01-31 04:22:40,49019,-8626.000,-1726.000,816.000,-486.000,934.000,5108.000,0.000,0.000,0
2026-01-31 04:22:40,49054,-8682.000,-1726.000,710.000,115.000,502.000,4677.000,0.000,0.000,0
2026-01-31 04:22:40,49094,-7865.000,-1910.000,742.000,467.000,144.000,3437.000,0.000,0.000,0
2026-01-31 04:22:40,49134,-8462.000,-1403.000,995.000,-198.000,448.000,887.000,0.000,0.000,0
2026-01-31 04:22:40,49174,-8754.000,-1008.000,726.000,-2385.000,-655.000,-1552.000,0.000,0.000,0
2026-01-31 04:22:40,49214,-7229.000,-1078.000,455.000,-4545.000,-2003.000,-2784.000,0.000,0.000,0
2026-01-31 04:22:40,49254,-7776.000,-639.000,301.000,-4689.000,-2374.000,-5547.000,0.000,0.000,0
2026-01-31 04:22:41,49294,-7058.000,-218.000,1176.000,-7062.000,-332.000,-6351.000,0.000,0.000,0
2026-01-31 04:22:41,49334,-10449.000,69.000,235.000,-9987.000,369.000,-6365.000,0.000,0.000,0
2026-01-31 04:22:41,49374,-9598.000,-996.000,765.000,-11535.000,-573.000,-136.000,0.000,0.000,0
2026-01-31 04:22:41,49414,-8035.000,-2148.000,-277.000,-9221.000,-1483.000,2227.000,0.000,0.000,0
2026-01-31 04:22:41,49455,-8248.000,-2934.000,-1337.000,-2755.000,-4476.000,1054.000,0.000,0.000,0
2026-01-31 04:22:41,49494,-8319.000,-3301.000,-688.000,2344.000,-3861.000,-1932.000,0.000,0.000,0
2026-01-31 04:22:41,49534,-8879.000,-3221.000,-43.000,7298.000,-2762.000,-3333.000,0.000,0.000,0
2026-01-31 04:22:41,49574,-9906.000,-3946.000,745.000,5994.000,-2224.000,-3927.000,0.000,0.000,0
2026-01-31 04:22:41,49614,-6623.000,-5240.000,-182.000,5242.000,-4112.000,-4885.000,0.000,0.000,0
2026-01-31 04:22:41,49654,-6352.000,-4092.000,-153.000,4602.000,-943.000,-10474.000,0.000,0.000,0
2026-01-31 04:22:41,49694,-7726.000,-3545.000,1538.000,1484.000,2181.000,-11242.000,0.000,0.000,0
2026-01-31 04:22:41,49734,-6741.000,-3781.000,2110.000,-2563.000,4965.000,-8363.000,0.000,0.000,0
2026-01-31 04:22:41,49774,-6543.000,-4491.000,705.000,-4276.000,4832.000,-5198.000,0.000,0.000,0
2026-01-31 04:22:41,49814,-5573.000,-4924.000,8.000,-2100.000,4159.000,-5363.000,0.000,0.000,0
2026-01-31 04:22:41,49854,-5073.000,-4944.000,24.000,2260.000,3755.000,-4866.000,0.000,0.000,0
2026-01-31 04:22:41,49894,-5061.000,-4158.000,1590.000,2766.000,6530.000,-2361.000,0.000,0.000,0
2026-01-31 04:22:41,49934,-4427.000,-5527.000,1761.000,1428.000,4154.000,4144.000,0.000,0.000,0
2026-01-31 04:22:41,49974,-5544.000,-5974.000,1240.000,1.000,-395.000,3111.000,0.000,0.000,0
2026-01-31 04:22:41,50014,-5676.000,-6323.000,684.000,651.000,-4066.000,1751.000,0.000,0.000,0
2026-01-31 04:22:41,50054,-5606.000,-6010.000,1315.000,1486.000,-2395.000,33.000,0.000,0.000,0
2026-01-31 04:22:41,50094,-5456.000,-5774.000,1122.000,575.000,-2884.000,-444.000,0.000,0.000,0
2026-01-31 04:22:41,50134,-5427.000,-6237.000,727.000,-309.000,-2882.000,374.000,0.000,0.000,0
2026-01-31 04:22:41,50174,-5344.000,-6457.000,36.000,736.000,-3230.000,357.000,0.000,0.000,0
2026-01-31 04:22:41,50214,-5990.000,-5992.000,845.000,747.000,-1311.000,-510.000,0.000,0.000,0
2026-01-31 04:22:41,50254,-6017.000,-6123.000,1186.000,189.000,-752.000,-74.000,0.000,0.000,0
2026-01-31 04:22:42,50294,-6011.000,-5891.000,961.000,-758.000,-329.000,-345.000,0.000,0.000,0
2026-01-31 04:22:42,50334,-5696.000,-6121.000,912.000,-301.000,336.000,51.000,0.000,0.000,0
2026-01-31 04:22:42,50374,-5405.000,-5825.000,1182.000,677.000,723.000,-296.000,0.000,0.000,0
2026-01-31 04:22:42,50414,-5473.000,-5358.000,1654.000,-259.000,881.000,-408.000,0.000,0.000,0
2026-01-31 04:22:42,50455,-5561.000,-5565.000,1339.000,-1261.000,503.000,578.000,0.000,0.000,0
2026-01-31 04:22:42,50494,-5705.000,-5751.000,1399.000,-571.000,474.000,1048.000,0.000,0.000,0
2026-01-31 04:22:42,50534,-5997.000,-5964.000,1415.000,-34.000,-144.000,1906.000,0.000,0.000,0
2026-01-31 04:22:42,50574,-6324.000,-6318.000,1182.000,138.000,-1139.000,1910.000,0.000,0.000,0
2026-01-31 04:22:42,50614,-6554.000,-6451.000,799.000,655.000,-1739.000,859.000,0.000,0.000,0
2026-01-31 04:22:42,50654,-6405.000,-6399.000,868.000,879.000,-832.000,104.000,0.000,0.000,0
2026-01-31 04:22:42,50694,-5484.000,-5871.000,876.000,393.000,769.000,-1742.000,0.000,0.000,0
2026-01-31 04:22:42,50734,-5590.000,-4872.000,1171.000,-986.000,1891.000,-2870.000,0.000,0.000,0
2026-01-31 04:22:42,50775,-5306.000,-4555.000,1302.000,-1766.000,2486.000,-813.000,0.000,0.000,0
2026-01-31 04:22:42,50814,-5856.000,-4978.000,1024.000,-1296.000,1823.000,2028.000,0.000,0.000,0
2026-01-31 04:22:42,50854,-6017.000,-5622.000,1145.000,-187.000,1255.000,3259.000,0.000,0.000,0
2026-01-31 04:22:42,50894,-6274.000,-5799.000,1479.000,274.000,139.000,2838.000,0.000,0.000,0
2026-01-31 04:22:42,50934,-6496.000,-6043.000,924.000,-7.000,-1888.000,1911.000,0.000,0.000,0
2026-01-31 04:22:42,50974,-6698.000,-5811.000,718.000,224.000,-1614.000,289.000,0.000,0.000,0
2026-01-31 04:22:42,51017,-6255.000,-5062.000,721.000,-295.000,-952.000,-129.000,0.000,0.000,0
2026-01-31 04:22:42,51054,-6184.000,-4958.000,626.000,-707.000,-724.000,39.000,0.000,0.000,0
2026-01-31 04:22:42,51094,-6285.000,-5188.000,286.000,-298.000,184.000,652.000,0.000,0.000,0
2026-01-31 04:22:42,51134,-6102.000,-5128.000,748.000,131.000,1006.000,593.000,0.000,0.000,0
2026-01-31 04:22:42,51174,-6571.000,-4999.000,1095.000,-191.000,970.000,504.000,0.000,0.000,0
2026-01-31 04:22:42,51214,-6698.000,-5094.000,1087.000,-714.000,917.000,663.000,0.000,0.000,0
2026-01-31 04:22:42,51254,-6130.000,-5051.000,430.000,-661.000,1028.000,675.000,0.000,0.000,0
2026-01-31 04:22:43,51294,-7057.000,-4601.000,647.000,3894.000,1245.000,1654.000,0.000,0.000,0
2026-01-31 04:22:43,51334,-7269.000,-4439.000,1291.000,3895.000,1125.000,2461.000,0.000,0.000,0
2026-01-31 04:22:43,51374,-7108.000,-5048.000,1826.000,3183.000,-458.000,3208.000,0.000,0.000,0
2026-01-31 04:22:43,51414,-7240.000,-5436.000,1475.000,1280.000,-1402.000,1793.000,0.000,0.000,0
2026-01-31 04:22:43,51455,-6961.000,-5070.000,1030.000,-344.000,-727.000,-1383.000,0.000,0.000,0
2026-01-31 04:22:43,51494,-7086.000,-4387.000,1044.000,-1790.000,11.000,-2132.000,0.000,0.000,0
2026-01-31 04:22:43,51534,-6590.000,-4122.000,735.000,-1950.000,444.000,-1815.000,0.000,0.000,0
2026-01-31 04:22:43,51574,-6249.000,-3935.000,796.000,-1651.000,789.000,-859.000,0.000,0.000,0
2026-01-31 04:22:43,51614,-6530.000,-3953.000,780.000,-834.000,333.000,581.000,0.000,0.000,0
2026-01-31 04:22:43,51654,-7418.000,-4102.000,846.000,178.000,-343.000,2192.000,0.000,0.000,0
2026-01-31 04:22:43,51694,-7840.000,-4810.000,870.000,1385.000,200.000,2203.000,0.000,0.000,0
2026-01-31 04:22:43,51734,-7264.000,-5136.000,1336.000,649.000,995.000,1336.000,0.000,0.000,0
2026-01-31 04:22:43,51774,-7123.000,-4602.000,1403.000,-2106.000,1228.000,-231.000,0.000,0.000,0
2026-01-31 04:22:43,51814,-7127.000,-4876.000,577.000,-2430.000,-440.000,-679.000,0.000,0.000,0
2026-01-31 04:22:43,51854,-6696.000,-4354.000,244.000,-293.000,-636.000,-1582.000,0.000,0.000,0
2026-01-31 04:22:43,51894,-7002.000,-3758.000,791.000,286.000,-277.000,-840.000,0.000,0.000,0
2026-01-31 04:22:43,51934,-6720.000,-4289.000,561.000,-227.000,-911.000,765.000,0.000,0.000,0
2026-01-31 04:22:43,51974,-6726.000,-4493.000,560.000,-339.000,-553.000,800.000,0.000,0.000,0
2026-01-31 04:22:43,52014,-7019.000,-4222.000,1033.000,-934.000,-234.000,254.000,0.000,0.000,0
2026-01-31 04:22:43,52054,-6844.000,-4197.000,865.000,-2202.000,-813.000,744.000,0.000,0.000,0
2026-01-31 04:22:43,52094,-7128.000,-4703.000,590.000,-1907.000,-503.000,1245.000,0.000,0.000,0
2026-01-31 04:22:43,52134,-7220.000,-4476.000,725.000,-1268.000,-599.000,794.000,0.000,0.000,0
2026-01-31 04:22:43,52174,-7491.000,-4612.000,665.000,-692.000,-1446.000,513.000,0.000,0.000,0
2026-01-31 04:22:43,52214,-6652.000,-4310.000,387.000,368.000,-1449.000,-460.000,0.000,0.000,0
2026-01-31 04:22:43,52254,-7685.000,-3433.000,1099.000,-225.000,-364.000,-273.000,0.000,0.000,0
2026-01-31 04:22:44,52294,-6819.000,-4276.000,622.000,-1570.000,492.000,906.000,0.000,0.000,0
2026-01-31 04:22:44,52334,-6796.000,-3655.000,1413.000,-3261.000,2269.000,110.000,0.000,0.000,0
2026-01-31 04:22:44,52374,-7341.000,-4222.000,834.000,-5171.000,52.000,1310.000,0.000,0.000,0
2026-01-31 04:22:44,52414,-7524.000,-4629.000,-131.000,-3706.000,-1070.000,679.000,0.000,0.000,0
2026-01-31 04:22:44,52455,-7293.000,-4733.000,168.000,18.000,-1180.000,-339.000,0.000,0.000,0
2026-01-31 04:22:44,52494,-7073.000,-4440.000,604.000,1147.000,-1858.000,-861.000,0.000,0.000,0
2026-01-31 04:22:44,52534,-6951.000,-4624.000,536.000,1439.000,-1843.000,-816.000,0.000,0.000,0
2026-01-31 04:22:44,52574,-6968.000,-3908.000,1016.000,-149.000,-483.000,-1380.000,0.000,0.000,0
2026-01-31 04:22:44,52614,-6617.000,-4149.000,-446.000,-3906.000,-2724.000,-628.000,0.000,0.000,0
2026-01-31 04:22:44,52654,-7123.000,-4877.000,-530.000,-2168.000,-703.000,231.000,0.000,0.000,0
2026-01-31 04:22:44,52694,-7214.000,-4514.000,415.000,934.000,764.000,346.000,0.000,0.000,0
2026-01-31 04:22:44,52737,-6783.000,-4721.000,938.000,250.000,-29.000,116.000,0.000,0.000,0
2026-01-31 04:22:44,52775,-7015.000,-4586.000,902.000,-370.000,70.000,-82.000,0.000,0.000,0
2026-01-31 04:22:44,52817,-7952.000,-6733.000,684.000,785.000,-153.000,-764.000,0.000,0.000,0
2026-01-31 04:22:44,52854,-7210.000,-6891.000,746.000,2115.000,-734.000,-2593.000,0.000,0.000,0
2026-01-31 04:22:44,52894,-6924.000,-5641.000,1333.000,2474.000,-1411.000,-6941.000,0.000,0.000,0
2026-01-31 04:22:44,52934,-6268.000,-5126.000,762.000,1040.000,-2447.000,-7825.000,0.000,0.000,0
2026-01-31 04:22:44,52974,-5715.000,-4618.000,587.000,-60.000,-1004.000,-4749.000,0.000,0.000,0
2026-01-31 04:22:44,53017,-4908.000,-5472.000,595.000,-279.000,1495.000,-1745.000,0.000,0.000,0
2026-01-31 04:22:44,53056,-5102.000,-5419.000,1142.000,211.000,1824.000,-1350.000,0.000,0.000,0
2026-01-31 04:22:44,53094,-5259.000,-6202.000,1573.000,295.000,1318.000,573.000,0.000,0.000,0
2026-01-31 04:22:44,53134,-5205.000,-7108.000,1541.000,1112.000,860.000,789.000,0.000,0.000,0
2026-01-31 04:22:44,53174,-5419.000,-6385.000,1737.000,1157.000,-541.000,-884.000,0.000,0.000,0
2026-01-31 04:22:44,53214,-5013.000,-6802.000,959.000,569.000,-1685.000,-742.000,0.000,0.000,0
2026-01-31 04:22:44,53254,-5120.000,-6919.000,1123.000,1239.000,-355.000,-1012.000,0.000,0.000,0
2026-01-31 04:22:45,53294,-4779.000,-6112.000,1680.000,298.000,-52.000,-1764.000,0.000,0.000,0
2026-01-31 04:22:45,53334,-4951.000,-6154.000,1383.000,-919.000,-525.000,-1054.000,0.000,0.000,0
2026-01-31 04:22:45,53374,-4817.000,-6457.000,987.000,116.000,-409.000,-107.000,0.000,0.000,0
2026-01-31 04:22:45,53414,-4790.000,-6372.000,1360.000,1062.000,240.000,405.000,0.000,0.000,0
2026-01-31 04:22:45,53455,-5161.000,-7061.000,1794.000,777.000,485.000,897.000,0.000,0.000,0
2026-01-31 04:22:45,53494,-4844.000,-7145.000,1281.000,335.000,-131.000,-276.000,0.000,0.000,0
2026-01-31 04:22:45,53534,-4862.000,-6726.000,1589.000,263.000,177.000,-1072.000,0.000,0.000,0
2026-01-31 04:22:45,53574,-4626.000,-6078.000,1536.000,-302.000,466.000,-1039.000,0.000,0.000,0
2026-01-31 04:22:45,53614,-4572.000,-6460.000,1431.000,-697.000,244.000,215.000,0.000,0.000,0
2026-01-31 04:22:45,53654,-4754.000,-6687.000,1429.000,-105.000,561.000,620.000,0.000,0.000,0
2026-01-31 04:22:45,53694,-4945.000,-6990.000,1866.000,178.000,248.000,557.000,0.000,0.000,0
2026-01-31 04:22:45,53734,-4701.000,-6565.000,1565.000,417.000,-305.000,-434.000,0.000,0.000,0
2026-01-31 04:22:45,53774,-5027.000,-6587.000,1422.000,-136.000,-620.000,-59.000,0.000,0.000,0
2026-01-31 04:22:45,53814,-4691.000,-6927.000,830.000,307.000,-457.000,137.000,0.000,0.000,0
2026-01-31 04:22:45,53854,-4690.000,-6528.000,1641.000,775.000,681.000,-332.000,0.000,0.000,0
2026-01-31 04:22:45,53894,-4856.000,-6464.000,1879.000,-563.000,353.000,144.000,0.000,0.000,0
2026-01-31 04:22:45,53934,-4754.000,-6827.000,1173.000,-721.000,-92.000,375.000,0.000,0.000,0
2026-01-31 04:22:45,53974,-4711.000,-6940.000,1403.000,470.000,283.000,103.000,0.000,0.000,0
2026-01-31 04:22:45,54014,-4864.000,-6559.000,1871.000,592.000,13.000,-275.000,0.000,0.000,0
2026-01-31 04:22:45,54054,-4845.000,-6731.000,1553.000,-7.000,-423.000,-72.000,0.000,0.000,0
2026-01-31 04:22:45,54094,-4828.000,-6771.000,1273.000,56.000,-233.000,-103.000,0.000,0.000,0
2026-01-31 04:22:45,54134,-4682.000,-6216.000,1643.000,-91.000,167.000,-339.000,0.000,0.000,0
2026-01-31 04:22:45,54174,-4679.000,-6592.000,1372.000,-622.000,-10.000,277.000,0.000,0.000,0
2026-01-31 04:22:45,54214,-4910.000,-6587.000,1293.000,-190.000,106.000,480.000,0.000,0.000,0
2026-01-31 04:22:45,54254,-4860.000,-6714.000,1371.000,520.000,154.000,629.000,0.000,0.000,0
2026-01-31 04:22:46,54294,-4699.000,-6535.000,1606.000,324.000,455.000,483.000,0.000,0.000,0
2026-01-31 04:22:46,54334,-4977.000,-6547.000,1842.000,-559.000,529.000,382.000,0.000,0.000,0
2026-01-31 04:22:46,54374,-5095.000,-7003.000,1274.000,-503.000,-315.000,461.000,0.000,0.000,0
2026-01-31 04:22:46,54414,-4973.000,-6991.000,1243.000,904.000,-176.000,-171.000,0.000,0.000,0
2026-01-31 04:22:46,54455,-4776.000,-6298.000,1810.000,992.000,39.000,-815.000,0.000,0.000,0
2026-01-31 04:22:46,54494,-4801.000,-6393.000,1308.000,-412.000,-283.000,267.000,0.000,0.000,0
2026-01-31 04:22:46,54534,-4922.000,-6678.000,1076.000,-217.000,60.000,481.000,0.000,0.000,0
2026-01-31 04:22:46,54574,-4996.000,-6635.000,1574.000,575.000,342.000,258.000,0.000,0.000,0
2026-01-31 04:22:46,54614,-4942.000,-6471.000,1641.000,145.000,85.000,201.000,0.000,0.000,0
2026-01-31 04:22:46,54654,-4961.000,-6642.000,1267.000,-85.000,-48.000,124.000,0.000,0.000,0
2026-01-31 04:22:46,54694,-4978.000,-6592.000,1581.000,129.000,305.000,-205.000,0.000,0.000,0
2026-01-31 04:22:46,54734,-4904.000,-6365.000,1776.000,-40.000,352.000,11.000,0.000,0.000,0
2026-01-31 04:22:46,54774,-5003.000,-6472.000,1489.000,-275.000,-85.000,307.000,0.000,0.000,0
2026-01-31 04:22:46,54814,-5005.000,-6632.000,1357.000,205.000,-196.000,353.000,0.000,0.000,0
2026-01-31 04:22:46,54854,-5018.000,-6485.000,1482.000,483.000,-65.000,286.000,0.000,0.000,0
2026-01-31 04:22:46,54894,-4952.000,-6482.000,1546.000,-156.000,170.000,35.000,0.000,0.000,0
2026-01-31 04:22:46,54934,-5150.000,-6389.000,1633.000,-492.000,87.000,46.000,0.000,0.000,0
2026-01-31 04:22:46,54974,-5028.000,-6662.000,1239.000,-37.000,-290.000,282.000,0.000,0.000,0
2026-01-31 04:22:46,55016,-5068.000,-6421.000,1647.000,604.000,94.000,-73.000,0.000,0.000,0
2026-01-31 04:22:46,55054,-5040.000,-6352.000,1653.000,67.000,-179.000,126.000,0.000,0.000,0
2026-01-31 04:22:46,55094,-5096.000,-6516.000,1379.000,-308.000,-161.000,152.000,0.000,0.000,0
2026-01-31 04:22:46,55134,-5087.000,-6620.000,1354.000,138.000,16.000,73.000,0.000,0.000,0
2026-01-31 04:22:46,55174,-5080.000,-6337.000,1587.000,268.000,104.000,-268.000,0.000,0.000,0
2026-01-31 04:22:46,55214,-5065.000,-6661.000,1592.000,-205.000,154.000,-39.000,0.000,0.000,0
2026-01-31 04:22:46,55254,-4966.000,-6409.000,1627.000,-173.000,138.000,-762.000,0.000,0.000,0
2026-01-31 04:22:47,55294,-4858.000,-6219.000,1299.000,66.000,-412.000,-196.000,0.000,0.000,0
2026-01-31 04:22:47,55334,-4929.000,-6226.000,1398.000,362.000,126.000,254.000,0.000,0.000,0
2026-01-31 04:22:47,55374,-5067.000,-6525.000,1617.000,38.000,328.000,708.000,0.000,0.000,0
2026-01-31 04:22:47,55414,-5098.000,-6765.000,1520.000,-200.000,194.000,317.000,0.000,0.000,0
2026-01-31 04:22:47,55455,-5142.000,-6669.000,1537.000,-114.000,47.000,-53.000,0.000,0.000,0
2026-01-31 04:22:47,55494,-4976.000,-6457.000,1408.000,175.000,-68.000,-439.000,0.000,0.000,0
2026-01-31 04:22:47,55534,-5062.000,-6420.000,1657.000,66.000,98.000,-19.000,0.000,0.000,0
2026-01-31 04:22:47,55574,-4987.000,-6423.000,1422.000,-78.000,39.000,45.000,0.000,0.000,0
2026-01-31 04:22:47,55614,-5033.000,-6275.000,1575.000,-129.000,134.000,-58.000,0.000,0.000,0
2026-01-31 04:22:47,55654,-5079.000,-6540.000,1521.000,42.000,47.000,507.000,0.000,0.000,0
2026-01-31 04:22:47,55694,-5098.000,-6550.000,1644.000,230.000,17.000,296.000,0.000,0.000,0
2026-01-31 04:22:47,55734,-4996.000,-6489.000,1668.000,92.000,-23.000,53.000,0.000,0.000,0
2026-01-31 04:22:47,55774,-5069.000,-6358.000,1820.000,-378.000,-120.000,-147.000,0.000,0.000,0
2026-01-31 04:22:47,55814,-5254.000,-6481.000,1376.000,-487.000,-675.000,115.000,0.000,0.000,0
2026-01-31 04:22:47,55854,-5151.000,-6525.000,921.000,574.000,-739.000,5.000,0.000,0.000,0
2026-01-31 04:22:47,55894,-5056.000,-6365.000,1361.000,927.000,78.000,57.000,0.000,0.000,0
2026-01-31 04:22:47,55934,-5077.000,-6257.000,1700.000,-27.000,531.000,-67.000,0.000,0.000,0
2026-01-31 04:22:47,55974,-5143.000,-6493.000,1685.000,-883.000,593.000,178.000,0.000,0.000,0
2026-01-31 04:22:47,56014,-5121.000,-6451.000,1745.000,-426.000,468.000,-323.000,0.000,0.000,0
2026-01-31 04:22:47,56054,-5112.000,-6349.000,1731.000,469.000,-549.000,-136.000,0.000,0.000,0
2026-01-31 04:22:47,56094,-5042.000,-6635.000,1490.000,617.000,-578.000,79.000,0.000,0.000,0
2026-01-31 04:22:47,56134,-5066.000,-6518.000,1886.000,166.000,-187.000,-413.000,0.000,0.000,0
2026-01-31 04:22:47,56174,-5122.000,-6447.000,1564.000,-541.000,-484.000,-315.000,0.000,0.000,0
2026-01-31 04:22:47,56214,-5044.000,-6682.000,1285.000,-333.000,-350.000,-88.000,0.000,0.000,0
2026-01-31 04:22:47,56254,-4803.000,-6472.000,1713.000,384.000,237.000,-694.000,0.000,0.000,0
2026-01-31 04:22:48,56294,-4843.000,-6382.000,2420.000,-324.000,192.000,-424.000,0.000,0.000,0
2026-01-31 04:22:48,56334,-4545.000,-6889.000,2030.000,-446.000,-319.000,-461.000,0.000,0.000,0
2026-01-31 04:22:48,56374,-4688.000,-7034.000,2516.000,759.000,-765.000,-1119.000,0.000,0.000,0
2026-01-31 04:22:48,56414,-3697.000,-6579.000,2130.000,2781.000,-3132.000,-1956.000,0.000,0.000,0
2026-01-31 04:22:48,56455,-4175.000,-5344.000,1227.000,1708.000,-3964.000,-1456.000,0.000,0.000,0
2026-01-31 04:22:48,56494,-3881.000,-5669.000,498.000,455.000,-1864.000,890.000,0.000,0.000,0
2026-01-31 04:22:48,56534,-4433.000,-6323.000,1506.000,145.000,1836.000,2482.000,0.000,0.000,0
2026-01-31 04:22:48,56574,-4584.000,-6985.000,2953.000,-1023.000,3866.000,2402.000,0.000,0.000,0
2026-01-31 04:22:48,56614,-5585.000,-8036.000,3623.000,-1664.000,2852.000,1975.000,0.000,0.000,0
2026-01-31 04:22:48,56654,-5857.000,-8885.000,3305.000,1499.000,-796.000,-654.000,0.000,0.000,0
2026-01-31 04:22:48,56694,-5203.000,-7638.000,2349.000,5427.000,-4492.000,-4685.000,0.000,0.000,0
2026-01-31 04:22:48,56734,-4335.000,-5940.000,2590.000,7455.000,-4367.000,-5445.000,0.000,0.000,0
2026-01-31 04:22:48,56777,-2602.000,-5354.000,3543.000,1387.000,386.000,-1578.000,0.000,0.000,0
2026-01-31 04:22:48,56816,-2946.000,-5734.000,4077.000,-2092.000,3027.000,-1029.000,0.000,0.000,0
2026-01-31 04:22:48,56854,-3308.000,-6360.000,4427.000,-2671.000,3963.000,-531.000,0.000,0.000,0
2026-01-31 04:22:48,56894,-4089.000,-7511.000,5227.000,-233.000,2750.000,558.000,0.000,0.000,0
2026-01-31 04:22:48,56934,-4075.000,-6715.000,5522.000,1961.000,-1156.000,-640.000,0.000,0.000,0
2026-01-31 04:22:48,56974,-4197.000,-6102.000,3849.000,1469.000,-5945.000,-609.000,0.000,0.000,0
2026-01-31 04:22:48,57017,-2873.000,-6067.000,980.000,1697.000,-4371.000,642.000,0.000,0.000,0
2026-01-31 04:22:48,57054,-2798.000,-6279.000,1573.000,1208.000,-646.000,1409.000,0.000,0.000,0
2026-01-31 04:22:48,57094,-3787.000,-6902.000,4404.000,-215.000,4773.000,1978.000,0.000,0.000,0
2026-01-31 04:22:48,57134,-3924.000,-7394.000,5284.000,-1902.000,3651.000,598.000,0.000,0.000,0
2026-01-31 04:22:48,57174,-3819.000,-6769.000,4950.000,-1106.000,-562.000,-1640.000,0.000,0.000,0
2026-01-31 04:22:48,57214,-3402.000,-6023.000,3483.000,503.000,-2707.000,-1459.000,0.000,0.000,0
2026-01-31 04:22:48,57254,-3096.000,-5857.000,3473.000,1065.000,-1267.000,-546.000,0.000,0.000,0
2026-01-31 04:22:49,57294,-3239.000,-6248.000,2961.000,111.000,-573.000,697.000,0.000,0.000,0
2026-01-31 04:22:49,57334,-3348.000,-6603.000,4000.000,-318.000,1501.000,212.000,0.000,0.000,0
2026-01-31 04:22:49,57374,-3541.000,-6657.000,4785.000,-817.000,1576.000,548.000,0.000,0.000,0
2026-01-31 04:22:49,57414,-3548.000,-6710.000,4002.000,-938.000,-167.000,20.000,0.000,0.000,0
2026-01-31 04:22:49,57455,-3401.000,-6449.000,3826.000,332.000,-291.000,-323.000,0.000,0.000,0
2026-01-31 04:22:49,57494,-3387.000,-6292.000,4050.000,453.000,245.000,312.000,0.000,0.000,0
2026-01-31 04:22:49,57534,-3425.000,-6503.000,3100.000,-481.000,-294.000,237.000,0.000,0.000,0
2026-01-31 04:22:49,57574,-3564.000,-6551.000,4385.000,-443.000,1591.000,570.000,0.000,0.000,0
2026-01-31 04:22:49,57614,-3692.000,-6595.000,4223.000,-573.000,424.000,445.000,0.000,0.000,0
2026-01-31 04:22:49,57654,-3599.000,-6570.000,3300.000,-198.000,-656.000,65.000,0.000,0.000,0
2026-01-31 04:22:49,57694,-3636.000,-6398.000,3687.000,511.000,512.000,549.000,0.000,0.000,0
2026-01-31 04:22:49,57734,-3880.000,-6714.000,3959.000,-99.000,555.000,790.000,0.000,0.000,0
2026-01-31 04:22:49,57774,-3849.000,-6673.000,3496.000,-473.000,61.000,21.000,0.000,0.000,0
2026-01-31 04:22:49,57814,-3778.000,-6414.000,3616.000,11.000,562.000,16.000,0.000,0.000,0
2026-01-31 04:22:49,57854,-3762.000,-6349.000,3957.000,47.000,718.000,390.000,0.000,0.000,0
2026-01-31 04:22:49,57894,-3935.000,-6658.000,3963.000,-294.000,193.000,524.000,0.000,0.000,0
2026-01-31 04:22:49,57934,-3947.000,-6511.000,3678.000,125.000,-198.000,-80.000,0.000,0.000,0
2026-01-31 04:22:49,57974,-3890.000,-6377.000,3476.000,44.000,-143.000,40.000,0.000,0.000,0
2026-01-31 04:22:49,58014,-3905.000,-6446.000,3521.000,39.000,211.000,118.000,0.000,0.000,0
2026-01-31 04:22:49,58054,-3935.000,-6481.000,3575.000,-80.000,223.000,189.000,0.000,0.000,0
2026-01-31 04:22:49,58094,-3983.000,-6606.000,3910.000,132.000,502.000,187.000,0.000,0.000,0
2026-01-31 04:22:49,58134,-4007.000,-6736.000,3912.000,583.000,-190.000,-80.000,0.000,0.000,0
2026-01-31 04:22:49,58174,-3930.000,-6269.000,3737.000,619.000,-715.000,-579.000,0.000,0.000,0
2026-01-31 04:22:49,58214,-3705.000,-5920.000,3314.000,-31.000,-344.000,-162.000,0.000,0.000,0
2026-01-31 04:22:49,58254,-3824.000,-6239.000,3227.000,-392.000,450.000,491.000,0.000,0.000,0
2026-01-31 04:22:50,58294,-4071.000,-6523.000,3752.000,-387.000,1052.000,848.000,0.000,0.000,0
2026-01-31 04:22:50,58334,-4177.000,-6702.000,4088.000,-3.000,642.000,532.000,0.000,0.000,0
2026-01-31 04:22:50,58374,-4128.000,-6526.000,3922.000,60.000,-219.000,-72.000,0.000,0.000,0
2026-01-31 04:22:50,58414,-4076.000,-6230.000,3423.000,-195.000,-702.000,-124.000,0.000,0.000,0
2026-01-31 04:22:50,58455,-4099.000,-6375.000,2928.000,15.000,-314.000,309.000,0.000,0.000,0
2026-01-31 04:22:50,58494,-4008.000,-6076.000,3179.000,74.000,636.000,174.000,0.000,0.000,0
2026-01-31 04:22:50,58534,-4159.000,-6304.000,3509.000,-605.000,1249.000,801.000,0.000,0.000,0
2026-01-31 04:22:50,58574,-4377.000,-6503.000,4054.000,-776.000,1405.000,804.000,0.000,0.000,0
2026-01-31 04:22:50,58614,-4453.000,-6573.000,3485.000,-525.000,-86.000,301.000,0.000,0.000,0
2026-01-31 04:22:50,58654,-4327.000,-6166.000,2858.000,145.000,-325.000,-67.000,0.000,0.000,0
2026-01-31 04:22:50,58694,-4357.000,-5812.000,2770.000,-200.000,767.000,430.000,0.000,0.000,0
2026-01-31 04:22:50,58734,-4556.000,-6083.000,2568.000,-648.000,1159.000,924.000,0.000,0.000,0
2026-01-31 04:22:50,58774,-4847.000,-5918.000,2481.000,-155.000,2129.000,1073.000,0.000,0.000,0
2026-01-31 04:22:50,58814,-4679.000,-5462.000,1375.000,1033.000,1364.000,1327.000,0.000,0.000,0
2026-01-31 04:22:50,58854,-5251.000,-4909.000,2534.000,1818.000,4302.000,1932.000,0.000,0.000,0
2026-01-31 04:22:50,58894,-6227.000,-5016.000,1388.000,1720.000,4120.000,3569.000,0.000,0.000,0
2026-01-31 04:22:50,58934,-7180.000,-6171.000,2783.000,2043.000,8046.000,4451.000,0.000,0.000,0
2026-01-31 04:22:50,58974,-6550.000,-6473.000,2324.000,5191.000,6758.000,3050.000,0.000,0.000,0
2026-01-31 04:22:50,59020,-6004.000,-5383.000,3571.000,5409.000,5321.000,-844.000,0.000,0.000,0
2026-01-31 04:22:50,59054,-7002.000,-4496.000,4384.000,4113.000,5104.000,-1409.000,0.000,0.000,0
2026-01-31 04:22:50,59094,-6485.000,-4836.000,2429.000,353.000,-1119.000,-871.000,0.000,0.000,0
2026-01-31 04:22:50,59134,-5885.000,-4510.000,1061.000,1094.000,-1143.000,-797.000,0.000,0.000,0
2026-01-31 04:22:50,59174,-7301.000,-3641.000,1593.000,2525.000,677.000,-696.000,0.000,0.000,0
2026-01-31 04:22:50,59214,-6757.000,-4318.000,1855.000,3447.000,1699.000,1361.000,0.000,0.000,0
2026-01-31 04:22:50,59254,-6696.000,-4705.000,2391.000,3250.000,3253.000,2472.000,0.000,0.000,0
2026-01-31 04:22:51,59294,-7047.000,-5204.000,3072.000,664.000,3761.000,1971.000,0.000,0.000,0
2026-01-31 04:22:51,59334,-7353.000,-5053.000,3908.000,-2573.000,3982.000,-308.000,0.000,0.000,0
2026-01-31 04:22:51,59374,-7022.000,-4949.000,2686.000,-5214.000,543.000,-1254.000,0.000,0.000,0
2026-01-31 04:22:51,59414,-6821.000,-6021.000,1277.000,-4906.000,-776.000,-791.000,0.000,0.000,0
2026-01-31 04:22:51,59455,-6116.000,-5793.000,174.000,1218.000,-46.000,-2924.000,0.000,0.000,0
2026-01-31 04:22:51,59494,-6245.000,-5752.000,-423.000,6376.000,833.000,-3420.000,0.000,0.000,0
2026-01-31 04:22:51,59534,-7115.000,-5298.000,815.000,8266.000,3181.000,-3463.000,0.000,0.000,0
2026-01-31 04:22:51,59574,-5099.000,-5186.000,1269.000,7741.000,3468.000,-2462.000,0.000,0.000,0
2026-01-31 04:22:51,59614,-6863.000,-2676.000,3095.000,-4558.000,5438.000,-2682.000,0.000,0.000,0
2026-01-31 04:22:51,59654,-6248.000,-4449.000,1074.000,-7483.000,-108.000,3053.000,0.000,0.000,0
2026-01-31 04:22:51,59694,-6575.000,-5675.000,-1425.000,-8085.000,-727.000,4191.000,0.000,0.000,0
2026-01-31 04:22:51,59734,-7374.000,-6445.000,-1421.000,-3752.000,2433.000,2989.000,0.000,0.000,0
2026-01-31 04:22:51,59774,-7098.000,-5875.000,-709.000,1975.000,4905.000,408.000,0.000,0.000,0
2026-01-31 04:22:51,59814,-6612.000,-4767.000,1122.000,3886.000,5113.000,-938.000,0.000,0.000,0
2026-01-31 04:22:51,59854,-6148.000,-4007.000,1223.000,2662.000,2511.000,-1079.000,0.000,0.000,0
2026-01-31 04:22:51,59894,-6963.000,-4203.000,1530.000,1235.000,-668.000,854.000,0.000,0.000,0
2026-01-31 04:22:51,59934,-4401.000,-3605.000,1927.000,-943.000,-884.000,1343.000,0.000,0.000,0
2026-01-31 04:22:51,59974,-6516.000,-3042.000,487.000,-5013.000,-6495.000,4876.000,0.000,0.000,0
2026-01-31 04:22:51,60014,-7612.000,-3614.000,-167.000,-4267.000,-8064.000,6585.000,0.000,0.000,0
2026-01-31 04:22:51,60054,-8133.000,-4075.000,-916.000,-939.000,-7320.000,7704.000,0.000,0.000,0
2026-01-31 04:22:51,60094,-8067.000,-4489.000,-841.000,2365.000,-4809.000,7433.000,0.000,0.000,0
2026-01-31 04:22:51,60134,-8366.000,-5580.000,-49.000,2289.000,-1173.000,5169.000,0.000,0.000,0
2026-01-31 04:22:51,60174,-9195.000,-7054.000,1165.000,643.000,573.000,-1567.000,0.000,0.000,0
2026-01-31 04:22:51,60214,-7517.000,-3620.000,2182.000,-907.000,-465.000,-10004.000,0.000,0.000,0
2026-01-31 04:22:51,60254,-7002.000,-2092.000,3766.000,1174.000,-1071.000,-9017.000,0.000,0.000,0
2026-01-31 04:22:52,60294,-6870.000,-2761.000,4516.000,831.000,-6614.000,-4589.000,0.000,0.000,0
2026-01-31 04:22:52,60334,-6671.000,-4750.000,1969.000,6325.000,-11700.000,-596.000,0.000,0.000,0
2026-01-31 04:22:52,60374,-5839.000,-5046.000,2375.000,14060.000,-9334.000,-200.000,0.000,0.000,0
2026-01-31 04:22:52,60414,-5645.000,-3154.000,4741.000,18643.000,-8156.000,-19.000,0.000,0.000,0
2026-01-31 04:22:52,60455,-5606.000,-3318.000,7282.000,15871.000,-8632.000,735.000,0.000,0.000,0
2026-01-31 04:22:52,60494,-4431.000,-2953.000,6570.000,11512.000,-9503.000,-1520.000,0.000,0.000,0
2026-01-31 04:22:52,60534,-3198.000,-91.000,6974.000,7402.000,-6652.000,-4577.000,0.000,0.000,0
2026-01-31 04:22:52,60574,-2377.000,1224.000,7156.000,2401.000,-4043.000,-3624.000,0.000,0.000,0
2026-01-31 04:22:52,60614,-2415.000,517.000,7909.000,1956.000,-1902.000,-345.000,0.000,0.000,0
2026-01-31 04:22:52,60654,-2537.000,-175.000,7841.000,2877.000,-1524.000,952.000,0.000,0.000,0
2026-01-31 04:22:52,60697,-2282.000,-86.000,8202.000,4857.000,-2149.000,1108.000,0.000,0.000,0
2026-01-31 04:22:52,60736,-1784.000,983.000,8755.000,3988.000,-2019.000,-100.000,0.000,0.000,0
2026-01-31 04:22:52,60774,-1633.000,1881.000,8470.000,1558.000,-1756.000,-402.000,0.000,0.000,0
2026-01-31 04:22:52,60814,-1449.000,1431.000,7918.000,-1848.000,-831.000,755.000,0.000,0.000,0
2026-01-31 04:22:52,60854,-1983.000,428.000,8603.000,-2688.000,207.000,1105.000,0.000,0.000,0
2026-01-31 04:22:52,60894,-1711.000,747.000,8397.000,-1886.000,-1436.000,384.000,0.000,0.000,0
2026-01-31 04:22:52,60934,-1539.000,610.000,7799.000,-1700.000,-2141.000,770.000,0.000,0.000,0
2026-01-31 04:22:52,60974,-1352.000,682.000,7932.000,-239.000,-930.000,1323.000,0.000,0.000,0
2026-01-31 04:22:52,61017,-1475.000,-140.000,7834.000,-1241.000,262.000,1529.000,0.000,0.000,0
2026-01-31 04:22:52,61054,-1527.000,-391.000,7836.000,-1698.000,334.000,1274.000,0.000,0.000,0
2026-01-31 04:22:52,61094,-1608.000,-257.000,7580.000,-2435.000,654.000,555.000,0.000,0.000,0
2026-01-31 04:22:52,61134,-1457.000,-797.000,7829.000,-1674.000,1830.000,370.000,0.000,0.000,0
2026-01-31 04:22:52,61174,-1647.000,2.000,9012.000,-1094.000,2249.000,-545.000,0.000,0.000,0
2026-01-31 04:22:52,61214,-1753.000,-32.000,8885.000,-1084.000,626.000,-30.000,0.000,0.000,0
2026-01-31 04:22:52,61254,-1732.000,-524.000,8412.000,-255.000,-109.000,294.000,0.000,0.000,0
2026-01-31 04:22:53,61294,-1648.000,-117.000,8112.000,10.000,-422.000,223.000,0.000,0.000,0
2026-01-31 04:22:53,61334,-1775.000,-721.000,8178.000,71.000,46.000,641.000,0.000,0.000,0
2026-01-31 04:22:53,61374,-1874.000,-376.000,8408.000,-927.000,303.000,95.000,0.000,0.000,0
2026-01-31 04:22:53,61414,-1825.000,-1157.000,8030.000,-721.000,200.000,48.000,0.000,0.000,0
2026-01-31 04:22:53,61455,-1831.000,-480.000,8604.000,-384.000,528.000,-576.000,0.000,0.000,0
2026-01-31 04:22:53,61494,-1784.000,-435.000,8374.000,-951.000,-212.000,-320.000,0.000,0.000,0
2026-01-31 04:22:53,61534,-1549.000,-398.000,7803.000,-527.000,-380.000,-291.000,0.000,0.000,0
2026-01-31 04:22:53,61574,-1785.000,-549.000,8395.000,128.000,274.000,412.000,0.000,0.000,0
2026-01-31 04:22:53,61614,-1842.000,-939.000,8163.000,-213.000,-45.000,537.000,0.000,0.000,0
2026-01-31 04:22:53,61654,-1814.000,-712.000,8252.000,121.000,47.000,32.000,0.000,0.000,0
2026-01-31 04:22:53,61694,-1828.000,-899.000,8147.000,-157.000,-180.000,218.000,0.000,0.000,0
2026-01-31 04:22:53,61734,-1829.000,-854.000,8257.000,-213.000,161.000,-33.000,0.000,0.000,0
2026-01-31 04:22:53,61774,-1643.000,-624.000,8189.000,-408.000,-77.000,-222.000,0.000,0.000,0
2026-01-31 04:22:53,61814,-1739.000,-419.000,8232.000,-454.000,192.000,111.000,0.000,0.000,0
2026-01-31 04:22:53,61854,-1891.000,-1143.000,8176.000,-131.000,-22.000,642.000,0.000,0.000,0
2026-01-31 04:22:53,61894,-1900.000,-983.000,8180.000,172.000,-174.000,144.000,0.000,0.000,0
2026-01-31 04:22:53,61934,-1783.000,-968.000,8000.000,-248.000,-52.000,54.000,0.000,0.000,0
2026-01-31 04:22:53,61974,-1766.000,-702.000,8074.000,-739.000,265.000,-225.000,0.000,0.000,0
2026-01-31 04:22:53,62014,-1820.000,-872.000,8101.000,-801.000,522.000,150.000,0.000,0.000,0
2026-01-31 04:22:53,62054,-1928.000,-1092.000,8430.000,-393.000,499.000,258.000,0.000,0.000,0
2026-01-31 04:22:53,62094,-1854.000,-899.000,8016.000,-123.000,-196.000,27.000,0.000,0.000,0
2026-01-31 04:22:53,62134,-1915.000,-1129.000,8115.000,-135.000,71.000,309.000,0.000,0.000,0
2026-01-31 04:22:53,62174,-1898.000,-1062.000,8184.000,-295.000,-5.000,37.000,0.000,0.000,0
2026-01-31 04:22:53,62214,-1884.000,-1106.000,7964.000,-709.000,84.000,93.000,0.000,0.000,0
2026-01-31 04:22:53,62254,-1955.000,-1349.000,8079.000,-1055.000,616.000,188.000,0.000,0.000,0
2026-01-31 04:22:54,62294,-1928.000,-1449.000,8277.000,-1936.000,823.000,-295.000,0.000,0.000,0
2026-01-31 04:22:54,62334,-2115.000,-1790.000,7853.000,-3538.000,979.000,-756.000,0.000,0.000,0
2026-01-31 04:22:54,62374,-2403.000,-2915.000,6679.000,-4938.000,2113.000,-947.000,0.000,0.000,0
2026-01-31 04:22:54,62414,-2745.000,-2640.000,6884.000,-4655.000,4187.000,-2236.000,0.000,0.000,0
2026-01-31 04:22:54,62455,-2884.000,-2671.000,7088.000,-5283.000,5141.000,-1898.000,0.000,0.000,0
2026-01-31 04:22:54,62494,-3472.000,-3522.000,7863.000,-2517.000,4323.000,-744.000,0.000,0.000,0
2026-01-31 04:22:54,62534,-3733.000,-3178.000,8816.000,1319.000,1289.000,-238.000,0.000,0.000,0
2026-01-31 04:22:54,62574,-3509.000,-3042.000,7931.000,3463.000,-2997.000,1135.000,0.000,0.000,0
2026-01-31 04:22:54,62614,-3117.000,-3110.000,6547.000,4077.000,-3693.000,1612.000,0.000,0.000,0
2026-01-31 04:22:54,62654,-2915.000,-2763.000,6612.000,2733.000,-2011.000,1059.000,0.000,0.000,0
2026-01-31 04:22:54,62694,-2796.000,-2499.000,6631.000,-759.000,172.000,304.000,0.000,0.000,0
2026-01-31 04:22:54,62734,-3001.000,-2674.000,6804.000,-3015.000,2346.000,357.000,0.000,0.000,0
2026-01-31 04:22:54,62777,-4038.000,-3930.000,5718.000,-2814.000,5531.000,451.000,0.000,0.000,0
2026-01-31 04:22:54,62817,-4537.000,-4319.000,7102.000,-676.000,6714.000,-685.000,0.000,0.000,0
2026-01-31 04:22:54,62854,-4683.000,-3226.000,8547.000,468.000,5870.000,-1785.000,0.000,0.000,0
2026-01-31 04:22:54,62894,-4637.000,-2733.000,8766.000,-1570.000,-199.000,-2150.000,0.000,0.000,0
2026-01-31 04:22:54,62934,-4332.000,-3403.000,7148.000,-1980.000,-3985.000,-590.000,0.000,0.000,0
2026-01-31 04:22:54,62974,-3654.000,-2923.000,5668.000,-551.000,-5161.000,-355.000,0.000,0.000,0
2026-01-31 04:22:54,63017,-3248.000,-3390.000,5684.000,1350.000,-3581.000,2016.000,0.000,0.000,0
2026-01-31 04:22:54,63054,-3237.000,-3544.000,5844.000,1905.000,-2875.000,2341.000,0.000,0.000,0
2026-01-31 04:22:54,63094,39.000,-3980.000,6589.000,3232.000,-1381.000,2630.000,0.000,0.000,0
2026-01-31 04:22:54,63134,-3604.000,-4149.000,7770.000,-31.000,435.000,2619.000,0.000,0.000,0
2026-01-31 04:22:54,63174,-3642.000,-4228.000,7217.000,-2254.000,-557.000,462.000,0.000,0.000,0
2026-01-31 04:22:54,63214,-3840.000,-5009.000,6998.000,-3316.000,-325.000,-1457.000,0.000,0.000,0
2026-01-31 04:22:54,63254,-3254.000,-3938.000,6486.000,-342.000,-1143.000,-3051.000,0.000,0.000,0
2026-01-31 04:22:55,63294,-3074.000,-3179.000,6360.000,1371.000,-922.000,-2116.000,0.000,0.000,0
2026-01-31 04:22:55,63334,-2737.000,-3223.000,6354.000,1809.000,-516.000,-413.000,0.000,0.000,0
2026-01-31 04:22:55,63374,-2440.000,-2988.000,6222.000,1665.000,808.000,868.000,0.000,0.000,0
2026-01-31 04:22:55,63414,-3152.000,-2997.000,7329.000,-1181.000,3268.000,925.000,0.000,0.000,0
2026-01-31 04:22:55,63455,-3457.000,-3675.000,7670.000,-3532.000,2674.000,1584.000,0.000,0.000,0
2026-01-31 04:22:55,63494,-3685.000,-4740.000,6241.000,-2842.000,816.000,1808.000,0.000,0.000,0
2026-01-31 04:22:55,63534,-3714.000,-4402.000,6470.000,357.000,549.000,-110.000,0.000,0.000,0
2026-01-31 04:22:55,63574,-3515.000,-3647.000,6695.000,2542.000,378.000,-597.000,0.000,0.000,0
2026-01-31 04:22:55,63614,-3653.000,-3023.000,7267.000,1279.000,567.000,-533.000,0.000,0.000,0
2026-01-31 04:22:55,63654,-3761.000,-3817.000,6280.000,-114.000,-277.000,1007.000,0.000,0.000,0
2026-01-31 04:22:55,63694,-3661.000,-3615.000,6470.000,341.000,-65.000,483.000,0.000,0.000,0
2026-01-31 04:22:55,63734,-3742.000,-3542.000,6685.000,343.000,-217.000,743.000,0.000,0.000,0
2026-01-31 04:22:55,63774,-3745.000,-3642.000,6514.000,300.000,-229.000,743.000,0.000,0.000,0
2026-01-31 04:22:55,63814,-3791.000,-3710.000,6586.000,459.000,-89.000,555.000,0.000,0.000,0
2026-01-31 04:22:55,63854,-3744.000,-3695.000,6516.000,250.000,17.000,118.000,0.000,0.000,0
2026-01-31 04:22:55,63894,-3773.000,-3549.000,6561.000,-330.000,457.000,-418.000,0.000,0.000,0
2026-01-31 04:22:55,63934,-3784.000,-3465.000,6597.000,-802.000,793.000,-560.000,0.000,0.000,0
2026-01-31 04:22:55,63974,-3804.000,-3479.000,6653.000,-642.000,759.000,-436.000,0.000,0.000,0
2026-01-31 04:22:55,64014,-3887.000,-3518.000,6827.000,125.000,257.000,159.000,0.000,0.000,0
2026-01-31 04:22:55,64054,-3875.000,-3511.000,6860.000,372.000,-132.000,259.000,0.000,0.000,0
2026-01-31 04:22:55,64094,-3953.000,-3567.000,6960.000,353.000,-502.000,540.000,0.000,0.000,0
2026-01-31 04:22:55,64134,-3971.000,-3761.000,6816.000,593.000,-1052.000,516.000,0.000,0.000,0
2026-01-31 04:22:55,64174,-3899.000,-3736.000,6574.000,1193.000,-1489.000,545.000,0.000,0.000,0
2026-01-31 04:22:55,64214,-3656.000,-3398.000,6425.000,1584.000,-1209.000,310.000,0.000,0.000,0
2026-01-31 04:22:55,64254,-3435.000,-2874.000,6561.000,862.000,-434.000,-306.000,0.000,0.000,0
2026-01-31 04:22:56,64294,-3416.000,-2690.000,6484.000,19.000,444.000,-37.000,0.000,0.000,0
2026-01-31 04:22:56,64334,-3573.000,-2671.000,6502.000,14.000,1075.000,565.000,0.000,0.000,0
2026-01-31 04:22:56,64374,-3934.000,-2821.000,6690.000,494.000,1276.000,1158.000,0.000,0.000,0
2026-01-31 04:22:56,64414,-4193.000,-3072.000,6883.000,1005.000,1318.000,1835.000,0.000,0.000,0
2026-01-31 04:22:56,64455,-4438.000,-3214.000,7014.000,947.000,1043.000,1384.000,0.000,0.000,0
2026-01-31 04:22:56,64494,-4488.000,-3184.000,7152.000,707.000,690.000,449.000,0.000,0.000,0
2026-01-31 04:22:56,64534,-4492.000,-3117.000,6939.000,415.000,-26.000,-398.000,0.000,0.000,0
2026-01-31 04:22:56,64574,-4289.000,-2716.000,6893.000,302.000,-265.000,-1058.000,0.000,0.000,0
2026-01-31 04:22:56,64614,-4081.000,-2496.000,6677.000,129.000,-419.000,-1060.000,0.000,0.000,0
2026-01-31 04:22:56,64654,-4030.000,-2298.000,6548.000,260.000,-135.000,-852.000,0.000,0.000,0
2026-01-31 04:22:56,64694,-4104.000,-2422.000,6762.000,222.000,272.000,-53.000,0.000,0.000,0
2026-01-31 04:22:56,64737,-4280.000,-2732.000,6891.000,153.000,82.000,279.000,0.000,0.000,0
2026-01-31 04:22:56,64776,-4227.000,-2848.000,6745.000,194.000,-175.000,152.000,0.000,0.000,0
2026-01-31 04:22:56,64814,-4213.000,-2689.000,6841.000,220.000,-85.000,-59.000,0.000,0.000,0
2026-01-31 04:22:56,64854,-4103.000,-2603.000,6856.000,124.000,-220.000,-292.000,0.000,0.000,0
2026-01-31 04:22:56,64894,-4125.000,-2464.000,6777.000,142.000,-169.000,-261.000,0.000,0.000,0
2026-01-31 04:22:56,64934,-4154.000,-2574.000,6848.000,406.000,39.000,261.000,0.000,0.000,0
2026-01-31 04:22:56,64974,-4065.000,-2529.000,6946.000,504.000,-204.000,186.000,0.000,0.000,0
2026-01-31 04:22:56,65017,-4095.000,-2454.000,6745.000,318.000,-261.000,455.000,0.000,0.000,0
2026-01-31 04:22:56,65054,-4096.000,-2414.000,6761.000,360.000,-120.000,510.000,0.000,0.000,0
2026-01-31 04:22:56,65094,-4130.000,-2426.000,6679.000,319.000,124.000,569.000,0.000,0.000,0
2026-01-31 04:22:56,65134,-4177.000,-2541.000,6859.000,259.000,690.000,466.000,0.000,0.000,0
2026-01-31 04:22:56,65174,-4291.000,-2458.000,6864.000,-90.000,790.000,-189.000,0.000,0.000,0
2026-01-31 04:22:56,65214,-4308.000,-2355.000,6970.000,-79.000,759.000,-321.000,0.000,0.000,0
2026-01-31 04:22:56,65254,-4400.000,-2295.000,6935.000,-31.000,468.000,-223.000,0.000,0.000,0
2026-01-31 04:22:57,65294,-4375.000,-2294.000,6889.000,113.000,213.000,-10.000,0.000,0.000,0
2026-01-31 04:22:57,65334,-4314.000,-2242.000,6809.000,227.000,-111.000,85.000,0.000,0.000,0
2026-01-31 04:22:57,65374,-4391.000,-2275.000,6752.000,151.000,-137.000,271.000,0.000,0.000,0
2026-01-31 04:22:57,65414,-4396.000,-2367.000,6733.000,-22.000,124.000,327.000,0.000,0.000,0
2026-01-31 04:22:57,65455,-4359.000,-2403.000,6764.000,-190.000,218.000,86.000,0.000,0.000,0
2026-01-31 04:22:57,65494,-4474.000,-2301.000,6781.000,-370.000,122.000,-225.000,0.000,0.000,0
2026-01-31 04:22:57,65534,-4406.000,-2518.000,6594.000,123.000,-24.000,301.000,0.000,0.000,0
2026-01-31 04:22:57,65574,-4408.000,-2345.000,6715.000,224.000,59.000,-114.000,0.000,0.000,0
2026-01-31 04:22:57,65614,-4467.000,-2350.000,6641.000,-193.000,30.000,-113.000,0.000,0.000,0
2026-01-31 04:22:57,65654,-4455.000,-2463.000,6576.000,-114.000,226.000,-19.000,0.000,0.000,0
2026-01-31 04:22:57,65694,-4440.000,-2325.000,6756.000,101.000,420.000,-138.000,0.000,0.000,0
2026-01-31 04:22:57,65734,-4453.000,-2341.000,6793.000,-137.000,201.000,-161.000,0.000,0.000,0
2026-01-31 04:22:57,65774,-4504.000,-2422.000,6647.000,-107.000,144.000,-36.000,0.000,0.000,0
2026-01-31 04:22:57,65814,-4501.000,-2393.000,6682.000,165.000,95.000,10.000,0.000,0.000,0
2026-01-31 04:22:57,65854,-4507.000,-2416.000,6612.000,217.000,-63.000,46.000,0.000,0.000,0
2026-01-31 04:22:57,65894,-4446.000,-2276.000,6631.000,42.000,178.000,-145.000,0.000,0.000,0
2026-01-31 04:22:57,65934,-4524.000,-2293.000,6594.000,-259.000,337.000,-120.000,0.000,0.000,0
2026-01-31 04:22:57,65974,-4598.000,-2405.000,6587.000,143.000,256.000,206.000,0.000,0.000,0
2026-01-31 04:22:57,66014,-4594.000,-2429.000,6651.000,405.000,231.000,313.000,0.000,0.000,0
2026-01-31 04:22:57,66054,-4606.000,-2349.000,6669.000,31.000,229.000,-21.000,0.000,0.000,0
2026-01-31 04:22:57,66094,-4668.000,-2402.000,6626.000,-280.000,358.000,-61.000,0.000,0.000,0
2026-01-31 04:22:57,66134,-4685.000,-2400.000,6636.000,-43.000,313.000,-42.000,0.000,0.000,0
2026-01-31 04:22:57,66174,-4654.000,-2302.000,6597.000,161.000,-16.000,-1.000,0.000,0.000,0
2026-01-31 04:22:57,66214,-4637.000,-2339.000,6521.000,135.000,3.000,122.000,0.000,0.000,0
2026-01-31 04:22:57,66254,-4687.000,-2290.000,6568.000,7.000,237.000,93.000,0.000,0.000,0
2026-01-31 04:22:58,66294,-4731.000,-2390.000,6397.000,-157.000,153.000,117.000,0.000,0.000,0
2026-01-31 04:22:58,66334,-4780.000,-2385.000,6527.000,28.000,460.000,179.000,0.000,0.000,0
2026-01-31 04:22:58,66374,-4787.000,-2438.000,6632.000,37.000,323.000,82.000,0.000,0.000,0
2026-01-31 04:22:58,66414,-4789.000,-2350.000,6537.000,-73.000,86.000,-109.000,0.000,0.000,0
2026-01-31 04:22:58,66455,-4795.000,-2417.000,6382.000,67.000,-1.000,10.000,0.000,0.000,0
2026-01-31 04:22:58,66494,-4800.000,-2346.000,6524.000,204.000,246.000,-46.000,0.000,0.000,0
2026-01-31 04:22:58,66534,-4775.000,-2314.000,6647.000,-78.000,286.000,-197.000,0.000,0.000,0
2026-01-31 04:22:58,66574,-4800.000,-2258.000,6507.000,-353.000,79.000,-275.000,0.000,0.000,0
2026-01-31 04:22:58,66614,-4812.000,-2324.000,6379.000,26.000,-12.000,102.000,0.000,0.000,0
2026-01-31 04:22:58,66654,-4812.000,-2378.000,6526.000,345.000,-21.000,297.000,0.000,0.000,0
2026-01-31 04:22:58,66694,-4831.000,-2500.000,6423.000,13.000,-67.000,162.000,0.000,0.000,0
2026-01-31 04:22:58,66734,-4865.000,-2398.000,6397.000,-37.000,42.000,-194.000,0.000,0.000,0
2026-01-31 04:22:58,66778,-4769.000,-2319.000,6463.000,-48.000,217.000,-214.000,0.000,0.000,0
2026-01-31 04:22:58,66818,-4771.000,-2192.000,6459.000,-92.000,72.000,-296.000,0.000,0.000,0
2026-01-31 04:22:58,66854,-4772.000,-2193.000,6403.000,-56.000,4.000,-145.000,0.000,0.000,0
2026-01-31 04:22:58,66894,-4853.000,-2380.000,6427.000,42.000,195.000,284.000,0.000,0.000,0
2026-01-31 04:22:58,66934,-4833.000,-2374.000,6509.000,169.000,135.000,174.000,0.000,0.000,0
2026-01-31 04:22:58,66974,-4896.000,-2333.000,6365.000,-42.000,-71.000,10.000,0.000,0.000,0
2026-01-31 04:22:58,67017,-4763.000,-2210.000,6207.000,-64.000,97.000,-44.000,0.000,0.000,0
2026-01-31 04:22:58,67056,-4808.000,-2183.000,6237.000,-230.000,583.000,146.000,0.000,0.000,0
2026-01-31 04:22:58,67094,-4993.000,-2385.000,6238.000,-215.000,714.000,496.000,0.000,0.000,0
2026-01-31 04:22:58,67134,-5056.000,-2417.000,6398.000,81.000,743.000,333.000,0.000,0.000,0
2026-01-31 04:22:58,67174,-5082.000,-2342.000,6468.000,29.000,625.000,135.000,0.000,0.000,0
2026-01-31 04:22:58,67214,-5165.000,-2341.000,6273.000,-119.000,187.000,39.000,0.000,0.000,0
2026-01-31 04:22:58,67254,-5128.000,-2411.000,6134.000,218.000,134.000,174.000,0.000,0.000,0
2026-01-31 04:22:59,67294,-5201.000,-2360.000,6286.000,266.000,369.000,130.000,0.000,0.000,0
2026-01-31 04:22:59,67334,-5182.000,-2441.000,6322.000,-35.000,404.000,-58.000,0.000,0.000,0
2026-01-31 04:22:59,67374,-5219.000,-2291.000,6290.000,-192.000,170.000,-535.000,0.000,0.000,0
2026-01-31 04:22:59,67414,-5106.000,-2133.000,6161.000,-32.000,77.000,-446.000,0.000,0.000,0
2026-01-31 04:22:59,67455,-5172.000,-2273.000,6197.000,145.000,88.000,225.000,0.000,0.000,0
2026-01-31 04:22:59,67494,-5177.000,-2371.000,6139.000,248.000,-36.000,194.000,0.000,0.000,0
2026-01-31 04:22:59,67534,-5166.000,-2323.000,6146.000,72.000,61.000,-13.000,0.000,0.000,0
2026-01-31 04:22:59,67574,-5201.000,-2340.000,6148.000,-206.000,281.000,-94.000,0.000,0.000,0
2026-01-31 04:22:59,67614,-5231.000,-2342.000,6151.000,-127.000,245.000,-131.000,0.000,0.000,0
2026-01-31 04:22:59,67654,-5224.000,-2293.000,6137.000,89.000,139.000,-122.000,0.000,0.000,0
2026-01-31 04:22:59,67694,-5202.000,-2246.000,6238.000,9.000,216.000,-68.000,0.000,0.000,0
2026-01-31 04:22:59,67734,-5222.000,-2283.000,6159.000,-143.000,44.000,-25.000,0.000,0.000,0
2026-01-31 04:22:59,67774,-5270.000,-2365.000,6050.000,63.000,-100.000,151.000,0.000,0.000,0
2026-01-31 04:22:59,67814,-5221.000,-2391.000,6165.000,218.000,46.000,50.000,0.000,0.000,0
2026-01-31 04:22:59,67854,-5263.000,-2299.000,6117.000,-200.000,31.000,-258.000,0.000,0.000,0
2026-01-31 04:22:59,67894,-5220.000,-2290.000,6042.000,-192.000,168.000,-179.000,0.000,0.000,0
2026-01-31 04:22:59,67934,-5256.000,-2298.000,6132.000,2.000,131.000,-12.000,0.000,0.000,0
2026-01-31 04:22:59,67974,-5279.000,-2339.000,6179.000,68.000,118.000,106.000,0.000,0.000,0
2026-01-31 04:22:59,68014,-5282.000,-2347.000,6144.000,9.000,-48.000,-19.000,0.000,0.000,0
2026-01-31 04:22:59,68054,-5309.000,-2378.000,6085.000,-63.000,-62.000,38.000,0.000,0.000,0
2026-01-31 04:22:59,68094,-5195.000,-2394.000,6037.000,29.000,-33.000,-76.000,0.000,0.000,0
2026-01-31 04:22:59,68134,-5237.000,-2234.000,6040.000,-56.000,-43.000,-221.000,0.000,0.000,0
2026-01-31 04:22:59,68174,-5251.000,-2322.000,6076.000,-152.000,173.000,4.000,0.000,0.000,0
2026-01-31 04:22:59,68214,-5268.000,-2397.000,6130.000,19.000,124.000,137.000,0.000,0.000,0
2026-01-31 04:22:59,68254,-5333.000,-2394.000,6112.000,70.000,-88.000,71.000,0.000,0.000,0
2026-01-31 04:23:00,68294,-5306.000,-2471.000,6059.000,116.000,-34.000,160.000,0.000,0.000,0
2026-01-31 04:23:00,68334,-5222.000,-2385.000,6079.000,12.000,-11.000,-164.000,0.000,0.000,0
2026-01-31 04:23:00,68374,-5263.000,-2240.000,6002.000,-213.000,-13.000,-314.000,0.000,0.000,0
2026-01-31 04:23:00,68414,-5262.000,-2347.000,6000.000,-99.000,222.000,87.000,0.000,0.000,0
2026-01-31 04:23:00,68455,-5294.000,-2415.000,6151.000,148.000,147.000,117.000,0.000,0.000,0
2026-01-31 04:23:00,68494,-5353.000,-2376.000,6184.000,28.000,46.000,25.000,0.000,0.000,0
2026-01-31 04:23:00,68534,-5304.000,-2409.000,5991.000,-109.000,-190.000,-76.000,0.000,0.000,0
2026-01-31 04:23:00,68574,-5228.000,-2245.000,6066.000,-19.000,72.000,-85.000,0.000,0.000,0
2026-01-31 04:23:00,68614,-5292.000,-2364.000,6002.000,-106.000,-74.000,151.000,0.000,0.000,0
2026-01-31 04:23:00,68654,-5339.000,-2492.000,6073.000,166.000,112.000,296.000,0.000,0.000,0
2026-01-31 04:23:00,68694,-5306.000,-2425.000,6149.000,165.000,-65.000,-20.000,0.000,0.000,0
2026-01-31 04:23:00,68734,-5271.000,-2370.000,6005.000,-163.000,-155.000,-202.000,0.000,0.000,0
2026-01-31 04:23:00,68777,-5258.000,-2343.000,6014.000,-91.000,121.000,-107.000,0.000,0.000,0
2026-01-31 04:23:00,68817,-5268.000,-2344.000,6080.000,46.000,92.000,-19.000,0.000,0.000,0
2026-01-31 04:23:00,68854,-5301.000,-2355.000,6111.000,57.000,78.000,15.000,0.000,0.000,0
2026-01-31 04:23:00,68894,-5304.000,-2352.000,6098.000,-57.000,16.000,-20.000,0.000,0.000,0
2026-01-31 04:23:00,68934,-5286.000,-2452.000,6043.000,-34.000,-75.000,58.000,0.000,0.000,0
2026-01-31 04:23:00,68974,-5256.000,-2406.000,5997.000,215.000,-164.000,19.000,0.000,0.000,0
2026-01-31 04:23:00,69014,-5285.000,-2331.000,6010.000,19.000,-7.000,-52.000,0.000,0.000,0
2026-01-31 04:23:00,69054,-5303.000,-2437.000,6054.000,-176.000,190.000,27.000,0.000,0.000,0
2026-01-31 04:23:00,69094,-5292.000,-2453.000,6087.000,21.000,64.000,-92.000,0.000,0.000,0
2026-01-31 04:23:00,69134,-5265.000,-2290.000,6124.000,65.000,-34.000,-165.000,0.000,0.000,0
2026-01-31 04:23:00,69174,-5293.000,-2347.000,6030.000,-125.000,-60.000,24.000,0.000,0.000,0
2026-01-31 04:23:00,69214,-5272.000,-2463.000,5972.000,117.000,-47.000,158.000,0.000,0.000,0
2026-01-31 04:23:00,69254,-5251.000,-2353.000,6129.000,189.000,18.000,21.000,0.000,0.000,0
2026-01-31 04:23:01,69294,-5306.000,-2432.000,6004.000,-53.000,-106.000,12.000,0.000,0.000,0
2026-01-31 04:23:01,69334,-5260.000,-2359.000,6074.000,-2.000,229.000,-104.000,0.000,0.000,0
2026-01-31 04:23:01,69374,-5278.000,-2430.000,6092.000,-91.000,63.000,-73.000,0.000,0.000,0
2026-01-31 04:23:01,69414,-5332.000,-2556.000,5977.000,8.000,-7.000,-317.000,0.000,0.000,0
2026-01-31 04:23:01,69455,-5285.000,-2332.000,6045.000,71.000,162.000,-398.000,0.000,0.000,0
2026-01-31 04:23:01,69494,-5255.000,-2300.000,6018.000,-276.000,118.000,-158.000,0.000,0.000,0
2026-01-31 04:23:01,69534,-5272.000,-2462.000,5962.000,-54.000,76.000,105.000,0.000,0.000,0
2026-01-31 04:23:01,69574,-5308.000,-2363.000,6102.000,301.000,82.000,138.000,0.000,0.000,0
2026-01-31 04:23:01,69614,-5331.000,-2442.000,6071.000,9.000,-29.000,218.000,0.000,0.000,0
2026-01-31 04:23:01,69654,-5289.000,-2568.000,5946.000,-51.000,-36.000,143.000,0.000,0.000,0
2026-01-31 04:23:01,69694,-5297.000,-2301.000,5963.000,86.000,-54.000,-186.000,0.000,0.000,0
2026-01-31 04:23:01,69734,-5299.000,-2356.000,5964.000,-194.000,278.000,109.000,0.000,0.000,0
2026-01-31 04:23:01,69774,-5380.000,-2490.000,5999.000,-62.000,226.000,254.000,0.000,0.000,0
2026-01-31 04:23:01,69814,-5389.000,-2443.000,6059.000,167.000,97.000,115.000,0.000,0.000,0
2026-01-31 04:23:01,69854,-5381.000,-2381.000,6055.000,113.000,-9.000,22.000,0.000,0.000,0
2026-01-31 04:23:01,69894,-5356.000,-2415.000,5952.000,-55.000,-107.000,-16.000,0.000,0.000,0
2026-01-31 04:23:01,69934,-5328.000,-2422.000,5901.000,-22.000,11.000,-33.000,0.000,0.000,0
2026-01-31 04:23:01,69974,-5350.000,-2526.000,5672.000,240.000,137.000,4.000,0.000,0.000,0
2026-01-31 04:23:01,70014,-5398.000,-2504.000,5818.000,486.000,624.000,-242.000,0.000,0.000,0
2026-01-31 04:23:01,70054,-5526.000,-2367.000,6164.000,71.000,872.000,-563.000,0.000,0.000,0
2026-01-31 04:23:01,70094,-5421.000,-2417.000,6112.000,-376.000,113.000,-355.000,0.000,0.000,0
2026-01-31 04:23:01,70134,-5406.000,-2233.000,5942.000,212.000,-408.000,-237.000,0.000,0.000,0
2026-01-31 04:23:01,70174,-5376.000,-2245.000,5921.000,451.000,-412.000,350.000,0.000,0.000,0
2026-01-31 04:23:01,70214,-5347.000,-2481.000,5820.000,236.000,-360.000,486.000,0.000,0.000,0
2026-01-31 04:23:01,70254,-5422.000,-2526.000,5924.000,-24.000,14.000,191.000,0.000,0.000,0
2026-01-31 04:23:02,70294,-5464.000,-2560.000,5932.000,-162.000,71.000,-7.000,0.000,0.000,0
2026-01-31 04:23:02,70334,-5417.000,-2470.000,5927.000,-55.000,-26.000,-266.000,0.000,0.000,0
2026-01-31 04:23:02,70374,-5315.000,-2254.000,5936.000,-111.000,-13.000,-383.000,0.000,0.000,0
2026-01-31 04:23:02,70414,-5352.000,-2217.000,5867.000,-238.000,35.000,-97.000,0.000,0.000,0
2026-01-31 04:23:02,70455,-5404.000,-2499.000,6029.000,-63.000,198.000,384.000,0.000,0.000,0
2026-01-31 04:23:02,70494,-5413.000,-2492.000,5998.000,205.000,-262.000,111.000,0.000,0.000,0
2026-01-31 04:23:02,70534,-5376.000,-2413.000,5876.000,24.000,-221.000,0.000,0.000,0.000,0
2026-01-31 04:23:02,70574,-5405.000,-2392.000,5791.000,-129.000,-5.000,-15.000,0.000,0.000,0
2026-01-31 04:23:02,70614,-5407.000,-2473.000,5903.000,51.000,311.000,107.000,0.000,0.000,0
2026-01-31 04:23:02,70654,-5431.000,-2453.000,6059.000,16.000,180.000,-55.000,0.000,0.000,0
2026-01-31 04:23:02,70694,-5448.000,-2379.000,6052.000,-245.000,35.000,-193.000,0.000,0.000,0
2026-01-31 04:23:02,70734,-5399.000,-2445.000,5879.000,-56.000,-159.000,-61.000,0.000,0.000,0
2026-01-31 04:23:02,70774,-5352.000,-2307.000,5904.000,280.000,-132.000,-4.000,0.000,0.000,0
2026-01-31 04:23:02,70814,-5385.000,-2346.000,5890.000,37.000,-75.000,132.000,0.000,0.000,0
2026-01-31 04:23:02,70854,-5394.000,-2395.000,5928.000,-133.000,165.000,18.000,0.000,0.000,0
2026-01-31 04:23:02,70894,-5459.000,-2411.000,5957.000,-33.000,5.000,148.000,0.000,0.000,0
2026-01-31 04:23:02,70934,-5460.000,-2573.000,5935.000,177.000,-9.000,276.000,0.000,0.000,0
2026-01-31 04:23:02,70974,-5407.000,-2437.000,6011.000,167.000,-73.000,-78.000,0.000,0.000,0
2026-01-31 04:23:02,71017,-5414.000,-2338.000,5791.000,-163.000,-77.000,-109.000,0.000,0.000,0
2026-01-31 04:23:02,71054,-5412.000,-2425.000,5823.000,-31.000,76.000,57.000,0.000,0.000,0
2026-01-31 04:23:02,71094,-5388.000,-2351.000,6051.000,201.000,165.000,-23.000,0.000,0.000,0
2026-01-31 04:23:02,71134,-5448.000,-2356.000,6056.000,-110.000,-48.000,6.000,0.000,0.000,0
2026-01-31 04:23:02,71174,-5411.000,-2490.000,5875.000,51.000,-139.000,81.000,0.000,0.000,0
2026-01-31 04:23:02,71214,-5381.000,-2288.000,5980.000,274.000,-149.000,-33.000,0.000,0.000,0
2026-01-31 04:23:02,71254,-5398.000,-2398.000,5903.000,-229.000,22.000,67.000,0.000,0.000,0
2026-01-31 04:23:03,71294,-5427.000,-2504.000,5904.000,-9.000,67.000,40.000,0.000,0.000,0
2026-01-31 04:23:03,71334,-5402.000,-2346.000,6013.000,88.000,26.000,-114.000,0.000,0.000,0
2026-01-31 04:23:03,71374,-5397.000,-2346.000,5931.000,-205.000,-7.000,-99.000,0.000,0.000,0
2026-01-31 04:23:03,71414,-5401.000,-2421.000,5886.000,-109.000,31.000,21.000,0.000,0.000,0
2026-01-31 04:23:03,71455,-5421.000,-2436.000,5961.000,172.000,9.000,112.000,0.000,0.000,0
2026-01-31 04:23:03,71494,-5371.000,-2409.000,5962.000,50.000,-49.000,14.000,0.000,0.000,0
2026-01-31 04:23:03,71534,-5421.000,-2447.000,5884.000,-121.000,-34.000,-69.000,0.000,0.000,0
2026-01-31 04:23:03,71574,-5397.000,-2431.000,5887.000,84.000,59.000,-59.000,0.000,0.000,0
2026-01-31 04:23:03,71614,-5407.000,-2408.000,5956.000,-32.000,36.000,-46.000,0.000,0.000,0
2026-01-31 04:23:03,71654,-5356.000,-2308.000,5989.000,-140.000,122.000,-193.000,0.000,0.000,0
2026-01-31 04:23:03,71694,-5392.000,-2341.000,5888.000,-68.000,-93.000,44.000,0.000,0.000,0
2026-01-31 04:23:03,71734,-5436.000,-2446.000,5900.000,229.000,-27.000,283.000,0.000,0.000,0
2026-01-31 04:23:03,71774,-5430.000,-2443.000,6069.000,170.000,83.000,175.000,0.000,0.000,0
2026-01-31 04:23:03,71814,-5432.000,-2455.000,5889.000,-171.000,-183.000,-72.000,0.000,0.000,0
2026-01-31 04:23:03,71854,-5403.000,-2441.000,5808.000,18.000,24.000,-92.000,0.000,0.000,0
2026-01-31 04:23:03,71894,-5372.000,-2273.000,6011.000,23.000,170.000,-128.000,0.000,0.000,0
2026-01-31 04:23:03,71934,-5427.000,-2402.000,5951.000,-258.000,74.000,68.000,0.000,0.000,0
2026-01-31 04:23:03,71974,-5427.000,-2362.000,5970.000,77.000,-26.000,53.000,0.000,0.000,0
2026-01-31 04:23:03,72014,-5408.000,-2284.000,5961.000,-18.000,-47.000,126.000,0.000,0.000,0
2026-01-31 04:23:03,72054,-5421.000,-2480.000,5799.000,-125.000,-33.000,160.000,0.000,0.000,0
2026-01-31 04:23:03,72094,-5474.000,-2499.000,5904.000,133.000,56.000,104.000,0.000,0.000,0
2026-01-31 04:23:03,72134,-5450.000,-2513.000,5989.000,70.000,71.000,-6.000,0.000,0.000,0
2026-01-31 04:23:03,72174,-5429.000,-2392.000,5929.000,-159.000,37.000,-346.000,0.000,0.000,0
2026-01-31 04:23:03,72214,-5424.000,-2269.000,5888.000,-262.000,103.000,-289.000,0.000,0.000,0
2026-01-31 04:23:03,72254,-5401.000,-2385.000,5920.000,-41.000,110.000,81.000,0.000,0.000,0
2026-01-31 04:23:04,72294,-5443.000,-2411.000,5938.000,195.000,-124.000,68.000,0.000,0.000,0
2026-01-31 04:23:04,72334,-5478.000,-2467.000,5971.000,130.000,-56.000,177.000,0.000,0.000,0
2026-01-31 04:23:04,72374,-5426.000,-2548.000,5825.000,165.000,-180.000,-155.000,0.000,0.000,0
2026-01-31 04:23:04,72414,-5419.000,-2316.000,5966.000,10.000,22.000,-261.000,0.000,0.000,0
2026-01-31 04:23:04,72455,-5366.000,-2386.000,5909.000,-250.000,75.000,-147.000,0.000,0.000,0
2026-01-31 04:23:04,72494,-5355.000,-2337.000,5918.000,-12.000,25.000,-171.000,0.000,0.000,0
2026-01-31 04:23:04,72534,-5401.000,-2353.000,5880.000,136.000,-105.000,125.000,0.000,0.000,0
2026-01-31 04:23:04,72574,-5428.000,-2500.000,5905.000,147.000,117.000,307.000,0.000,0.000,0
2026-01-31 04:23:04,72614,-5426.000,-2529.000,5974.000,55.000,-7.000,29.000,0.000,0.000,0
2026-01-31 04:23:04,72654,-5412.000,-2460.000,5856.000,-82.000,-72.000,-170.000,0.000,0.000,0
2026-01-31 04:23:04,72694,-5401.000,-2388.000,5872.000,-94.000,137.000,-177.000,0.000,0.000,0
2026-01-31 04:23:04,72734,-5408.000,-2335.000,5943.000,-78.000,191.000,-107.000,0.000,0.000,0
2026-01-31 04:23:04,72777,-5455.000,-2485.000,5901.000,193.000,45.000,306.000,0.000,0.000,0
2026-01-31 04:23:04,72817,-5418.000,-2433.000,5992.000,205.000,-62.000,118.000,0.000,0.000,0
2026-01-31 04:23:04,72854,-5433.000,-2410.000,5940.000,78.000,-122.000,43.000,0.000,0.000,0
2026-01-31 04:23:04,72894,-5483.000,-2526.000,5789.000,-13.000,-62.000,112.000,0.000,0.000,0
2026-01-31 04:23:04,72934,-5375.000,-2416.000,5869.000,161.000,114.000,-69.000,0.000,0.000,0
2026-01-31 04:23:04,72974,-5402.000,-2249.000,5948.000,-118.000,147.000,-234.000,0.000,0.000,0
2026-01-31 04:23:04,73014,-5494.000,-2412.000,5907.000,-238.000,151.000,109.000,0.000,0.000,0
2026-01-31 04:23:04,73054,-5449.000,-2503.000,5899.000,260.000,29.000,176.000,0.000,0.000,0
2026-01-31 04:23:04,73094,-5437.000,-2267.000,6017.000,168.000,-24.000,-71.000,0.000,0.000,0
2026-01-31 04:23:04,73134,-5466.000,-2515.000,5744.000,-133.000,-43.000,174.000,0.000,0.000,0
2026-01-31 04:23:04,73174,-5454.000,-2410.000,5921.000,252.000,139.000,31.000,0.000,0.000,0
2026-01-31 04:23:04,73214,-5462.000,-2326.000,5990.000,-58.000,64.000,-55.000,0.000,0.000,0
2026-01-31 04:23:04,73254,-5520.000,-2485.000,5795.000,-146.000,-89.000,0.000,0.000,0.000,0
2026-01-31 04:23:05,73294,-5452.000,-2344.000,5929.000,201.000,107.000,-80.000,0.000,0.000,0
2026-01-31 04:23:05,73334,-5449.000,-2275.000,5960.000,-55.000,-47.000,-31.000,0.000,0.000,0
2026-01-31 04:23:05,73374,-5468.000,-2412.000,5800.000,-58.000,-118.000,125.000,0.000,0.000,0
2026-01-31 04:23:05,73414,-5443.000,-2384.000,5973.000,285.000,13.000,181.000,0.000,0.000,0
2026-01-31 04:23:05,73455,-5500.000,-2339.000,6007.000,25.000,-107.000,74.000,0.000,0.000,0
2026-01-31 04:23:05,73494,-5469.000,-2432.000,5783.000,-138.000,-198.000,7.000,0.000,0.000,0
2026-01-31 04:23:05,73534,-5454.000,-2352.000,5970.000,151.000,90.000,19.000,0.000,0.000,0
2026-01-31 04:23:05,73574,-5427.000,-2350.000,5972.000,-133.000,-71.000,-49.000,0.000,0.000,0
2026-01-31 04:23:05,73614,-5430.000,-2326.000,5806.000,-139.000,-90.000,-84.000,0.000,0.000,0
2026-01-31 04:23:05,73654,-5440.000,-2291.000,5917.000,67.000,82.000,76.000,0.000,0.000,0
2026-01-31 04:23:05,73694,-5439.000,-2294.000,6014.000,2.000,16.000,233.000,0.000,0.000,0
2026-01-31 04:23:05,73734,-5441.000,-2306.000,5968.000,-15.000,-188.000,241.000,0.000,0.000,0
2026-01-31 04:23:05,73774,-5467.000,-2426.000,5901.000,157.000,-308.000,288.000,0.000,0.000,0
2026-01-31 04:23:05,73814,-5438.000,-2413.000,5853.000,217.000,-236.000,179.000,0.000,0.000,0
2026-01-31 04:23:05,73854,-5404.000,-2306.000,5953.000,-76.000,122.000,-98.000,0.000,0.000,0
2026-01-31 04:23:05,73894,-5452.000,-2273.000,5934.000,-355.000,42.000,-97.000,0.000,0.000,0
2026-01-31 04:23:05,73934,-5445.000,-2297.000,5935.000,164.000,24.000,220.000,0.000,0.000,0
2026-01-31 04:23:05,73974,-5393.000,-2238.000,6019.000,369.000,-256.000,201.000,0.000,0.000,0
2026-01-31 04:23:05,74014,-5444.000,-2234.000,6014.000,98.000,-229.000,297.000,0.000,0.000,0
2026-01-31 04:23:05,74054,-5462.000,-2372.000,5897.000,237.000,-291.000,421.000,0.000,0.000,0
2026-01-31 04:23:05,74094,-5447.000,-2266.000,6011.000,507.000,-199.000,127.000,0.000,0.000,0
2026-01-31 04:23:05,74134,-5407.000,-2223.000,6086.000,67.000,-185.000,-127.000,0.000,0.000,0
2026-01-31 04:23:05,74174,-5364.000,-2210.000,6047.000,-58.000,-265.000,-289.000,0.000,0.000,0
2026-01-31 04:23:05,74214,-5332.000,-2097.000,6091.000,236.000,-285.000,-73.000,0.000,0.000,0
2026-01-31 04:23:05,74254,-5309.000,-2100.000,6077.000,353.000,-282.000,215.000,0.000,0.000,0
2026-01-31 04:23:06,74294,-5284.000,-2143.000,5984.000,312.000,-359.000,242.000,0.000,0.000,0
2026-01-31 04:23:06,74334,-5281.000,-2076.000,6092.000,237.000,23.000,152.000,0.000,0.000,0
2026-01-31 04:23:06,74374,-5314.000,-2172.000,6126.000,19.000,142.000,126.000,0.000,0.000,0
2026-01-31 04:23:06,74414,-5377.000,-2251.000,6176.000,133.000,120.000,28.000,0.000,0.000,0
2026-01-31 04:23:06,74455,-5376.000,-2165.000,6159.000,485.000,-86.000,-85.000,0.000,0.000,0
2026-01-31 04:23:06,74494,-5246.000,-2024.000,6046.000,621.000,-302.000,-326.000,0.000,0.000,0
2026-01-31 04:23:06,74534,-5122.000,-1774.000,5844.000,329.000,-203.000,-549.000,0.000,0.000,0
2026-01-31 04:23:06,74574,-5144.000,-1871.000,5490.000,294.000,156.000,-78.000,0.000,0.000,0
2026-01-31 04:23:06,74614,-5230.000,-1898.000,5812.000,555.000,1110.000,137.000,0.000,0.000,0
2026-01-31 04:23:06,74654,-5439.000,-2515.000,5113.000,879.000,411.000,645.000,0.000,0.000,0
2026-01-31 04:23:06,74694,-5642.000,-2352.000,5029.000,1719.000,1433.000,-300.000,0.000,0.000,0
2026-01-31 04:23:06,74734,-5872.000,-2388.000,5678.000,1035.000,2504.000,-1070.000,0.000,0.000,0
2026-01-31 04:23:06,74777,-6273.000,-3248.000,3889.000,1574.000,-380.000,-1788.000,0.000,0.000,0
2026-01-31 04:23:06,74816,-6935.000,-2276.000,5558.000,551.000,5898.000,-4892.000,0.000,0.000,0
2026-01-31 04:23:06,74854,-7156.000,-2255.000,6558.000,-692.000,7671.000,-5153.000,0.000,0.000,0
2026-01-31 04:23:06,74894,-6544.000,-2433.000,5443.000,-3305.000,4778.000,-5682.000,0.000,0.000,0
2026-01-31 04:23:06,74934,-6667.000,-2625.000,5273.000,-3870.000,5505.000,-6327.000,0.000,0.000,0
2026-01-31 04:23:06,74974,-6015.000,-1974.000,4979.000,-1550.000,5484.000,-3645.000,0.000,0.000,0
2026-01-31 04:23:06,75017,-7505.000,-2139.000,4856.000,-2864.000,1893.000,3427.000,0.000,0.000,0
2026-01-31 04:23:06,75054,-7166.000,-3904.000,4288.000,-2183.000,897.000,5109.000,0.000,0.000,0
2026-01-31 04:23:06,75094,-7413.000,-5038.000,3981.000,-81.000,-595.000,3902.000,0.000,0.000,0
2026-01-31 04:23:06,75134,-7458.000,-4048.000,3934.000,1370.000,-2416.000,1211.000,0.000,0.000,0
2026-01-31 04:23:06,75174,-7048.000,-3917.000,3503.000,-461.000,-2684.000,-857.000,0.000,0.000,0
2026-01-31 04:23:06,75214,-6743.000,-3907.000,3286.000,-1613.000,-1851.000,-2431.000,0.000,0.000,0
2026-01-31 04:23:06,75254,-6502.000,-3980.000,3099.000,-2624.000,-236.000,-3570.000,0.000,0.000,0
2026-01-31 04:23:07,75294,-6694.000,-3958.000,2932.000,-2977.000,245.000,-3895.000,0.000,0.000,0
