datetime_local,uptime_ms,acc_x,acc_y,acc_z,gyro_x,gyro_y,gyro_z,speed_mps,turn_rate_deg_s,gps_valid
2026-01-31 03:45:32,248894,462.000,-3913.000,6704.000,838.000,-424.000,-202.000,0.000,0.000,0
2026-01-31 03:45:32,248934,571.000,-3801.000,7737.000,-1092.000,342.000,-129.000,0.000,0.000,0
2026-01-31 03:45:32,248975,423.000,-4991.000,7261.000,-1283.000,197.000,-260.000,0.000,0.000,0
2026-01-31 03:45:32,249015,499.000,-4173.000,7116.000,624.000,-9.000,-164.000,0.000,0.000,0
2026-01-31 03:45:32,249054,498.000,-4142.000,7281.000,570.000,-52.000,172.000,0.000,0.000,0
2026-01-31 03:45:32,249094,540.000,-4303.000,7276.000,-21.000,-129.000,-53.000,0.000,0.000,0
2026-01-31 03:45:32,249134,551.000,-4153.000,7423.000,160.000,-251.000,-279.000,0.000,0.000,0
2026-01-31 03:45:32,249174,646.000,-3979.000,7254.000,318.000,-167.000,-89.000,0.000,0.000,0
2026-01-31 03:45:32,249214,457.000,-4195.000,7127.000,-30.000,34.000,41.000,0.000,0.000,0
2026-01-31 03:45:32,249254,511.000,-4030.000,6874.000,479.000,-224.000,-178.000,0.000,0.000,0
2026-01-31 03:45:32,249294,663.000,-3844.000,6793.000,481.000,-357.000,-209.000,0.000,0.000,0
2026-01-31 03:45:32,249334,2654.000,-4788.000,5512.000,725.000,-519.000,512.000,0.000,0.000,0
2026-01-31 03:45:32,249374,1758.000,-2487.000,6215.000,4637.000,-49.000,617.000,0.000,0.000,0
2026-01-31 03:45:32,249414,2203.000,-3789.000,5786.000,3111.000,-20.000,1990.000,0.000,0.000,0
2026-01-31 03:45:32,249454,1317.000,-3474.000,5863.000,3599.000,-173.000,2689.000,0.000,0.000,0
2026-01-31 03:45:32,249494,-1984.000,-2229.000,8148.000,4176.000,-413.000,2441.000,0.000,0.000,0
2026-01-31 03:45:32,249534,-1196.000,-818.000,10923.000,1070.000,-2883.000,2059.000,0.000,0.000,0
2026-01-31 03:45:32,249574,-38.000,-2669.000,10721.000,-609.000,-2121.000,1244.000,0.000,0.000,0
2026-01-31 03:45:32,249614,1139.000,-2694.000,9778.000,1616.000,93.000,411.000,0.000,0.000,0
2026-01-31 03:45:32,249654,1520.000,-2495.000,8709.000,1473.000,802.000,385.000,0.000,0.000,0
2026-01-31 03:45:32,249694,1227.000,-2805.000,7504.000,919.000,1358.000,668.000,0.000,0.000,0
2026-01-31 03:45:32,249734,339.000,-2465.000,7353.000,1370.000,1264.000,776.000,0.000,0.000,0
2026-01-31 03:45:32,249774,913.000,-1881.000,7469.000,1143.000,463.000,1043.000,0.000,0.000,0
2026-01-31 03:45:32,249814,708.000,-2098.000,7236.000,698.000,535.000,1480.000,0.000,0.000,0
2026-01-31 03:45:33,249854,901.000,-1871.000,7379.000,2043.000,400.000,1670.000,0.000,0.000,0
2026-01-31 03:45:33,249894,1151.000,-1259.000,7258.000,3032.000,561.000,1977.000,0.000,0.000,0
2026-01-31 03:45:33,249934,672.000,-1542.000,7643.000,3125.000,752.000,2210.000,0.000,0.000,0
2026-01-31 03:45:33,249974,-56.000,-926.000,8067.000,4282.000,680.000,2615.000,0.000,0.000,0
2026-01-31 03:45:33,250014,-73.000,-719.000,8529.000,4063.000,360.000,2942.000,0.000,0.000,0
2026-01-31 03:45:33,250054,-281.000,-101.000,8638.000,4236.000,622.000,3448.000,0.000,0.000,0
2026-01-31 03:45:33,250094,-319.000,362.000,8545.000,4005.000,711.000,3856.000,0.000,0.000,0
2026-01-31 03:45:33,250134,8.000,1078.000,8262.000,4090.000,1139.000,4347.000,0.000,0.000,0
2026-01-31 03:45:33,250174,-285.000,1124.000,7938.000,3492.000,1622.000,4838.000,0.000,0.000,0
2026-01-31 03:45:33,250214,-199.000,1762.000,7523.000,4492.000,1643.000,4984.000,0.000,0.000,0
2026-01-31 03:45:33,250254,-1205.000,2821.000,7525.000,4520.000,1900.000,4925.000,0.000,0.000,0
2026-01-31 03:45:33,250294,-1550.000,2558.000,8243.000,3102.000,998.000,4874.000,0.000,0.000,0
2026-01-31 03:45:33,250334,-1147.000,3268.000,7622.000,3452.000,546.000,4378.000,0.000,0.000,0
2026-01-31 03:45:33,250374,-1242.000,3462.000,8951.000,1588.000,-501.000,3273.000,0.000,0.000,0
2026-01-31 03:45:33,250414,-725.000,3350.000,9030.000,1499.000,-329.000,2503.000,0.000,0.000,0
2026-01-31 03:45:33,250454,-751.000,2588.000,8586.000,-930.000,-628.000,2436.000,0.000,0.000,0
2026-01-31 03:45:33,250494,-361.000,2343.000,7542.000,-262.000,-1185.000,1836.000,0.000,0.000,0
2026-01-31 03:45:33,250534,-264.000,3802.000,7303.000,1196.000,-1649.000,1352.000,0.000,0.000,0
2026-01-31 03:45:33,250574,536.000,3647.000,7678.000,-677.000,-2240.000,1147.000,0.000,0.000,0
2026-01-31 03:45:33,250617,891.000,3528.000,7437.000,144.000,-2187.000,427.000,0.000,0.000,0
2026-01-31 03:45:33,250657,1211.000,3595.000,7902.000,33.000,-2223.000,186.000,0.000,0.000,0
2026-01-31 03:45:33,250694,1325.000,3192.000,7643.000,-217.000,-2170.000,139.000,0.000,0.000,0
2026-01-31 03:45:33,250734,1564.000,2268.000,8786.000,-346.000,-965.000,720.000,0.000,0.000,0
2026-01-31 03:45:33,250774,1773.000,2962.000,7800.000,771.000,-666.000,824.000,0.000,0.000,0
2026-01-31 03:45:33,250814,1342.000,2542.000,6796.000,-404.000,-589.000,898.000,0.000,0.000,0
2026-01-31 03:45:34,250854,2355.000,2373.000,7615.000,70.000,-1183.000,629.000,0.000,0.000,0
2026-01-31 03:45:34,250894,2732.000,3614.000,8011.000,-1.000,-735.000,853.000,0.000,0.000,0
2026-01-31 03:45:34,250934,2753.000,3854.000,8018.000,369.000,-375.000,652.000,0.000,0.000,0
2026-01-31 03:45:34,250974,2643.000,3588.000,7770.000,442.000,-83.000,389.000,0.000,0.000,0
2026-01-31 03:45:34,251014,1771.000,2868.000,7177.000,112.000,205.000,190.000,0.000,0.000,0
2026-01-31 03:45:34,251054,1927.000,3351.000,7941.000,255.000,-32.000,182.000,0.000,0.000,0
2026-01-31 03:45:34,251094,1730.000,2925.000,7807.000,-286.000,183.000,243.000,0.000,0.000,0
2026-01-31 03:45:34,251134,2150.000,3091.000,7441.000,557.000,1.000,56.000,0.000,0.000,0
2026-01-31 03:45:34,251174,1855.000,3197.000,7385.000,187.000,109.000,43.000,0.000,0.000,0
2026-01-31 03:45:34,251214,1903.000,3102.000,7725.000,-59.000,51.000,-39.000,0.000,0.000,0
2026-01-31 03:45:34,251254,1785.000,3130.000,7664.000,156.000,17.000,-71.000,0.000,0.000,0
2026-01-31 03:45:34,251294,1805.000,2997.000,7310.000,-29.000,79.000,-91.000,0.000,0.000,0
2026-01-31 03:45:34,251334,2138.000,3116.000,7561.000,-146.000,-32.000,-164.000,0.000,0.000,0
2026-01-31 03:45:34,251374,1892.000,3050.000,7358.000,50.000,77.000,-158.000,0.000,0.000,0
2026-01-31 03:45:34,251414,1854.000,3299.000,7460.000,74.000,99.000,-114.000,0.000,0.000,0
2026-01-31 03:45:34,251454,1791.000,3118.000,7681.000,-63.000,123.000,-18.000,0.000,0.000,0
2026-01-31 03:45:34,251494,1743.000,3030.000,7468.000,6.000,100.000,2.000,0.000,0.000,0
2026-01-31 03:45:34,251534,1855.000,2965.000,7608.000,-159.000,0.000,-27.000,0.000,0.000,0
2026-01-31 03:45:34,251574,1814.000,3005.000,7757.000,-105.000,9.000,-30.000,0.000,0.000,0
2026-01-31 03:45:34,251614,1793.000,3152.000,7594.000,95.000,-4.000,9.000,0.000,0.000,0
2026-01-31 03:45:34,251654,1806.000,3076.000,7408.000,46.000,0.000,63.000,0.000,0.000,0
2026-01-31 03:45:34,251694,1868.000,3092.000,7650.000,-7.000,37.000,80.000,0.000,0.000,0
2026-01-31 03:45:34,251734,1731.000,3166.000,7478.000,80.000,120.000,87.000,0.000,0.000,0
2026-01-31 03:45:34,251774,1825.000,3150.000,7480.000,-7.000,67.000,79.000,0.000,0.000,0
2026-01-31 03:45:34,251814,1784.000,3010.000,7674.000,-63.000,109.000,71.000,0.000,0.000,0
2026-01-31 03:45:35,251854,1774.000,3108.000,7521.000,94.000,64.000,64.000,0.000,0.000,0
2026-01-31 03:45:35,251894,1828.000,3129.000,7597.000,-115.000,5.000,46.000,0.000,0.000,0
2026-01-31 03:45:35,251934,1751.000,2931.000,7627.000,-101.000,-5.000,39.000,0.000,0.000,0
2026-01-31 03:45:35,251974,1804.000,3022.000,7480.000,-12.000,-42.000,49.000,0.000,0.000,0
2026-01-31 03:45:35,252014,1883.000,3075.000,7585.000,-108.000,-13.000,45.000,0.000,0.000,0
2026-01-31 03:45:35,252054,1793.000,3086.000,7533.000,81.000,-16.000,44.000,0.000,0.000,0
2026-01-31 03:45:35,252094,1772.000,3089.000,7584.000,-55.000,2.000,61.000,0.000,0.000,0
2026-01-31 03:45:35,252134,1721.000,3030.000,7664.000,-182.000,8.000,63.000,0.000,0.000,0
2026-01-31 03:45:35,252174,1844.000,3150.000,7571.000,91.000,-44.000,40.000,0.000,0.000,0
2026-01-31 03:45:35,252214,1906.000,2913.000,7547.000,-164.000,-45.000,36.000,0.000,0.000,0
2026-01-31 03:45:35,252254,1697.000,3065.000,7623.000,-161.000,-8.000,47.000,0.000,0.000,0
2026-01-31 03:45:35,252294,1846.000,3184.000,7592.000,-29.000,30.000,18.000,0.000,0.000,0
2026-01-31 03:45:35,252334,1854.000,2816.000,7491.000,-331.000,57.000,45.000,0.000,0.000,0
2026-01-31 03:45:35,252374,1939.000,3016.000,7596.000,-132.000,17.000,6.000,0.000,0.000,0
2026-01-31 03:45:35,252414,1923.000,2883.000,7784.000,-205.000,19.000,5.000,0.000,0.000,0
2026-01-31 03:45:35,252454,1806.000,2919.000,7560.000,-38.000,55.000,27.000,0.000,0.000,0
2026-01-31 03:45:35,252494,1877.000,2907.000,7573.000,-36.000,32.000,56.000,0.000,0.000,0
2026-01-31 03:45:35,252534,1878.000,2915.000,7689.000,-91.000,-8.000,38.000,0.000,0.000,0
2026-01-31 03:45:35,252574,1767.000,2917.000,7655.000,-25.000,11.000,28.000,0.000,0.000,0
2026-01-31 03:45:35,252614,1876.000,2922.000,7550.000,-24.000,-20.000,20.000,0.000,0.000,0
2026-01-31 03:45:35,252654,1856.000,3013.000,7646.000,-36.000,-2.000,7.000,0.000,0.000,0
2026-01-31 03:45:35,252694,1857.000,2803.000,7628.000,-117.000,12.000,50.000,0.000,0.000,0
2026-01-31 03:45:35,252734,1816.000,2955.000,7638.000,30.000,29.000,30.000,0.000,0.000,0
2026-01-31 03:45:35,252774,1834.000,2869.000,7633.000,-72.000,59.000,65.000,0.000,0.000,0
2026-01-31 03:45:35,252814,1876.000,2963.000,7574.000,0.000,22.000,34.000,0.000,0.000,0
2026-01-31 03:45:36,252854,1823.000,2852.000,7691.000,-90.000,-6.000,12.000,0.000,0.000,0
2026-01-31 03:45:36,252897,1839.000,2877.000,7616.000,-62.000,2.000,-31.000,0.000,0.000,0
2026-01-31 03:45:36,252934,1854.000,2876.000,7584.000,-50.000,9.000,-33.000,0.000,0.000,0
2026-01-31 03:45:36,252974,1835.000,2924.000,7618.000,-30.000,29.000,-47.000,0.000,0.000,0
2026-01-31 03:45:36,253014,1857.000,2875.000,7693.000,-28.000,64.000,-43.000,0.000,0.000,0
2026-01-31 03:45:36,253054,1820.000,2847.000,7679.000,-104.000,63.000,-3.000,0.000,0.000,0
2026-01-31 03:45:36,253094,1792.000,2822.000,7758.000,-79.000,-4.000,29.000,0.000,0.000,0
2026-01-31 03:45:36,253134,1206.000,2668.000,8637.000,-608.000,421.000,172.000,0.000,0.000,0
2026-01-31 03:45:36,253174,2817.000,2984.000,7609.000,726.000,-784.000,380.000,0.000,0.000,0
2026-01-31 03:45:36,253214,1528.000,3350.000,7968.000,-393.000,1030.000,426.000,0.000,0.000,0
2026-01-31 03:45:36,253254,2502.000,2686.000,6743.000,-256.000,-649.000,345.000,0.000,0.000,0
2026-01-31 03:45:36,253294,1150.000,2612.000,7674.000,-84.000,560.000,63.000,0.000,0.000,0
2026-01-31 03:45:36,253334,1297.000,2998.000,8283.000,-96.000,-95.000,106.000,0.000,0.000,0
2026-01-31 03:45:36,253374,856.000,1787.000,8478.000,-1030.000,637.000,359.000,0.000,0.000,0
2026-01-31 03:45:36,253414,3628.000,2585.000,6742.000,-38.000,-776.000,264.000,0.000,0.000,0
2026-01-31 03:45:36,253454,1269.000,3655.000,7175.000,-116.000,169.000,-474.000,0.000,0.000,0
2026-01-31 03:45:36,253494,-362.000,2928.000,9139.000,-1763.000,286.000,-307.000,0.000,0.000,0
2026-01-31 03:45:36,253534,631.000,2370.000,8427.000,-211.000,-69.000,24.000,0.000,0.000,0
2026-01-31 03:45:36,253574,184.000,1855.000,8062.000,-735.000,181.000,380.000,0.000,0.000,0
2026-01-31 03:45:36,253614,923.000,1986.000,8023.000,-696.000,-38.000,346.000,0.000,0.000,0
2026-01-31 03:45:36,253654,1060.000,1842.000,8337.000,-751.000,89.000,286.000,0.000,0.000,0
2026-01-31 03:45:36,253694,-114.000,1643.000,7781.000,-1094.000,577.000,482.000,0.000,0.000,0
2026-01-31 03:45:36,253734,-349.000,2185.000,9096.000,-923.000,506.000,534.000,0.000,0.000,0
2026-01-31 03:45:36,253774,5.000,1598.000,8989.000,-1360.000,561.000,1001.000,0.000,0.000,0
2026-01-31 03:45:36,253814,342.000,2402.000,8482.000,-797.000,651.000,1339.000,0.000,0.000,0
2026-01-31 03:45:37,253854,-218.000,2576.000,9250.000,-1250.000,982.000,1214.000,0.000,0.000,0
2026-01-31 03:45:37,253894,1596.000,1499.000,7693.000,-631.000,286.000,1278.000,0.000,0.000,0
2026-01-31 03:45:37,253934,-1704.000,1032.000,8118.000,-1731.000,1691.000,1141.000,0.000,0.000,0
2026-01-31 03:45:37,253974,263.000,2494.000,8665.000,-84.000,148.000,1056.000,0.000,0.000,0
2026-01-31 03:45:37,254014,-162.000,967.000,8383.000,-1935.000,871.000,1374.000,0.000,0.000,0
2026-01-31 03:45:37,254054,-522.000,1340.000,8295.000,-1097.000,1190.000,1167.000,0.000,0.000,0
2026-01-31 03:45:37,254094,-1013.000,1315.000,8526.000,-1313.000,505.000,1104.000,0.000,0.000,0
2026-01-31 03:45:37,254134,425.000,1749.000,9504.000,-614.000,-317.000,1138.000,0.000,0.000,0
2026-01-31 03:45:37,254174,730.000,811.000,7619.000,-1210.000,-101.000,1073.000,0.000,0.000,0
2026-01-31 03:45:37,254214,-971.000,1589.000,8013.000,-1161.000,1203.000,-92.000,0.000,0.000,0
2026-01-31 03:45:37,254254,2490.000,-632.000,6375.000,-944.000,-1496.000,1018.000,0.000,0.000,0
2026-01-31 03:45:37,254294,-531.000,1920.000,7696.000,645.000,750.000,-37.000,0.000,0.000,0
2026-01-31 03:45:37,254334,430.000,939.000,8190.000,-808.000,913.000,-468.000,0.000,0.000,0
2026-01-31 03:45:37,254374,2980.000,-790.000,6601.000,214.000,-1624.000,820.000,0.000,0.000,0
2026-01-31 03:45:37,254414,-183.000,713.000,8010.000,1441.000,460.000,182.000,0.000,0.000,0
2026-01-31 03:45:37,254454,-1435.000,1421.000,9485.000,790.000,1106.000,-733.000,0.000,0.000,0
2026-01-31 03:45:37,254494,-350.000,940.000,8172.000,-63.000,68.000,-815.000,0.000,0.000,0
2026-01-31 03:45:37,254534,-290.000,1054.000,8534.000,143.000,-529.000,-708.000,0.000,0.000,0
2026-01-31 03:45:37,254574,-184.000,938.000,9312.000,90.000,605.000,-571.000,0.000,0.000,0
2026-01-31 03:45:37,254614,-1367.000,552.000,8976.000,-168.000,725.000,-821.000,0.000,0.000,0
2026-01-31 03:45:37,254654,-1947.000,1165.000,8197.000,5.000,235.000,-1027.000,0.000,0.000,0
2026-01-31 03:45:37,254694,1593.000,1371.000,9338.000,-425.000,-1793.000,-918.000,0.000,0.000,0
2026-01-31 03:45:37,254734,2067.000,190.000,6153.000,481.000,-460.000,-1305.000,0.000,0.000,0
2026-01-31 03:45:37,254774,-177.000,2559.000,9691.000,293.000,-1669.000,-1538.000,0.000,0.000,0
2026-01-31 03:45:37,254814,2791.000,1501.000,9079.000,-1956.000,-1412.000,-470.000,0.000,0.000,0
2026-01-31 03:45:38,254854,830.000,1200.000,8546.000,-441.000,-1026.000,-936.000,0.000,0.000,0
2026-01-31 03:45:38,254897,3222.000,546.000,7589.000,-1642.000,-371.000,-173.000,0.000,0.000,0
2026-01-31 03:45:38,254934,3485.000,1038.000,6282.000,-718.000,-194.000,-133.000,0.000,0.000,0
2026-01-31 03:45:38,254974,3341.000,2809.000,7413.000,-556.000,848.000,-556.000,0.000,0.000,0
2026-01-31 03:45:38,255014,4034.000,750.000,6648.000,-1375.000,742.000,-632.000,0.000,0.000,0
2026-01-31 03:45:38,255054,-159.000,-2719.000,8564.000,-1613.000,887.000,-1270.000,0.000,0.000,0
2026-01-31 03:45:38,255094,1710.000,1558.000,8647.000,1508.000,-113.000,-1212.000,0.000,0.000,0
2026-01-31 03:45:38,255134,1114.000,-1183.000,7729.000,-1030.000,66.000,-768.000,0.000,0.000,0
2026-01-31 03:45:38,255174,980.000,1838.000,8936.000,650.000,459.000,-1073.000,0.000,0.000,0
2026-01-31 03:45:38,255214,809.000,-11.000,7935.000,-675.000,802.000,-893.000,0.000,0.000,0
2026-01-31 03:45:38,255254,2230.000,1504.000,8461.000,167.000,441.000,-641.000,0.000,0.000,0
2026-01-31 03:45:38,255294,1455.000,1339.000,8484.000,-519.000,1119.000,-845.000,0.000,0.000,0
2026-01-31 03:45:38,255334,1367.000,1180.000,8911.000,-1413.000,370.000,-1129.000,0.000,0.000,0
2026-01-31 03:45:38,255374,491.000,774.000,8453.000,-1485.000,563.000,-1586.000,0.000,0.000,0
2026-01-31 03:45:38,255414,1123.000,1927.000,9177.000,-1556.000,28.000,-1952.000,0.000,0.000,0
2026-01-31 03:45:38,255454,-51.000,1101.000,8411.000,-1698.000,-524.000,-1701.000,0.000,0.000,0
2026-01-31 03:45:38,255494,3506.000,828.000,7622.000,-1748.000,-1482.000,-777.000,0.000,0.000,0
2026-01-31 03:45:38,255534,3100.000,396.000,7746.000,-1808.000,377.000,-1600.000,0.000,0.000,0
2026-01-31 03:45:38,255574,601.000,486.000,7606.000,-1046.000,1823.000,-2189.000,0.000,0.000,0
2026-01-31 03:45:38,255614,1073.000,600.000,7976.000,-398.000,1408.000,-1775.000,0.000,0.000,0
2026-01-31 03:45:38,255654,2735.000,591.000,7221.000,-616.000,721.000,-1441.000,0.000,0.000,0
2026-01-31 03:45:38,255694,1310.000,1215.000,10012.000,-780.000,1027.000,-2059.000,0.000,0.000,0
2026-01-31 03:45:38,255734,489.000,820.000,9320.000,-1323.000,856.000,-2733.000,0.000,0.000,0
2026-01-31 03:45:38,255774,436.000,1230.000,9100.000,-780.000,500.000,-2622.000,0.000,0.000,0
2026-01-31 03:45:38,255814,163.000,1578.000,9378.000,-1180.000,387.000,-2488.000,0.000,0.000,0
2026-01-31 03:45:39,255854,1430.000,1551.000,8489.000,-1084.000,100.000,-2338.000,0.000,0.000,0
2026-01-31 03:45:39,255894,711.000,1374.000,9067.000,-1399.000,173.000,-2407.000,0.000,0.000,0
2026-01-31 03:45:39,255934,1758.000,1948.000,8531.000,-1421.000,266.000,-2651.000,0.000,0.000,0
2026-01-31 03:45:39,255974,1238.000,1305.000,8465.000,-1660.000,1363.000,-2838.000,0.000,0.000,0
2026-01-31 03:45:39,256014,842.000,-2712.000,8903.000,-1680.000,1736.000,-2767.000,0.000,0.000,0
2026-01-31 03:45:39,256054,201.000,2763.000,8784.000,394.000,1834.000,-3391.000,0.000,0.000,0
2026-01-31 03:45:39,256094,3364.000,-3002.000,8293.000,-2620.000,-5255.000,515.000,0.000,0.000,0
2026-01-31 03:45:39,256134,6475.000,-723.000,4440.000,-1266.000,497.000,-3385.000,0.000,0.000,0
2026-01-31 03:45:39,256174,-1350.000,-1502.000,8654.000,67.000,2319.000,-3371.000,0.000,0.000,0
2026-01-31 03:45:39,256214,979.000,943.000,9219.000,1830.000,1629.000,-2429.000,0.000,0.000,0
2026-01-31 03:45:39,256254,-1736.000,-355.000,11706.000,1334.000,1539.000,-1750.000,0.000,0.000,0
2026-01-31 03:45:39,256294,-2016.000,-1819.000,8306.000,-698.000,1067.000,-1435.000,0.000,0.000,0
2026-01-31 03:45:39,256334,-1085.000,-1079.000,8649.000,1320.000,-823.000,-1667.000,0.000,0.000,0
2026-01-31 03:45:39,256374,577.000,410.000,8341.000,159.000,-851.000,-1358.000,0.000,0.000,0
2026-01-31 03:45:39,256414,560.000,-1722.000,7297.000,-180.000,850.000,-946.000,0.000,0.000,0
2026-01-31 03:45:39,256454,395.000,-213.000,7432.000,1762.000,1049.000,-1293.000,0.000,0.000,0
2026-01-31 03:45:39,256494,-1899.000,173.000,8891.000,1198.000,1295.000,-1416.000,0.000,0.000,0
2026-01-31 03:45:39,256534,-2571.000,868.000,7479.000,1066.000,543.000,-1190.000,0.000,0.000,0
2026-01-31 03:45:39,256574,7246.000,-689.000,7337.000,1368.000,-2518.000,338.000,0.000,0.000,0
2026-01-31 03:45:39,256617,-23812.000,2281.000,14451.000,1217.000,11707.000,-4472.000,0.000,0.000,0
2026-01-31 03:45:39,256654,-2163.000,1687.000,10177.000,1813.000,-6863.000,5041.000,0.000,0.000,0
2026-01-31 03:45:39,256694,3351.000,2082.000,9865.000,133.000,2583.000,-3030.000,0.000,0.000,0
2026-01-31 03:45:39,256734,-1642.000,-1272.000,7872.000,-1633.000,-1017.000,261.000,0.000,0.000,0
2026-01-31 03:45:39,256774,-3398.000,864.000,13845.000,902.000,1930.000,-3325.000,0.000,0.000,0
2026-01-31 03:45:39,256814,2585.000,1249.000,6989.000,-536.000,-6956.000,1411.000,0.000,0.000,0
2026-01-31 03:45:40,256854,-3739.000,-5.000,8171.000,-2026.000,1100.000,-1202.000,0.000,0.000,0
2026-01-31 03:45:40,256897,878.000,904.000,8328.000,-12.000,-249.000,-1091.000,0.000,0.000,0
2026-01-31 03:45:40,256934,1227.000,-80.000,6890.000,-1128.000,-805.000,-842.000,0.000,0.000,0
2026-01-31 03:45:40,256974,-29.000,317.000,7624.000,9.000,32.000,-1347.000,0.000,0.000,0
2026-01-31 03:45:40,257014,2092.000,939.000,8575.000,118.000,-393.000,-1219.000,0.000,0.000,0
2026-01-31 03:45:40,257054,-1939.000,36.000,7497.000,-834.000,1632.000,-1724.000,0.000,0.000,0
2026-01-31 03:45:40,257094,2524.000,918.000,9693.000,740.000,-1046.000,-1045.000,0.000,0.000,0
2026-01-31 03:45:40,257134,-89.000,847.000,8615.000,-716.000,1638.000,-1790.000,0.000,0.000,0
2026-01-31 03:45:40,257174,434.000,273.000,9079.000,170.000,170.000,-1489.000,0.000,0.000,0
2026-01-31 03:45:40,257214,-406.000,852.000,8303.000,-343.000,326.000,-1413.000,0.000,0.000,0
2026-01-31 03:45:40,257254,-352.000,1666.000,9641.000,-165.000,288.000,-1865.000,0.000,0.000,0
2026-01-31 03:45:40,257294,1254.000,291.000,8215.000,-742.000,-498.000,-1501.000,0.000,0.000,0
2026-01-31 03:45:40,257334,192.000,1493.000,8302.000,-353.000,-120.000,-1716.000,0.000,0.000,0
2026-01-31 03:45:40,257374,2444.000,571.000,7563.000,-644.000,-906.000,-1339.000,0.000,0.000,0
2026-01-31 03:45:40,257414,861.000,831.000,8249.000,-943.000,308.000,-1792.000,0.000,0.000,0
2026-01-31 03:45:40,257454,1576.000,164.000,7395.000,-378.000,126.000,-1496.000,0.000,0.000,0
2026-01-31 03:45:40,257494,-413.000,971.000,8959.000,-409.000,890.000,-2024.000,0.000,0.000,0
2026-01-31 03:45:40,257534,1836.000,726.000,8960.000,-325.000,-306.000,-1684.000,0.000,0.000,0
2026-01-31 03:45:40,257574,737.000,325.000,8138.000,-795.000,233.000,-1797.000,0.000,0.000,0
2026-01-31 03:45:40,257614,2115.000,924.000,8271.000,-17.000,-435.000,-1670.000,0.000,0.000,0
2026-01-31 03:45:40,257654,578.000,-128.000,8469.000,-897.000,280.000,-1664.000,0.000,0.000,0
2026-01-31 03:45:40,257694,916.000,1499.000,8895.000,547.000,808.000,-2285.000,0.000,0.000,0
2026-01-31 03:45:40,257734,1814.000,-17.000,7909.000,-446.000,56.000,-1644.000,0.000,0.000,0
2026-01-31 03:45:40,257774,831.000,513.000,8693.000,-145.000,423.000,-2069.000,0.000,0.000,0
2026-01-31 03:45:40,257814,1852.000,693.000,8403.000,20.000,546.000,-2100.000,0.000,0.000,0
2026-01-31 03:45:41,257854,-622.000,1190.000,8867.000,1.000,942.000,-2307.000,0.000,0.000,0
2026-01-31 03:45:41,257894,2473.000,252.000,8531.000,-130.000,-364.000,-1354.000,0.000,0.000,0
2026-01-31 03:45:41,257934,1351.000,902.000,7862.000,-158.000,914.000,-2083.000,0.000,0.000,0
2026-01-31 03:45:41,257974,1338.000,763.000,8885.000,-50.000,251.000,-2082.000,0.000,0.000,0
2026-01-31 03:45:41,258014,1712.000,971.000,8088.000,-525.000,624.000,-2141.000,0.000,0.000,0
2026-01-31 03:45:41,258054,781.000,863.000,8848.000,-411.000,605.000,-2102.000,0.000,0.000,0
2026-01-31 03:45:41,258094,1023.000,906.000,9007.000,-201.000,647.000,-2058.000,0.000,0.000,0
2026-01-31 03:45:41,258134,1957.000,1053.000,8591.000,-208.000,415.000,-1990.000,0.000,0.000,0
2026-01-31 03:45:41,258174,1373.000,580.000,8648.000,-496.000,659.000,-2055.000,0.000,0.000,0
2026-01-31 03:45:41,258214,-1.000,1216.000,8813.000,-340.000,616.000,-2296.000,0.000,0.000,0
2026-01-31 03:45:41,258254,1768.000,891.000,9104.000,-572.000,54.000,-1925.000,0.000,0.000,0
2026-01-31 03:45:41,258294,2259.000,637.000,8696.000,-823.000,380.000,-2260.000,0.000,0.000,0
2026-01-31 03:45:41,258334,1770.000,827.000,8224.000,-820.000,573.000,-2394.000,0.000,0.000,0
2026-01-31 03:45:41,258374,1990.000,1559.000,8322.000,-969.000,-534.000,-1978.000,0.000,0.000,0
2026-01-31 03:45:41,258414,1973.000,257.000,7650.000,-1513.000,-885.000,-1383.000,0.000,0.000,0
2026-01-31 03:45:41,258454,1467.000,636.000,8303.000,-1047.000,479.000,-2153.000,0.000,0.000,0
2026-01-31 03:45:41,258494,3001.000,230.000,6816.000,-873.000,438.000,-2184.000,0.000,0.000,0
2026-01-31 03:45:41,258534,-132.000,697.000,8924.000,-945.000,1484.000,-2898.000,0.000,0.000,0
2026-01-31 03:45:41,258574,1759.000,1117.000,8000.000,-64.000,324.000,-2134.000,0.000,0.000,0
2026-01-31 03:45:41,258614,-1037.000,997.000,9922.000,-855.000,739.000,-2262.000,0.000,0.000,0
2026-01-31 03:45:41,258657,2181.000,400.000,8231.000,-862.000,183.000,-2222.000,0.000,0.000,0
2026-01-31 03:45:41,258696,1188.000,220.000,7493.000,-851.000,438.000,-2761.000,0.000,0.000,0
2026-01-31 03:45:41,258734,1181.000,38.000,8840.000,-591.000,252.000,-2922.000,0.000,0.000,0
2026-01-31 03:45:41,258774,213.000,1177.000,8464.000,-932.000,1216.000,-3226.000,0.000,0.000,0
2026-01-31 03:45:41,258814,804.000,93.000,8149.000,-655.000,283.000,-2695.000,0.000,0.000,0
2026-01-31 03:45:42,258854,1342.000,1047.000,8760.000,-1173.000,-140.000,-2571.000,0.000,0.000,0
2026-01-31 03:45:42,258897,3031.000,1365.000,8405.000,-664.000,108.000,-2991.000,0.000,0.000,0
2026-01-31 03:45:42,258934,1132.000,765.000,8369.000,-1649.000,1140.000,-3112.000,0.000,0.000,0
2026-01-31 03:45:42,258974,2830.000,501.000,7997.000,-618.000,281.000,-2396.000,0.000,0.000,0
2026-01-31 03:45:42,259014,2804.000,-238.000,7831.000,-1185.000,842.000,-2591.000,0.000,0.000,0
2026-01-31 03:45:42,259054,1080.000,-115.000,9341.000,-609.000,795.000,-2965.000,0.000,0.000,0
2026-01-31 03:45:42,259094,2861.000,1360.000,8599.000,-145.000,585.000,-3426.000,0.000,0.000,0
2026-01-31 03:45:42,259134,1393.000,297.000,7443.000,-1342.000,1045.000,-3118.000,0.000,0.000,0
2026-01-31 03:45:42,259174,1325.000,-200.000,7823.000,-489.000,840.000,-2943.000,0.000,0.000,0
2026-01-31 03:45:42,259214,1594.000,577.000,9253.000,-229.000,1399.000,-3178.000,0.000,0.000,0
2026-01-31 03:45:42,259254,1967.000,242.000,8217.000,-211.000,1096.000,-2811.000,0.000,0.000,0
2026-01-31 03:45:42,259294,455.000,-44.000,8734.000,-192.000,1226.000,-2731.000,0.000,0.000,0
2026-01-31 03:45:42,259334,1907.000,1312.000,9796.000,1143.000,849.000,-3295.000,0.000,0.000,0
2026-01-31 03:45:42,259374,2147.000,-935.000,8730.000,-641.000,48.000,-2404.000,0.000,0.000,0
2026-01-31 03:45:42,259414,9.000,-648.000,8319.000,-38.000,1600.000,-2744.000,0.000,0.000,0
2026-01-31 03:45:42,259454,-70.000,258.000,8560.000,785.000,1468.000,-2790.000,0.000,0.000,0
2026-01-31 03:45:42,259494,476.000,787.000,10052.000,725.000,950.000,-2786.000,0.000,0.000,0
2026-01-31 03:45:42,259534,906.000,22.000,8290.000,200.000,324.000,-2529.000,0.000,0.000,0
2026-01-31 03:45:42,259574,132.000,225.000,8800.000,77.000,378.000,-2804.000,0.000,0.000,0
2026-01-31 03:45:42,259614,868.000,411.000,8715.000,204.000,690.000,-2914.000,0.000,0.000,0
2026-01-31 03:45:42,259654,73.000,564.000,9324.000,127.000,763.000,-3137.000,0.000,0.000,0
2026-01-31 03:45:42,259694,1311.000,810.000,9151.000,48.000,466.000,-2943.000,0.000,0.000,0
2026-01-31 03:45:42,259734,597.000,581.000,8223.000,-360.000,550.000,-2682.000,0.000,0.000,0
2026-01-31 03:45:42,259774,1468.000,521.000,7855.000,-74.000,353.000,-2456.000,0.000,0.000,0
2026-01-31 03:45:42,259814,1299.000,-94.000,8092.000,39.000,946.000,-2615.000,0.000,0.000,0
2026-01-31 03:45:43,259854,446.000,119.000,8169.000,56.000,885.000,-2789.000,0.000,0.000,0
2026-01-31 03:45:43,259894,-361.000,612.000,9164.000,100.000,842.000,-2848.000,0.000,0.000,0
2026-01-31 03:45:43,259934,1291.000,121.000,8866.000,423.000,551.000,-2290.000,0.000,0.000,0
2026-01-31 03:45:43,259974,1467.000,-312.000,7965.000,436.000,1146.000,-2462.000,0.000,0.000,0
2026-01-31 03:45:43,260014,-1400.000,405.000,8682.000,928.000,1603.000,-2850.000,0.000,0.000,0
2026-01-31 03:45:43,260054,-603.000,932.000,8991.000,922.000,176.000,-2235.000,0.000,0.000,0
2026-01-31 03:45:43,260094,1980.000,297.000,8598.000,611.000,-56.000,-1983.000,0.000,0.000,0
2026-01-31 03:45:43,260134,-452.000,-593.000,7353.000,246.000,1539.000,-2760.000,0.000,0.000,0
2026-01-31 03:45:43,260174,-982.000,631.000,8382.000,1573.000,624.000,-2506.000,0.000,0.000,0
2026-01-31 03:45:43,260214,-1613.000,858.000,9171.000,799.000,936.000,-2464.000,0.000,0.000,0
2026-01-31 03:45:43,260254,857.000,500.000,7721.000,1130.000,-211.000,-1599.000,0.000,0.000,0
2026-01-31 03:45:43,260294,-1757.000,432.000,8676.000,1110.000,-231.000,-1842.000,0.000,0.000,0
2026-01-31 03:45:43,260334,-328.000,724.000,8500.000,1031.000,-670.000,-1703.000,0.000,0.000,0
2026-01-31 03:45:43,260374,-1735.000,688.000,9396.000,867.000,195.000,-1467.000,0.000,0.000,0
2026-01-31 03:45:43,260414,1105.000,286.000,7230.000,1167.000,-596.000,-1241.000,0.000,0.000,0
2026-01-31 03:45:43,260454,-3250.000,395.000,8906.000,638.000,88.000,-1754.000,0.000,0.000,0
2026-01-31 03:45:43,260494,-1508.000,1393.000,8894.000,1431.000,-766.000,-1014.000,0.000,0.000,0
2026-01-31 03:45:43,260534,1111.000,85.000,7893.000,410.000,-1230.000,-604.000,0.000,0.000,0
2026-01-31 03:45:43,260574,-256.000,293.000,7960.000,722.000,744.000,-1264.000,0.000,0.000,0
2026-01-31 03:45:43,260614,-1721.000,1034.000,8146.000,1175.000,895.000,-1762.000,0.000,0.000,0
2026-01-31 03:45:43,260654,276.000,706.000,6609.000,848.000,36.000,-1065.000,0.000,0.000,0
2026-01-31 03:45:43,260695,-2159.000,1021.000,8772.000,435.000,1487.000,-1337.000,0.000,0.000,0
2026-01-31 03:45:43,260734,-1610.000,1146.000,7944.000,1106.000,442.000,-845.000,0.000,0.000,0
2026-01-31 03:45:43,260774,-163.000,847.000,8122.000,786.000,-285.000,-407.000,0.000,0.000,0
2026-01-31 03:45:43,260814,-179.000,796.000,8165.000,1062.000,120.000,-646.000,0.000,0.000,0
2026-01-31 03:45:44,260854,-1266.000,301.000,8922.000,1110.000,556.000,-1080.000,0.000,0.000,0
2026-01-31 03:45:44,260894,1111.000,1191.000,8487.000,1209.000,35.000,-841.000,0.000,0.000,0
2026-01-31 03:45:44,260934,-4796.000,983.000,9007.000,486.000,2156.000,-1517.000,0.000,0.000,0
2026-01-31 03:45:44,260974,-340.000,1122.000,8890.000,988.000,-1057.000,-195.000,0.000,0.000,0
2026-01-31 03:45:44,261014,119.000,671.000,8196.000,347.000,252.000,-556.000,0.000,0.000,0
2026-01-31 03:45:44,261054,-3454.000,1524.000,9201.000,734.000,343.000,-499.000,0.000,0.000,0
2026-01-31 03:45:44,261094,998.000,1291.000,8150.000,399.000,-1242.000,408.000,0.000,0.000,0
2026-01-31 03:45:44,261134,2030.000,943.000,7713.000,-272.000,333.000,275.000,0.000,0.000,0
2026-01-31 03:45:44,261174,-5965.000,1669.000,8783.000,571.000,2308.000,-460.000,0.000,0.000,0
2026-01-31 03:45:44,261214,2227.000,1633.000,8399.000,618.000,-843.000,813.000,0.000,0.000,0
2026-01-31 03:45:44,261254,-3440.000,885.000,8306.000,-189.000,975.000,289.000,0.000,0.000,0
2026-01-31 03:45:44,261294,-1553.000,1406.000,8479.000,835.000,-1061.000,682.000,0.000,0.000,0
2026-01-31 03:45:44,261334,3349.000,1731.000,7851.000,177.000,-1518.000,506.000,0.000,0.000,0
2026-01-31 03:45:44,261374,-3471.000,807.000,8399.000,-432.000,1065.000,-144.000,0.000,0.000,0
2026-01-31 03:45:44,261414,-4650.000,2412.000,7940.000,863.000,-350.000,86.000,0.000,0.000,0
2026-01-31 03:45:44,261454,1120.000,1429.000,8437.000,-750.000,-152.000,739.000,0.000,0.000,0
2026-01-31 03:45:44,261494,-4692.000,2118.000,10418.000,84.000,1328.000,35.000,0.000,0.000,0
2026-01-31 03:45:44,261534,2532.000,-36.000,6236.000,-498.000,-2183.000,862.000,0.000,0.000,0
2026-01-31 03:45:44,261574,-4606.000,2317.000,9330.000,-530.000,-357.000,-348.000,0.000,0.000,0
2026-01-31 03:45:44,261614,4675.000,843.000,8177.000,-1359.000,-2434.000,703.000,0.000,0.000,0
2026-01-31 03:45:44,261654,-1779.000,988.000,8688.000,-94.000,1685.000,-348.000,0.000,0.000,0
2026-01-31 03:45:44,261694,-2213.000,296.000,8408.000,90.000,-2496.000,692.000,0.000,0.000,0
2026-01-31 03:45:44,261734,3356.000,897.000,8695.000,-205.000,-3504.000,1691.000,0.000,0.000,0
2026-01-31 03:45:44,261774,378.000,1167.000,9659.000,-566.000,1646.000,93.000,0.000,0.000,0
2026-01-31 03:45:44,261814,-1278.000,811.000,6914.000,774.000,-516.000,-109.000,0.000,0.000,0
2026-01-31 03:45:45,261854,511.000,2304.000,8696.000,-166.000,-2209.000,327.000,0.000,0.000,0
2026-01-31 03:45:45,261894,-1185.000,1418.000,9076.000,192.000,833.000,-611.000,0.000,0.000,0
2026-01-31 03:45:45,261934,9135.000,-2089.000,4208.000,-1781.000,-4952.000,1563.000,0.000,0.000,0
2026-01-31 03:45:45,261974,-8440.000,2913.000,10027.000,834.000,5141.000,-1891.000,0.000,0.000,0
2026-01-31 03:45:45,262014,2543.000,647.000,9223.000,-970.000,-1440.000,102.000,0.000,0.000,0
2026-01-31 03:45:45,262054,4107.000,538.000,4381.000,-508.000,-389.000,102.000,0.000,0.000,0
2026-01-31 03:45:45,262094,-7317.000,2484.000,10936.000,-387.000,3559.000,-1250.000,0.000,0.000,0
2026-01-31 03:45:45,262134,4400.000,-381.000,6370.000,-680.000,-2302.000,723.000,0.000,0.000,0
2026-01-31 03:45:45,262174,-3030.000,1748.000,8920.000,-418.000,1277.000,-648.000,0.000,0.000,0
2026-01-31 03:45:45,262214,4453.000,1480.000,7960.000,628.000,1192.000,-640.000,0.000,0.000,0
2026-01-31 03:45:45,262254,-6325.000,1465.000,8943.000,-605.000,3580.000,-1108.000,0.000,0.000,0
2026-01-31 03:45:45,262294,4568.000,78.000,9295.000,-212.000,-1606.000,505.000,0.000,0.000,0
2026-01-31 03:45:45,262334,-1297.000,546.000,8081.000,-881.000,1226.000,-459.000,0.000,0.000,0
2026-01-31 03:45:45,262374,-8526.000,466.000,11466.000,248.000,606.000,-1289.000,0.000,0.000,0
2026-01-31 03:45:45,262414,10362.000,-911.000,5156.000,345.000,-4928.000,2067.000,0.000,0.000,0
2026-01-31 03:45:45,262454,-7684.000,2875.000,11665.000,-46.000,2237.000,-711.000,0.000,0.000,0
2026-01-31 03:45:45,262494,8600.000,-1056.000,3826.000,-56.000,-2514.000,1229.000,0.000,0.000,0
2026-01-31 03:45:45,262534,-13097.000,3930.000,11544.000,868.000,4737.000,-2298.000,0.000,0.000,0
2026-01-31 03:45:45,262574,6644.000,849.000,6442.000,-706.000,408.000,-287.000,0.000,0.000,0
2026-01-31 03:45:45,262617,-1565.000,288.000,8556.000,-284.000,-1277.000,323.000,0.000,0.000,0
2026-01-31 03:45:45,262656,3579.000,1342.000,7448.000,692.000,562.000,-1180.000,0.000,0.000,0
2026-01-31 03:45:45,262694,-4934.000,2100.000,10373.000,25.000,3090.000,-1287.000,0.000,0.000,0
2026-01-31 03:45:45,262734,3079.000,-729.000,5508.000,-188.000,-2244.000,958.000,0.000,0.000,0
2026-01-31 03:45:45,262774,-6024.000,2849.000,10012.000,1314.000,2192.000,-1195.000,0.000,0.000,0
2026-01-31 03:45:45,262814,5376.000,-844.000,6779.000,-768.000,-2805.000,1030.000,0.000,0.000,0
2026-01-31 03:45:46,262854,-3345.000,1311.000,9897.000,534.000,1858.000,-634.000,0.000,0.000,0
2026-01-31 03:45:46,262896,-582.000,1610.000,9235.000,573.000,936.000,-650.000,0.000,0.000,0
2026-01-31 03:45:46,262935,-1880.000,1096.000,8661.000,-227.000,1051.000,-401.000,0.000,0.000,0
2026-01-31 03:45:46,262974,670.000,941.000,8171.000,357.000,81.000,143.000,0.000,0.000,0
2026-01-31 03:45:46,263014,-3552.000,1085.000,9049.000,132.000,1434.000,-622.000,0.000,0.000,0
2026-01-31 03:45:46,263054,1338.000,480.000,6393.000,108.000,-1087.000,618.000,0.000,0.000,0
2026-01-31 03:45:46,263094,-4169.000,2128.000,9430.000,278.000,1702.000,-825.000,0.000,0.000,0
2026-01-31 03:45:46,263134,2758.000,-45.000,7983.000,1.000,-1837.000,938.000,0.000,0.000,0
2026-01-31 03:45:46,263174,-1435.000,1723.000,8513.000,543.000,1461.000,-469.000,0.000,0.000,0
2026-01-31 03:45:46,263214,-1251.000,594.000,8911.000,39.000,283.000,-88.000,0.000,0.000,0
2026-01-31 03:45:46,263254,-2312.000,1287.000,7719.000,155.000,-168.000,-158.000,0.000,0.000,0
2026-01-31 03:45:46,263294,2050.000,921.000,8182.000,-211.000,-1480.000,364.000,0.000,0.000,0
2026-01-31 03:45:46,263334,-2295.000,1343.000,9636.000,109.000,1541.000,-653.000,0.000,0.000,0
2026-01-31 03:45:46,263374,1299.000,609.000,8488.000,145.000,755.000,-136.000,0.000,0.000,0
2026-01-31 03:45:46,263414,765.000,1304.000,8968.000,-244.000,1263.000,-204.000,0.000,0.000,0
2026-01-31 03:45:46,263454,-5451.000,966.000,9404.000,600.000,2488.000,-1098.000,0.000,0.000,0
2026-01-31 03:45:46,263494,13257.000,-414.000,9496.000,-563.000,-4028.000,2095.000,0.000,0.000,0
2026-01-31 03:45:46,263534,-13443.000,1750.000,7615.000,-1156.000,8351.000,-2271.000,0.000,0.000,0
2026-01-31 03:45:46,263574,3453.000,1353.000,8642.000,955.000,-1681.000,585.000,0.000,0.000,0
2026-01-31 03:45:46,263614,-163.000,961.000,6345.000,-949.000,608.000,589.000,0.000,0.000,0
2026-01-31 03:45:46,263654,-3979.000,1816.000,9319.000,73.000,2343.000,-300.000,0.000,0.000,0
2026-01-31 03:45:46,263694,-9221.000,2468.000,15139.000,1210.000,2002.000,-2128.000,0.000,0.000,0
2026-01-31 03:45:46,263734,21120.000,-4841.000,-19014.000,461.000,-11038.000,30.000,0.000,0.000,0
2026-01-31 03:45:46,263774,-20340.000,7827.000,18296.000,991.000,10472.000,-2118.000,0.000,0.000,0
2026-01-31 03:45:46,263814,16293.000,-3029.000,-3217.000,-1911.000,-8960.000,-1847.000,0.000,0.000,0
2026-01-31 03:45:47,263854,-11115.000,3961.000,9105.000,2061.000,6254.000,-841.000,0.000,0.000,0
2026-01-31 03:45:47,263894,1368.000,-263.000,8532.000,-2463.000,-3903.000,1158.000,0.000,0.000,0
2026-01-31 03:45:47,263934,7124.000,725.000,5159.000,286.000,-1240.000,80.000,0.000,0.000,0
2026-01-31 03:45:47,263974,-6874.000,2603.000,10775.000,-821.000,4967.000,-1516.000,0.000,0.000,0
2026-01-31 03:45:47,264014,5292.000,-456.000,5058.000,-418.000,-1757.000,932.000,0.000,0.000,0
2026-01-31 03:45:47,264054,-4631.000,1849.000,10547.000,-850.000,3549.000,-700.000,0.000,0.000,0
2026-01-31 03:45:47,264094,2589.000,932.000,8781.000,-1209.000,-87.000,309.000,0.000,0.000,0
2026-01-31 03:45:47,264134,-3713.000,1589.000,11534.000,-1127.000,2210.000,-732.000,0.000,0.000,0
2026-01-31 03:45:47,264174,1846.000,363.000,9395.000,229.000,-222.000,66.000,0.000,0.000,0
2026-01-31 03:45:47,264214,509.000,-86.000,7701.000,-910.000,-276.000,452.000,0.000,0.000,0
2026-01-31 03:45:47,264254,-3023.000,1631.000,9048.000,640.000,3288.000,-1084.000,0.000,0.000,0
2026-01-31 03:45:47,264294,-3578.000,841.000,11206.000,-154.000,1023.000,-630.000,0.000,0.000,0
2026-01-31 03:45:47,264334,4015.000,-816.000,4085.000,-1080.000,-2734.000,1176.000,0.000,0.000,0
2026-01-31 03:45:47,264374,-7672.000,2175.000,12192.000,642.000,4937.000,-1497.000,0.000,0.000,0
2026-01-31 03:45:47,264414,2421.000,-739.000,7139.000,-315.000,-2093.000,1178.000,0.000,0.000,0
2026-01-31 03:45:47,264454,-3993.000,1707.000,8889.000,221.000,1551.000,-255.000,0.000,0.000,0
2026-01-31 03:45:47,264494,2551.000,640.000,7330.000,440.000,-2709.000,314.000,0.000,0.000,0
2026-01-31 03:45:47,264534,-3014.000,337.000,7641.000,-817.000,-185.000,-274.000,0.000,0.000,0
2026-01-31 03:45:47,264574,-2656.000,1325.000,9596.000,200.000,203.000,-410.000,0.000,0.000,0
2026-01-31 03:45:47,264617,-1124.000,573.000,9989.000,75.000,1356.000,-336.000,0.000,0.000,0
2026-01-31 03:45:47,264654,3865.000,80.000,7426.000,-39.000,-2361.000,591.000,0.000,0.000,0
2026-01-31 03:45:47,264694,-9118.000,1362.000,11581.000,744.000,5062.000,-1512.000,0.000,0.000,0
2026-01-31 03:45:47,264734,4371.000,-1373.000,4500.000,-470.000,-5346.000,1934.000,0.000,0.000,0
2026-01-31 03:45:47,264774,-2687.000,1839.000,9382.000,239.000,3311.000,-393.000,0.000,0.000,0
2026-01-31 03:45:47,264814,-18.000,-222.000,7307.000,549.000,416.000,27.000,0.000,0.000,0
2026-01-31 03:45:48,264854,2304.000,-202.000,8294.000,460.000,457.000,-355.000,0.000,0.000,0
2026-01-31 03:45:48,264898,-6209.000,1543.000,11594.000,782.000,3395.000,-187.000,0.000,0.000,0
2026-01-31 03:45:48,264934,-3350.000,1083.000,9763.000,177.000,468.000,-68.000,0.000,0.000,0
2026-01-31 03:45:48,264974,2286.000,543.000,7305.000,424.000,-544.000,-186.000,0.000,0.000,0
2026-01-31 03:45:48,265014,-1858.000,789.000,8949.000,-669.000,-33.000,-398.000,0.000,0.000,0
2026-01-31 03:45:48,265054,924.000,38.000,7090.000,-363.000,-628.000,62.000,0.000,0.000,0
2026-01-31 03:45:48,265094,-4461.000,1326.000,9681.000,189.000,1583.000,-404.000,0.000,0.000,0
2026-01-31 03:45:48,265134,5031.000,-253.000,6709.000,-392.000,-2499.000,860.000,0.000,0.000,0
2026-01-31 03:45:48,265174,-6159.000,1503.000,9445.000,-348.000,3052.000,-543.000,0.000,0.000,0
2026-01-31 03:45:48,265214,1887.000,153.000,8353.000,-110.000,-2697.000,981.000,0.000,0.000,0
2026-01-31 03:45:48,265254,1098.000,761.000,9361.000,-333.000,-389.000,258.000,0.000,0.000,0
2026-01-31 03:45:48,265294,-2667.000,1080.000,9323.000,-169.000,1221.000,-430.000,0.000,0.000,0
2026-01-31 03:45:48,265334,-189.000,497.000,9610.000,-623.000,-1436.000,292.000,0.000,0.000,0
2026-01-31 03:45:48,265374,560.000,835.000,7299.000,-65.000,179.000,-340.000,0.000,0.000,0
2026-01-31 03:45:48,265414,-4043.000,938.000,8183.000,-589.000,-429.000,-180.000,0.000,0.000,0
2026-01-31 03:45:48,265454,3841.000,1049.000,7704.000,558.000,-1991.000,-6.000,0.000,0.000,0
2026-01-31 03:45:48,265494,-26.000,-49.000,7394.000,-1383.000,-780.000,232.000,0.000,0.000,0
2026-01-31 03:45:48,265534,-3623.000,1412.000,9919.000,1001.000,1995.000,-1108.000,0.000,0.000,0
2026-01-31 03:45:48,265574,3520.000,-918.000,4575.000,-1250.000,-4109.000,1323.000,0.000,0.000,0
2026-01-31 03:45:48,265614,-4307.000,1729.000,8550.000,230.000,2693.000,-945.000,0.000,0.000,0
2026-01-31 03:45:48,265654,1792.000,207.000,7086.000,-351.000,-1204.000,-196.000,0.000,0.000,0
2026-01-31 03:45:48,265694,-2341.000,870.000,9408.000,-784.000,709.000,-721.000,0.000,0.000,0
2026-01-31 03:45:48,265734,2945.000,499.000,7679.000,43.000,-873.000,-176.000,0.000,0.000,0
2026-01-31 03:45:48,265774,218.000,290.000,7837.000,-122.000,64.000,-124.000,0.000,0.000,0
2026-01-31 03:45:48,265814,-3403.000,1065.000,8724.000,192.000,942.000,-724.000,0.000,0.000,0
2026-01-31 03:45:49,265854,784.000,394.000,8455.000,-153.000,-1848.000,115.000,0.000,0.000,0
2026-01-31 03:45:49,265894,3169.000,235.000,7599.000,-472.000,-1143.000,21.000,0.000,0.000,0
2026-01-31 03:45:49,265934,-2207.000,952.000,8292.000,721.000,1447.000,-652.000,0.000,0.000,0
2026-01-31 03:45:49,265974,826.000,432.000,9046.000,-212.000,-537.000,-91.000,0.000,0.000,0
2026-01-31 03:45:49,266014,-1518.000,945.000,9926.000,247.000,1248.000,-901.000,0.000,0.000,0
2026-01-31 03:45:49,266054,1518.000,-115.000,8051.000,-248.000,-1069.000,-165.000,0.000,0.000,0
2026-01-31 03:45:49,266094,-309.000,1131.000,8099.000,601.000,-48.000,-415.000,0.000,0.000,0
2026-01-31 03:45:49,266134,5040.000,334.000,7190.000,-243.000,-1948.000,-126.000,0.000,0.000,0
2026-01-31 03:45:49,266174,-2603.000,495.000,7859.000,97.000,1290.000,-843.000,0.000,0.000,0
2026-01-31 03:45:49,266214,1949.000,1119.000,8460.000,291.000,-180.000,-644.000,0.000,0.000,0
2026-01-31 03:45:49,266254,3615.000,-479.000,6551.000,91.000,-821.000,-180.000,0.000,0.000,0
2026-01-31 03:45:49,266294,-1567.000,1692.000,9684.000,1048.000,1226.000,-521.000,0.000,0.000,0
2026-01-31 03:45:49,266334,-93.000,795.000,9857.000,712.000,244.000,-523.000,0.000,0.000,0
2026-01-31 03:45:49,266374,5033.000,-415.000,9812.000,-199.000,-2805.000,361.000,0.000,0.000,0
2026-01-31 03:45:49,266414,4892.000,-566.000,6006.000,-441.000,-2886.000,663.000,0.000,0.000,0
2026-01-31 03:45:49,266454,-2405.000,1800.000,9047.000,2012.000,3086.000,-1170.000,0.000,0.000,0
2026-01-31 03:45:49,266494,4394.000,-329.000,7239.000,-659.000,-2831.000,385.000,0.000,0.000,0
2026-01-31 03:45:49,266534,242.000,639.000,7287.000,478.000,145.000,-299.000,0.000,0.000,0
2026-01-31 03:45:49,266574,2395.000,1436.000,8673.000,-78.000,-23.000,-416.000,0.000,0.000,0
2026-01-31 03:45:49,266614,1131.000,61.000,7915.000,370.000,98.000,-378.000,0.000,0.000,0
2026-01-31 03:45:49,266654,335.000,1330.000,8714.000,921.000,-1130.000,336.000,0.000,0.000,0
2026-01-31 03:45:49,266695,3883.000,418.000,8182.000,511.000,426.000,-174.000,0.000,0.000,0
2026-01-31 03:45:49,266734,1514.000,226.000,8140.000,112.000,-598.000,-118.000,0.000,0.000,0
2026-01-31 03:45:49,266774,538.000,960.000,8699.000,452.000,-13.000,35.000,0.000,0.000,0
2026-01-31 03:45:49,266814,4079.000,970.000,7551.000,642.000,-227.000,304.000,0.000,0.000,0
2026-01-31 03:45:50,266854,641.000,206.000,8231.000,151.000,327.000,-354.000,0.000,0.000,0
2026-01-31 03:45:50,266897,5721.000,-467.000,6492.000,-717.000,-3156.000,844.000,0.000,0.000,0
2026-01-31 03:45:50,266934,2333.000,816.000,8488.000,107.000,152.000,-155.000,0.000,0.000,0
2026-01-31 03:45:50,266974,2951.000,-217.000,7010.000,-253.000,-1551.000,724.000,0.000,0.000,0
2026-01-31 03:45:50,267014,-351.000,1474.000,8484.000,1136.000,698.000,15.000,0.000,0.000,0
2026-01-31 03:45:50,267054,3248.000,925.000,8268.000,118.000,-617.000,338.000,0.000,0.000,0
2026-01-31 03:45:50,267094,2362.000,-101.000,7319.000,-352.000,463.000,195.000,0.000,0.000,0
2026-01-31 03:45:50,267134,-1330.000,1509.000,9204.000,1251.000,1252.000,-423.000,0.000,0.000,0
2026-01-31 03:45:50,267174,4539.000,412.000,7205.000,161.000,-1543.000,747.000,0.000,0.000,0
2026-01-31 03:45:50,267214,1942.000,316.000,8150.000,137.000,796.000,15.000,0.000,0.000,0
2026-01-31 03:45:50,267254,1796.000,1038.000,8837.000,620.000,-88.000,30.000,0.000,0.000,0
2026-01-31 03:45:50,267294,2011.000,601.000,7285.000,314.000,391.000,246.000,0.000,0.000,0
2026-01-31 03:45:50,267334,-638.000,1605.000,8748.000,736.000,1054.000,294.000,0.000,0.000,0
2026-01-31 03:45:50,267374,2771.000,-69.000,7394.000,-24.000,-456.000,801.000,0.000,0.000,0
2026-01-31 03:45:50,267414,-180.000,1383.000,9651.000,301.000,210.000,502.000,0.000,0.000,0
2026-01-31 03:45:50,267454,1991.000,-3.000,6633.000,-293.000,-588.000,869.000,0.000,0.000,0
2026-01-31 03:45:50,267494,-1453.000,2282.000,8655.000,587.000,561.000,416.000,0.000,0.000,0
2026-01-31 03:45:50,267534,1490.000,1280.000,8532.000,-995.000,711.000,90.000,0.000,0.000,0
2026-01-31 03:45:50,267574,4574.000,-182.000,7459.000,-606.000,-930.000,481.000,0.000,0.000,0
2026-01-31 03:45:50,267614,-1886.000,1450.000,9633.000,525.000,874.000,-164.000,0.000,0.000,0
2026-01-31 03:45:50,267654,3634.000,574.000,7715.000,-266.000,-1565.000,982.000,0.000,0.000,0
2026-01-31 03:45:50,267694,1219.000,851.000,8051.000,-151.000,688.000,488.000,0.000,0.000,0
2026-01-31 03:45:50,267734,1376.000,303.000,8445.000,-457.000,-1027.000,533.000,0.000,0.000,0
2026-01-31 03:45:50,267774,1598.000,1166.000,8387.000,-196.000,-600.000,518.000,0.000,0.000,0
2026-01-31 03:45:50,267814,1204.000,1111.000,7612.000,-235.000,-59.000,745.000,0.000,0.000,0
2026-01-31 03:45:51,267854,2058.000,1087.000,8814.000,-59.000,-35.000,844.000,0.000,0.000,0
2026-01-31 03:45:51,267894,464.000,904.000,8646.000,3.000,67.000,606.000,0.000,0.000,0
2026-01-31 03:45:51,267934,3642.000,692.000,6421.000,-830.000,-1069.000,423.000,0.000,0.000,0
2026-01-31 03:45:51,267974,-794.000,1528.000,9251.000,-259.000,1304.000,-466.000,0.000,0.000,0
2026-01-31 03:45:51,268014,3299.000,482.000,7395.000,-975.000,-617.000,318.000,0.000,0.000,0
2026-01-31 03:45:51,268054,2539.000,630.000,7684.000,-359.000,424.000,185.000,0.000,0.000,0
2026-01-31 03:45:51,268094,-2003.000,1344.000,9367.000,129.000,930.000,-21.000,0.000,0.000,0
2026-01-31 03:45:51,268134,6086.000,185.000,6893.000,-943.000,-2062.000,1002.000,0.000,0.000,0
2026-01-31 03:45:51,268174,-1564.000,1256.000,7371.000,-220.000,2608.000,-541.000,0.000,0.000,0
2026-01-31 03:45:51,268214,598.000,908.000,8217.000,-559.000,241.000,-305.000,0.000,0.000,0
2026-01-31 03:45:51,268254,1971.000,1409.000,8320.000,-398.000,164.000,-52.000,0.000,0.000,0
2026-01-31 03:45:51,268294,1825.000,606.000,8845.000,-913.000,-88.000,299.000,0.000,0.000,0
2026-01-31 03:45:51,268334,693.000,1329.000,7941.000,-568.000,-307.000,140.000,0.000,0.000,0
2026-01-31 03:45:51,268374,861.000,1153.000,9424.000,-1148.000,-322.000,-407.000,0.000,0.000,0
2026-01-31 03:45:51,268414,3331.000,-44.000,6420.000,-1846.000,-2859.000,256.000,0.000,0.000,0
2026-01-31 03:45:51,268454,1233.000,1285.000,8068.000,-1124.000,586.000,-769.000,0.000,0.000,0
2026-01-31 03:45:51,268494,1603.000,138.000,8770.000,-1670.000,-134.000,-992.000,0.000,0.000,0
2026-01-31 03:45:51,268534,134.000,234.000,8186.000,-989.000,-773.000,-733.000,0.000,0.000,0
2026-01-31 03:45:51,268574,1962.000,838.000,7790.000,-806.000,-1727.000,58.000,0.000,0.000,0
2026-01-31 03:45:51,268614,3640.000,-476.000,7367.000,-1025.000,-479.000,-190.000,0.000,0.000,0
2026-01-31 03:45:51,268657,1288.000,550.000,8176.000,-1849.000,-768.000,-800.000,0.000,0.000,0
2026-01-31 03:45:51,268697,399.000,816.000,7782.000,-1199.000,-584.000,-578.000,0.000,0.000,0
2026-01-31 03:45:51,268734,4166.000,0.000,8502.000,-1263.000,-1583.000,-133.000,0.000,0.000,0
2026-01-31 03:45:51,268774,3918.000,-924.000,7288.000,-671.000,-283.000,-310.000,0.000,0.000,0
2026-01-31 03:45:51,268814,-1634.000,924.000,8873.000,714.000,345.000,-790.000,0.000,0.000,0
2026-01-31 03:45:52,268854,3583.000,-430.000,7083.000,-1252.000,-1684.000,345.000,0.000,0.000,0
2026-01-31 03:45:52,268897,3359.000,-911.000,10050.000,-1091.000,961.000,-869.000,0.000,0.000,0
2026-01-31 03:45:52,268934,3270.000,-1425.000,7163.000,-621.000,1354.000,-992.000,0.000,0.000,0
2026-01-31 03:45:52,268974,-3642.000,1791.000,10473.000,803.000,2499.000,-1895.000,0.000,0.000,0
2026-01-31 03:45:52,269014,7991.000,-1193.000,8596.000,-1808.000,-3745.000,947.000,0.000,0.000,0
2026-01-31 03:45:52,269054,1295.000,-298.000,8993.000,760.000,2992.000,-1266.000,0.000,0.000,0
2026-01-31 03:45:52,269094,2992.000,2.000,7965.000,-487.000,-112.000,-938.000,0.000,0.000,0
2026-01-31 03:45:52,269134,-223.000,-254.000,7830.000,-912.000,944.000,-969.000,0.000,0.000,0
2026-01-31 03:45:52,269174,520.000,-640.000,7860.000,-501.000,374.000,-34.000,0.000,0.000,0
2026-01-31 03:45:52,269214,2601.000,-912.000,9890.000,-268.000,366.000,54.000,0.000,0.000,0
2026-01-31 03:45:52,269254,7873.000,-1537.000,3071.000,-543.000,-2784.000,483.000,0.000,0.000,0
2026-01-31 03:45:52,269294,-10864.000,-23.000,12559.000,-1711.000,4485.000,-3340.000,0.000,0.000,0
2026-01-31 03:45:52,269334,12772.000,-3127.000,2006.000,-1903.000,-6441.000,2192.000,0.000,0.000,0
2026-01-31 03:45:52,269374,-6766.000,21.000,11074.000,408.000,5919.000,-2512.000,0.000,0.000,0
2026-01-31 03:45:52,269414,5141.000,-3170.000,5876.000,-1577.000,-3241.000,910.000,0.000,0.000,0
2026-01-31 03:45:52,269454,799.000,-730.000,8167.000,-1438.000,-221.000,-329.000,0.000,0.000,0
2026-01-31 03:45:52,269494,2290.000,-1496.000,7286.000,-954.000,-721.000,-186.000,0.000,0.000,0
2026-01-31 03:45:52,269534,4175.000,-1748.000,7004.000,-1580.000,-387.000,-20.000,0.000,0.000,0
2026-01-31 03:45:52,269574,-270.000,-1329.000,8556.000,-690.000,1804.000,-966.000,0.000,0.000,0
2026-01-31 03:45:52,269614,-4.000,61.000,9575.000,-2134.000,-706.000,178.000,0.000,0.000,0
2026-01-31 03:45:52,269654,4895.000,-2484.000,7262.000,-1720.000,-1481.000,703.000,0.000,0.000,0
2026-01-31 03:45:52,269694,2399.000,-1263.000,8799.000,-989.000,533.000,-441.000,0.000,0.000,0
2026-01-31 03:45:52,269734,500.000,-1587.000,9109.000,-1644.000,351.000,-598.000,0.000,0.000,0
2026-01-31 03:45:52,269774,80.000,-380.000,8494.000,-2634.000,-918.000,141.000,0.000,0.000,0
2026-01-31 03:45:52,269814,3393.000,-5459.000,6772.000,-2992.000,-1949.000,575.000,0.000,0.000,0
2026-01-31 03:45:53,269854,2543.000,-1767.000,7934.000,-2826.000,865.000,-1179.000,0.000,0.000,0
2026-01-31 03:45:53,269894,2676.000,-2274.000,6613.000,-2966.000,279.000,-956.000,0.000,0.000,0
2026-01-31 03:45:53,269934,1465.000,-2715.000,7310.000,-2782.000,213.000,-837.000,0.000,0.000,0
2026-01-31 03:45:53,269974,1780.000,-3915.000,8262.000,-1240.000,0.000,-553.000,0.000,0.000,0
2026-01-31 03:45:53,270014,2619.000,-2353.000,6646.000,1082.000,39.000,141.000,0.000,0.000,0
2026-01-31 03:45:53,270054,3074.000,-3425.000,6947.000,-614.000,-299.000,-221.000,0.000,0.000,0
2026-01-31 03:45:53,270094,654.000,-1907.000,7347.000,379.000,240.000,-523.000,0.000,0.000,0
2026-01-31 03:45:53,270134,1379.000,-3257.000,9327.000,710.000,70.000,257.000,0.000,0.000,0
2026-01-31 03:45:53,270174,5501.000,-295.000,4114.000,105.000,93.000,540.000,0.000,0.000,0
2026-01-31 03:45:53,270214,4244.000,-1154.000,9039.000,1215.000,113.000,280.000,0.000,0.000,0
2026-01-31 03:45:53,270254,-449.000,-2642.000,7966.000,124.000,154.000,-1067.000,0.000,0.000,0
2026-01-31 03:45:53,270294,3101.000,-2474.000,8243.000,61.000,-1519.000,-74.000,0.000,0.000,0
2026-01-31 03:45:53,270334,5155.000,-3520.000,7143.000,-357.000,-911.000,-782.000,0.000,0.000,0
2026-01-31 03:45:53,270374,3142.000,-3137.000,7833.000,-1278.000,471.000,-1422.000,0.000,0.000,0
2026-01-31 03:45:53,270414,719.000,-2055.000,6956.000,-380.000,475.000,-1126.000,0.000,0.000,0
2026-01-31 03:45:53,270454,3782.000,-3756.000,8599.000,-587.000,595.000,126.000,0.000,0.000,0
2026-01-31 03:45:53,270494,2678.000,-3366.000,5894.000,-256.000,849.000,-284.000,0.000,0.000,0
2026-01-31 03:45:53,270534,546.000,-1781.000,9661.000,382.000,633.000,-819.000,0.000,0.000,0
2026-01-31 03:45:53,270574,2795.000,-2603.000,2105.000,713.000,-145.000,487.000,0.000,0.000,0
2026-01-31 03:45:53,270614,-2432.000,-2939.000,10890.000,933.000,1606.000,-1805.000,0.000,0.000,0
2026-01-31 03:45:53,270655,5851.000,-2979.000,6010.000,528.000,-163.000,278.000,0.000,0.000,0
2026-01-31 03:45:53,270694,1564.000,-1506.000,8464.000,1771.000,1882.000,-355.000,0.000,0.000,0
2026-01-31 03:45:53,270734,4107.000,-2086.000,5774.000,2403.000,1806.000,869.000,0.000,0.000,0
2026-01-31 03:45:53,270774,-1435.000,-2240.000,10410.000,3427.000,2307.000,-37.000,0.000,0.000,0
2026-01-31 03:45:53,270814,3938.000,-2388.000,7392.000,2341.000,211.000,1544.000,0.000,0.000,0
2026-01-31 03:45:54,270854,-502.000,-2305.000,10163.000,1079.000,1269.000,-976.000,0.000,0.000,0
2026-01-31 03:45:54,270897,4700.000,-2175.000,6261.000,-384.000,-993.000,-831.000,0.000,0.000,0
2026-01-31 03:45:54,270934,1594.000,-1062.000,7277.000,209.000,369.000,-1582.000,0.000,0.000,0
2026-01-31 03:45:54,270974,93.000,-1460.000,8568.000,-371.000,588.000,-1212.000,0.000,0.000,0
2026-01-31 03:45:54,271014,3883.000,-1416.000,6563.000,-398.000,-139.000,-249.000,0.000,0.000,0
2026-01-31 03:45:54,271054,847.000,-1883.000,8363.000,-415.000,1466.000,-609.000,0.000,0.000,0
2026-01-31 03:45:54,271094,2354.000,-2276.000,8220.000,34.000,290.000,122.000,0.000,0.000,0
2026-01-31 03:45:54,271134,581.000,-1080.000,8586.000,392.000,818.000,-259.000,0.000,0.000,0
2026-01-31 03:45:54,271174,-1292.000,-1296.000,9395.000,27.000,-202.000,126.000,0.000,0.000,0
2026-01-31 03:45:54,271214,4196.000,-2732.000,7032.000,-349.000,-1583.000,592.000,0.000,0.000,0
2026-01-31 03:45:54,271254,3508.000,-1600.000,8425.000,73.000,253.000,-478.000,0.000,0.000,0
2026-01-31 03:45:54,271294,-363.000,-1208.000,7552.000,31.000,1108.000,-1047.000,0.000,0.000,0
2026-01-31 03:45:54,271334,-437.000,-1261.000,9084.000,25.000,193.000,-470.000,0.000,0.000,0
2026-01-31 03:45:54,271374,3868.000,-1748.000,8494.000,169.000,728.000,-503.000,0.000,0.000,0
2026-01-31 03:45:54,271414,-502.000,-1759.000,9048.000,85.000,942.000,-845.000,0.000,0.000,0
2026-01-31 03:45:54,271454,2024.000,-747.000,9164.000,368.000,-317.000,-720.000,0.000,0.000,0
2026-01-31 03:45:54,271494,1704.000,-2383.000,7926.000,-533.000,-206.000,-160.000,0.000,0.000,0
2026-01-31 03:45:54,271534,3279.000,-2257.000,6771.000,25.000,-637.000,-624.000,0.000,0.000,0
2026-01-31 03:45:54,271574,453.000,-1387.000,9113.000,-86.000,666.000,-1045.000,0.000,0.000,0
2026-01-31 03:45:54,271614,3529.000,-1806.000,7462.000,-95.000,549.000,-697.000,0.000,0.000,0
2026-01-31 03:45:54,271654,362.000,-1613.000,8385.000,-267.000,985.000,-664.000,0.000,0.000,0
2026-01-31 03:45:54,271694,953.000,-1395.000,7839.000,399.000,221.000,-484.000,0.000,0.000,0
2026-01-31 03:45:54,271734,570.000,-2225.000,8211.000,1217.000,-1407.000,-183.000,0.000,0.000,0
2026-01-31 03:45:54,271774,5492.000,-2093.000,6406.000,183.000,-2152.000,-495.000,0.000,0.000,0
2026-01-31 03:45:54,271814,3667.000,-1456.000,9439.000,266.000,132.000,-1266.000,0.000,0.000,0
2026-01-31 03:45:55,271854,2034.000,-1411.000,7211.000,220.000,1227.000,-1497.000,0.000,0.000,0
2026-01-31 03:45:55,271894,-1610.000,-963.000,9027.000,380.000,1471.000,-1367.000,0.000,0.000,0
2026-01-31 03:45:55,271934,3232.000,-2020.000,8189.000,373.000,-960.000,129.000,0.000,0.000,0
2026-01-31 03:45:55,271974,2046.000,-2751.000,9833.000,-164.000,1259.000,-557.000,0.000,0.000,0
2026-01-31 03:45:55,272014,2632.000,-1908.000,9087.000,533.000,648.000,-502.000,0.000,0.000,0
2026-01-31 03:45:55,272054,-513.000,-776.000,8851.000,917.000,1271.000,-708.000,0.000,0.000,0
2026-01-31 03:45:55,272094,953.000,-1564.000,7602.000,-148.000,-1011.000,191.000,0.000,0.000,0
2026-01-31 03:45:55,272134,356.000,-1075.000,7124.000,10.000,-919.000,-412.000,0.000,0.000,0
2026-01-31 03:45:55,272174,1697.000,-987.000,7322.000,522.000,-371.000,-347.000,0.000,0.000,0
2026-01-31 03:45:55,272214,1561.000,-1063.000,6693.000,1343.000,96.000,-101.000,0.000,0.000,0
2026-01-31 03:45:55,272254,1339.000,-1231.000,7903.000,4736.000,326.000,234.000,0.000,0.000,0
2026-01-31 03:45:55,272294,2337.000,73.000,8141.000,5285.000,909.000,253.000,0.000,0.000,0
2026-01-31 03:45:55,272334,279.000,-485.000,10662.000,419.000,522.000,5.000,0.000,0.000,0
2026-01-31 03:45:55,272374,1894.000,-550.000,8027.000,445.000,-183.000,-148.000,0.000,0.000,0
2026-01-31 03:45:55,272414,258.000,-193.000,10643.000,-1346.000,273.000,-1004.000,0.000,0.000,0
2026-01-31 03:45:55,272454,2953.000,-2209.000,7755.000,-2098.000,-1770.000,-310.000,0.000,0.000,0
2026-01-31 03:45:55,272494,5521.000,-1127.000,5712.000,-703.000,-3145.000,318.000,0.000,0.000,0
2026-01-31 03:45:55,272534,-2212.000,-13.000,8826.000,-454.000,1905.000,-1345.000,0.000,0.000,0
2026-01-31 03:45:55,272574,3362.000,-2087.000,6608.000,-1342.000,-1163.000,26.000,0.000,0.000,0
2026-01-31 03:45:55,272617,-1338.000,-701.000,8889.000,-527.000,1527.000,-839.000,0.000,0.000,0
2026-01-31 03:45:55,272657,208.000,-916.000,6850.000,25.000,-512.000,-45.000,0.000,0.000,0
2026-01-31 03:45:55,272694,50.000,-438.000,8424.000,435.000,-542.000,-249.000,0.000,0.000,0
2026-01-31 03:45:55,272734,1599.000,-1333.000,7998.000,-745.000,-1547.000,801.000,0.000,0.000,0
2026-01-31 03:45:55,272774,3249.000,-2188.000,8894.000,284.000,-256.000,101.000,0.000,0.000,0
2026-01-31 03:45:55,272814,1182.000,-1153.000,9590.000,563.000,-497.000,-224.000,0.000,0.000,0
2026-01-31 03:45:56,272854,2765.000,-1145.000,8961.000,392.000,-772.000,-304.000,0.000,0.000,0
2026-01-31 03:45:56,272894,720.000,-1294.000,8818.000,-236.000,-903.000,-128.000,0.000,0.000,0
2026-01-31 03:45:56,272934,2853.000,-1464.000,7549.000,171.000,-1466.000,185.000,0.000,0.000,0
2026-01-31 03:45:56,272974,1972.000,-1166.000,8209.000,-270.000,-714.000,-345.000,0.000,0.000,0
2026-01-31 03:45:56,273014,3054.000,-1500.000,6441.000,-435.000,-761.000,-66.000,0.000,0.000,0
2026-01-31 03:45:56,273054,1796.000,-1248.000,6651.000,-693.000,450.000,-601.000,0.000,0.000,0
2026-01-31 03:45:56,273094,473.000,-1062.000,7991.000,-808.000,369.000,-707.000,0.000,0.000,0
2026-01-31 03:45:56,273134,1322.000,-696.000,7615.000,-396.000,331.000,63.000,0.000,0.000,0
2026-01-31 03:45:56,273174,5048.000,-1500.000,7766.000,-919.000,469.000,143.000,0.000,0.000,0
2026-01-31 03:45:56,273214,812.000,-1706.000,9314.000,-515.000,872.000,-508.000,0.000,0.000,0
2026-01-31 03:45:56,273254,1496.000,-641.000,9690.000,755.000,321.000,267.000,0.000,0.000,0
2026-01-31 03:45:56,273294,2396.000,-2156.000,8966.000,-311.000,-897.000,564.000,0.000,0.000,0
2026-01-31 03:45:56,273334,1811.000,-2166.000,8580.000,-35.000,-399.000,-28.000,0.000,0.000,0
2026-01-31 03:45:56,273374,2087.000,-1355.000,7580.000,120.000,-623.000,216.000,0.000,0.000,0
2026-01-31 03:45:56,273414,1092.000,-1437.000,7850.000,107.000,-220.000,101.000,0.000,0.000,0
2026-01-31 03:45:56,273454,2683.000,-1684.000,6939.000,-451.000,-833.000,288.000,0.000,0.000,0
2026-01-31 03:45:56,273494,2798.000,-1270.000,7754.000,-194.000,-7.000,12.000,0.000,0.000,0
2026-01-31 03:45:56,273534,1900.000,-1425.000,7567.000,-270.000,664.000,-162.000,0.000,0.000,0
2026-01-31 03:45:56,273574,513.000,-1389.000,7753.000,326.000,776.000,185.000,0.000,0.000,0
2026-01-31 03:45:56,273614,3599.000,-1927.000,7750.000,364.000,175.000,624.000,0.000,0.000,0
2026-01-31 03:45:56,273654,1326.000,-1820.000,8863.000,319.000,1010.000,-98.000,0.000,0.000,0
2026-01-31 03:45:56,273694,2242.000,-1750.000,7975.000,253.000,1065.000,83.000,0.000,0.000,0
2026-01-31 03:45:56,273734,-2760.000,-436.000,9647.000,1000.000,899.000,-33.000,0.000,0.000,0
2026-01-31 03:45:56,273774,4165.000,-2897.000,6952.000,281.000,-2232.000,1611.000,0.000,0.000,0
2026-01-31 03:45:56,273814,5501.000,-2223.000,8092.000,-190.000,216.000,249.000,0.000,0.000,0
2026-01-31 03:45:57,273854,-2565.000,-2017.000,8747.000,595.000,1651.000,-1127.000,0.000,0.000,0
2026-01-31 03:45:57,273894,977.000,-143.000,7604.000,888.000,-1649.000,764.000,0.000,0.000,0
2026-01-31 03:45:57,273934,5904.000,-3100.000,7338.000,-742.000,-260.000,797.000,0.000,0.000,0
2026-01-31 03:45:57,273974,-346.000,-1912.000,8943.000,209.000,1085.000,-446.000,0.000,0.000,0
2026-01-31 03:45:57,274014,3700.000,-1358.000,8574.000,510.000,-5.000,272.000,0.000,0.000,0
2026-01-31 03:45:57,274054,1450.000,-1092.000,6985.000,506.000,138.000,220.000,0.000,0.000,0
2026-01-31 03:45:57,274094,-2320.000,-1541.000,11233.000,625.000,-952.000,-92.000,0.000,0.000,0
2026-01-31 03:45:57,274134,8146.000,-2768.000,6201.000,-313.000,-2193.000,1730.000,0.000,0.000,0
2026-01-31 03:45:57,274174,979.000,-2051.000,6121.000,1059.000,1398.000,-258.000,0.000,0.000,0
2026-01-31 03:45:57,274214,-2241.000,-1679.000,10064.000,1172.000,16.000,-385.000,0.000,0.000,0
2026-01-31 03:45:57,274254,1382.000,399.000,7329.000,1545.000,-1168.000,1541.000,0.000,0.000,0
2026-01-31 03:45:57,274294,4710.000,-2959.000,7429.000,-309.000,-90.000,1168.000,0.000,0.000,0
2026-01-31 03:45:57,274334,1888.000,-1355.000,9282.000,554.000,416.000,395.000,0.000,0.000,0
2026-01-31 03:45:57,274374,-158.000,-2030.000,9349.000,1025.000,1198.000,288.000,0.000,0.000,0
2026-01-31 03:45:57,274414,-1904.000,-2011.000,10795.000,-216.000,200.000,-59.000,0.000,0.000,0
2026-01-31 03:45:57,274454,2851.000,-446.000,6229.000,333.000,-2012.000,1701.000,0.000,0.000,0
2026-01-31 03:45:57,274494,5361.000,-1607.000,7538.000,-350.000,1489.000,583.000,0.000,0.000,0
2026-01-31 03:45:57,274534,1103.000,-1967.000,8113.000,-471.000,1518.000,-122.000,0.000,0.000,0
2026-01-31 03:45:57,274574,-75.000,712.000,9074.000,767.000,1306.000,586.000,0.000,0.000,0
2026-01-31 03:45:57,274614,4444.000,-3357.000,8039.000,-1373.000,1534.000,612.000,0.000,0.000,0
2026-01-31 03:45:57,274655,-3955.000,232.000,11712.000,716.000,908.000,423.000,0.000,0.000,0
2026-01-31 03:45:57,274694,8668.000,-1750.000,5178.000,-966.000,-487.000,1932.000,0.000,0.000,0
2026-01-31 03:45:57,274734,-7243.000,-468.000,12048.000,493.000,2663.000,-478.000,0.000,0.000,0
2026-01-31 03:45:57,274774,3700.000,-2031.000,8441.000,-1299.000,-3447.000,1830.000,0.000,0.000,0
2026-01-31 03:45:57,274814,3651.000,-1273.000,8013.000,-1055.000,-1796.000,1239.000,0.000,0.000,0
2026-01-31 03:45:58,274854,3331.000,-871.000,7862.000,-875.000,651.000,705.000,0.000,0.000,0
2026-01-31 03:45:58,274897,-2464.000,-377.000,9627.000,382.000,497.000,618.000,0.000,0.000,0
2026-01-31 03:45:58,274934,1608.000,-1105.000,7244.000,271.000,-1714.000,1650.000,0.000,0.000,0
2026-01-31 03:45:58,274974,-1220.000,-1430.000,9774.000,-486.000,-1145.000,762.000,0.000,0.000,0
2026-01-31 03:45:58,275014,4906.000,-2673.000,7629.000,-1419.000,-1505.000,1065.000,0.000,0.000,0
2026-01-31 03:45:58,275054,4208.000,-271.000,5960.000,-1104.000,-525.000,-1217.000,0.000,0.000,0
2026-01-31 03:45:58,275094,-2150.000,-495.000,8135.000,-2733.000,909.000,-812.000,0.000,0.000,0
2026-01-31 03:45:58,275134,487.000,-908.000,6563.000,-899.000,183.000,-246.000,0.000,0.000,0
2026-01-31 03:45:58,275174,4094.000,-3010.000,7688.000,-2049.000,-1690.000,1387.000,0.000,0.000,0
2026-01-31 03:45:58,275214,4640.000,-1399.000,7391.000,-424.000,-482.000,-292.000,0.000,0.000,0
2026-01-31 03:45:58,275254,-678.000,-1816.000,6528.000,-2175.000,690.000,-926.000,0.000,0.000,0
2026-01-31 03:45:58,275294,925.000,-1796.000,9466.000,-900.000,935.000,-1066.000,0.000,0.000,0
2026-01-31 03:45:58,275334,3506.000,-2054.000,6708.000,-2221.000,-603.000,73.000,0.000,0.000,0
2026-01-31 03:45:58,275374,-170.000,-1828.000,10499.000,-1667.000,895.000,-1192.000,0.000,0.000,0
2026-01-31 03:45:58,275414,2521.000,-1826.000,8532.000,-1012.000,-553.000,-524.000,0.000,0.000,0
2026-01-31 03:45:58,275454,1194.000,-1991.000,10122.000,-1287.000,-1730.000,-1745.000,0.000,0.000,0
2026-01-31 03:45:58,275494,1300.000,-2723.000,7010.000,-4139.000,-2597.000,-1119.000,0.000,0.000,0
2026-01-31 03:45:58,275534,4480.000,-2897.000,7648.000,-1816.000,-694.000,-499.000,0.000,0.000,0
2026-01-31 03:45:58,275574,4947.000,-2064.000,10073.000,-4270.000,1399.000,-1697.000,0.000,0.000,0
2026-01-31 03:45:58,275614,4242.000,-774.000,9599.000,-5904.000,3125.000,-1423.000,0.000,0.000,0
2026-01-31 03:45:58,275654,1531.000,-4619.000,7053.000,-7616.000,4605.000,-763.000,0.000,0.000,0
2026-01-31 03:45:58,275694,733.000,-4999.000,6386.000,-5808.000,3188.000,-1111.000,0.000,0.000,0
2026-01-31 03:45:58,275734,785.000,-6785.000,6587.000,-4735.000,2011.000,-1723.000,0.000,0.000,0
2026-01-31 03:45:58,275774,1023.000,-5885.000,7017.000,-3239.000,1414.000,-1792.000,0.000,0.000,0
2026-01-31 03:45:58,275814,1033.000,-7167.000,5251.000,-5736.000,1113.000,-552.000,0.000,0.000,0
2026-01-31 03:45:59,275854,1080.000,-5717.000,5080.000,-5085.000,587.000,-206.000,0.000,0.000,0
2026-01-31 03:45:59,275894,1677.000,-3780.000,6179.000,-4025.000,281.000,-917.000,0.000,0.000,0
2026-01-31 03:45:59,275934,1565.000,-4812.000,5851.000,-4127.000,1521.000,-1093.000,0.000,0.000,0
2026-01-31 03:45:59,275974,449.000,-5529.000,3708.000,-2432.000,2055.000,-1431.000,0.000,0.000,0
2026-01-31 03:45:59,276014,-282.000,-6742.000,4035.000,-1542.000,2050.000,-1353.000,0.000,0.000,0
2026-01-31 03:45:59,276054,-80.000,-5802.000,5378.000,916.000,1304.000,-1531.000,0.000,0.000,0
2026-01-31 03:45:59,276094,506.000,-6902.000,5736.000,-1020.000,905.000,-1573.000,0.000,0.000,0
2026-01-31 03:45:59,276134,928.000,-7751.000,5172.000,-1334.000,1017.000,-1223.000,0.000,0.000,0
2026-01-31 03:45:59,276174,1311.000,-6881.000,5628.000,-829.000,1494.000,-490.000,0.000,0.000,0
2026-01-31 03:45:59,276214,1221.000,-7038.000,5298.000,-1146.000,1888.000,392.000,0.000,0.000,0
2026-01-31 03:45:59,276254,1313.000,-6603.000,4980.000,753.000,1991.000,1179.000,0.000,0.000,0
2026-01-31 03:45:59,276294,1241.000,-6582.000,5447.000,152.000,2367.000,1259.000,0.000,0.000,0
2026-01-31 03:45:59,276334,1468.000,-6746.000,5700.000,848.000,2387.000,1516.000,0.000,0.000,0
2026-01-31 03:45:59,276374,723.000,-7332.000,5308.000,466.000,2347.000,929.000,0.000,0.000,0
2026-01-31 03:45:59,276414,486.000,-7077.000,5395.000,499.000,1771.000,574.000,0.000,0.000,0
2026-01-31 03:45:59,276454,168.000,-7131.000,5700.000,163.000,1540.000,234.000,0.000,0.000,0
2026-01-31 03:45:59,276494,397.000,-6400.000,5751.000,-823.000,910.000,220.000,0.000,0.000,0
2026-01-31 03:45:59,276534,-73.000,-7091.000,4987.000,-2221.000,1048.000,167.000,0.000,0.000,0
2026-01-31 03:45:59,276574,337.000,-6638.000,4715.000,-1506.000,776.000,313.000,0.000,0.000,0
2026-01-31 03:45:59,276617,-241.000,-5987.000,4110.000,-678.000,1092.000,633.000,0.000,0.000,0
2026-01-31 03:45:59,276656,111.000,-5856.000,3982.000,-1560.000,851.000,998.000,0.000,0.000,0
2026-01-31 03:45:59,276697,-618.000,-6983.000,3548.000,-296.000,1361.000,997.000,0.000,0.000,0
2026-01-31 03:45:59,276734,-531.000,-6934.000,3833.000,799.000,1223.000,1139.000,0.000,0.000,0
2026-01-31 03:45:59,276774,-714.000,-6540.000,4751.000,1326.000,1279.000,1019.000,0.000,0.000,0
2026-01-31 03:45:59,276814,-727.000,-7162.000,4575.000,-386.000,960.000,1070.000,0.000,0.000,0
2026-01-31 03:46:00,276854,-792.000,-7437.000,4892.000,-218.000,542.000,808.000,0.000,0.000,0
2026-01-31 03:46:00,276894,-604.000,-7198.000,4727.000,-281.000,429.000,686.000,0.000,0.000,0
2026-01-31 03:46:00,276934,-874.000,-7385.000,4554.000,-1132.000,446.000,970.000,0.000,0.000,0
2026-01-31 03:46:00,276974,-779.000,-7199.000,4194.000,-805.000,276.000,1182.000,0.000,0.000,0
2026-01-31 03:46:00,277014,-1063.000,-6528.000,4011.000,-169.000,417.000,1229.000,0.000,0.000,0
2026-01-31 03:46:00,277054,-1213.000,-6247.000,3665.000,-344.000,362.000,1161.000,0.000,0.000,0
2026-01-31 03:46:00,277094,-1188.000,-5983.000,3947.000,379.000,53.000,754.000,0.000,0.000,0
2026-01-31 03:46:00,277134,-1162.000,-5987.000,4030.000,200.000,190.000,360.000,0.000,0.000,0
2026-01-31 03:46:00,277174,-1443.000,-5913.000,4132.000,445.000,253.000,-259.000,0.000,0.000,0
2026-01-31 03:46:00,277214,-1293.000,-6340.000,4385.000,-45.000,152.000,-689.000,0.000,0.000,0
2026-01-31 03:46:00,277254,-1333.000,-6792.000,4418.000,-12.000,306.000,-957.000,0.000,0.000,0
2026-01-31 03:46:00,277294,-1404.000,-6945.000,4490.000,356.000,450.000,-820.000,0.000,0.000,0
2026-01-31 03:46:00,277334,-1319.000,-6950.000,4596.000,543.000,291.000,-753.000,0.000,0.000,0
2026-01-31 03:46:00,277374,-1068.000,-7289.000,5069.000,446.000,138.000,-801.000,0.000,0.000,0
2026-01-31 03:46:00,277414,-589.000,-7180.000,5139.000,126.000,184.000,-669.000,0.000,0.000,0
2026-01-31 03:46:00,277454,-1320.000,-7259.000,4096.000,-312.000,839.000,-122.000,0.000,0.000,0
2026-01-31 03:46:00,277494,-1754.000,-6548.000,4581.000,1319.000,802.000,-432.000,0.000,0.000,0
2026-01-31 03:46:00,277534,-1106.000,-6569.000,4847.000,278.000,145.000,-484.000,0.000,0.000,0
2026-01-31 03:46:00,277574,-1032.000,-6946.000,4716.000,45.000,245.000,-613.000,0.000,0.000,0
2026-01-31 03:46:00,277614,-631.000,-6818.000,4727.000,452.000,197.000,-902.000,0.000,0.000,0
2026-01-31 03:46:00,277654,-628.000,-6930.000,5000.000,225.000,412.000,-939.000,0.000,0.000,0
2026-01-31 03:46:00,277694,-556.000,-7194.000,4681.000,165.000,591.000,-668.000,0.000,0.000,0
2026-01-31 03:46:00,277734,-604.000,-6863.000,4723.000,874.000,718.000,-686.000,0.000,0.000,0
2026-01-31 03:46:00,277774,-495.000,-6642.000,4559.000,794.000,734.000,-594.000,0.000,0.000,0
2026-01-31 03:46:00,277814,-835.000,-6453.000,4492.000,1448.000,827.000,-656.000,0.000,0.000,0
2026-01-31 03:46:01,277854,-235.000,-6726.000,4997.000,-361.000,125.000,-1209.000,0.000,0.000,0
2026-01-31 03:46:01,277894,-282.000,-7808.000,4949.000,-6.000,320.000,-978.000,0.000,0.000,0
2026-01-31 03:46:01,277934,353.000,-7203.000,5155.000,1339.000,339.000,-567.000,0.000,0.000,0
2026-01-31 03:46:01,277974,4.000,-7245.000,4810.000,689.000,833.000,-313.000,0.000,0.000,0
2026-01-31 03:46:01,278014,-482.000,-6776.000,5166.000,1426.000,715.000,-428.000,0.000,0.000,0
2026-01-31 03:46:01,278054,381.000,-5912.000,5378.000,1086.000,255.000,-409.000,0.000,0.000,0
2026-01-31 03:46:01,278094,-133.000,-5088.000,5525.000,1973.000,1093.000,-820.000,0.000,0.000,0
2026-01-31 03:46:01,278134,-215.000,-2760.000,6733.000,4548.000,1780.000,-1461.000,0.000,0.000,0
2026-01-31 03:46:01,278174,-114.000,-1219.000,7055.000,3461.000,3129.000,-3474.000,0.000,0.000,0
2026-01-31 03:46:01,278214,-314.000,-3307.000,7497.000,3042.000,4527.000,-5672.000,0.000,0.000,0
2026-01-31 03:46:01,278254,-563.000,-4862.000,6224.000,2655.000,5937.000,-6544.000,0.000,0.000,0
2026-01-31 03:46:01,278294,-1332.000,-5450.000,5226.000,3499.000,5340.000,-6229.000,0.000,0.000,0
2026-01-31 03:46:01,278334,-253.000,-5434.000,7841.000,6565.000,3877.000,-6282.000,0.000,0.000,0
2026-01-31 03:46:01,278374,1269.000,-3966.000,8567.000,3015.000,2672.000,-6463.000,0.000,0.000,0
2026-01-31 03:46:01,278414,1262.000,-7185.000,8049.000,-253.000,3453.000,-5770.000,0.000,0.000,0
2026-01-31 03:46:01,278454,1877.000,-6115.000,8773.000,2197.000,3249.000,-5344.000,0.000,0.000,0
2026-01-31 03:46:01,278494,1028.000,-4612.000,7024.000,-137.000,4119.000,-4923.000,0.000,0.000,0
2026-01-31 03:46:01,278534,-81.000,-6631.000,8289.000,-1934.000,3604.000,-4919.000,0.000,0.000,0
2026-01-31 03:46:01,278574,2413.000,-6582.000,6240.000,1594.000,2904.000,-3776.000,0.000,0.000,0
2026-01-31 03:46:01,278617,3270.000,-5836.000,8158.000,-954.000,-321.000,-3322.000,0.000,0.000,0
2026-01-31 03:46:01,278656,479.000,-5475.000,5517.000,-1706.000,1168.000,-4060.000,0.000,0.000,0
2026-01-31 03:46:01,278694,483.000,-5584.000,6186.000,788.000,-324.000,-3863.000,0.000,0.000,0
2026-01-31 03:46:01,278734,3587.000,-6119.000,7791.000,5748.000,-2908.000,-4234.000,0.000,0.000,0
2026-01-31 03:46:01,278774,2641.000,-3730.000,6828.000,8845.000,-2041.000,-3963.000,0.000,0.000,0
2026-01-31 03:46:01,278814,4003.000,-805.000,7474.000,13040.000,-3403.000,-4348.000,0.000,0.000,0
2026-01-31 03:46:02,278854,3897.000,3066.000,8053.000,14589.000,-2026.000,-5464.000,0.000,0.000,0
2026-01-31 03:46:02,278894,2632.000,1010.000,9978.000,13413.000,-1934.000,-3680.000,0.000,0.000,0
2026-01-31 03:46:02,278934,4375.000,325.000,6978.000,12340.000,-2097.000,-3572.000,0.000,0.000,0
2026-01-31 03:46:02,278974,2296.000,9250.000,7590.000,18615.000,-563.000,-4006.000,0.000,0.000,0
2026-01-31 03:46:02,279014,1641.000,5135.000,6850.000,3144.000,-1286.000,-2680.000,0.000,0.000,0
2026-01-31 03:46:02,279054,2559.000,3844.000,5490.000,11539.000,-1137.000,-2727.000,0.000,0.000,0
2026-01-31 03:46:02,279094,270.000,4592.000,5886.000,10493.000,-438.000,-1055.000,0.000,0.000,0
2026-01-31 03:46:02,279134,2004.000,4273.000,5676.000,10533.000,-996.000,920.000,0.000,0.000,0
2026-01-31 03:46:02,279174,2252.000,5575.000,3269.000,8510.000,-128.000,1792.000,0.000,0.000,0
2026-01-31 03:46:02,279214,2236.000,7633.000,2346.000,7952.000,83.000,520.000,0.000,0.000,0
2026-01-31 03:46:02,279254,2709.000,8735.000,3893.000,2103.000,-393.000,-41.000,0.000,0.000,0
2026-01-31 03:46:02,279294,2465.000,5034.000,2530.000,1322.000,125.000,-221.000,0.000,0.000,0
2026-01-31 03:46:02,279334,2623.000,10425.000,2036.000,3477.000,-127.000,-2042.000,0.000,0.000,0
2026-01-31 03:46:02,279374,483.000,7305.000,1917.000,2185.000,-679.000,-2714.000,0.000,0.000,0
2026-01-31 03:46:02,279414,2996.000,5898.000,3828.000,-60.000,-918.000,-1010.000,0.000,0.000,0
2026-01-31 03:46:02,279454,2028.000,9145.000,1516.000,1570.000,724.000,-711.000,0.000,0.000,0
2026-01-31 03:46:02,279494,859.000,9829.000,532.000,-630.000,-697.000,-598.000,0.000,0.000,0
2026-01-31 03:46:02,279534,2275.000,8537.000,3395.000,-135.000,-1453.000,-911.000,0.000,0.000,0
2026-01-31 03:46:02,279574,1228.000,7420.000,1781.000,-1485.000,-799.000,-612.000,0.000,0.000,0
2026-01-31 03:46:02,279614,1981.000,7292.000,2032.000,-1210.000,-736.000,-940.000,0.000,0.000,0
2026-01-31 03:46:02,279654,1905.000,7082.000,2014.000,-1177.000,-64.000,-513.000,0.000,0.000,0
2026-01-31 03:46:02,279694,2665.000,6688.000,2529.000,-2457.000,304.000,-463.000,0.000,0.000,0
2026-01-31 03:46:02,279734,404.000,8420.000,2468.000,367.000,1051.000,-213.000,0.000,0.000,0
2026-01-31 03:46:02,279774,896.000,9010.000,3012.000,319.000,228.000,-998.000,0.000,0.000,0
2026-01-31 03:46:02,279814,3057.000,9425.000,5634.000,496.000,1226.000,-879.000,0.000,0.000,0
2026-01-31 03:46:03,279854,3653.000,9911.000,6408.000,-6815.000,4312.000,893.000,0.000,0.000,0
2026-01-31 03:46:03,279894,2218.000,-264.000,5772.000,-17409.000,6147.000,5472.000,0.000,0.000,0
2026-01-31 03:46:03,279934,1679.000,187.000,6116.000,-9139.000,6647.000,9198.000,0.000,0.000,0
2026-01-31 03:46:03,279974,1668.000,7142.000,2134.000,-3643.000,4875.000,9056.000,0.000,0.000,0
2026-01-31 03:46:03,280014,1041.000,13387.000,3639.000,2920.000,3371.000,5297.000,0.000,0.000,0
2026-01-31 03:46:03,280054,201.000,7274.000,6094.000,-5767.000,3062.000,2918.000,0.000,0.000,0
2026-01-31 03:46:03,280094,2974.000,3665.000,5916.000,3392.000,984.000,2466.000,0.000,0.000,0
2026-01-31 03:46:03,280134,-487.000,4710.000,3679.000,-11536.000,1524.000,3198.000,0.000,0.000,0
2026-01-31 03:46:03,280174,4353.000,3944.000,5462.000,2971.000,172.000,1545.000,0.000,0.000,0
2026-01-31 03:46:03,280214,424.000,3280.000,6290.000,-1684.000,1293.000,2429.000,0.000,0.000,0
2026-01-31 03:46:03,280254,5949.000,1723.000,4567.000,5906.000,-1084.000,2561.000,0.000,0.000,0
2026-01-31 03:46:03,280294,3570.000,6156.000,11140.000,3009.000,4747.000,1664.000,0.000,0.000,0
2026-01-31 03:46:03,280334,4656.000,-1346.000,3670.000,-11952.000,297.000,7277.000,0.000,0.000,0
2026-01-31 03:46:03,280374,6408.000,347.000,10786.000,2819.000,1075.000,7718.000,0.000,0.000,0
2026-01-31 03:46:03,280414,4982.000,8879.000,-7324.000,5030.000,-5524.000,-1765.000,0.000,0.000,0
2026-01-31 03:46:03,280454,2625.000,17640.000,9466.000,15628.000,1302.000,-2761.000,0.000,0.000,0
2026-01-31 03:46:03,280494,-490.000,3629.000,6537.000,-4763.000,-1438.000,-3077.000,0.000,0.000,0
2026-01-31 03:46:03,280534,4233.000,5960.000,5521.000,5599.000,853.000,-2289.000,0.000,0.000,0
2026-01-31 03:46:03,280574,5636.000,6001.000,6759.000,5013.000,483.000,-3103.000,0.000,0.000,0
2026-01-31 03:46:03,280617,5545.000,2818.000,4735.000,-148.000,1832.000,-2739.000,0.000,0.000,0
2026-01-31 03:46:03,280657,6428.000,6097.000,6871.000,-169.000,2811.000,-1680.000,0.000,0.000,0
2026-01-31 03:46:03,280694,6089.000,6871.000,6619.000,-5085.000,3332.000,25.000,0.000,0.000,0
2026-01-31 03:46:03,280734,4709.000,4563.000,4877.000,-13982.000,4463.000,3843.000,0.000,0.000,0
2026-01-31 03:46:03,280774,2185.000,3122.000,8891.000,-13144.000,3509.000,5768.000,0.000,0.000,0
2026-01-31 03:46:03,280814,2113.000,3142.000,7463.000,-11759.000,1517.000,8333.000,0.000,0.000,0
2026-01-31 03:46:04,280854,-390.000,1949.000,6905.000,-15618.000,1601.000,11926.000,0.000,0.000,0
2026-01-31 03:46:04,280894,-1793.000,-1237.000,8798.000,-11045.000,-180.000,11572.000,0.000,0.000,0
2026-01-31 03:46:04,280934,-1139.000,1487.000,10293.000,-6160.000,-887.000,11139.000,0.000,0.000,0
2026-01-31 03:46:04,280974,-716.000,2650.000,11607.000,-3762.000,-2498.000,10205.000,0.000,0.000,0
2026-01-31 03:46:04,281014,-1155.000,-217.000,9129.000,-1186.000,-1016.000,8338.000,0.000,0.000,0
2026-01-31 03:46:04,281054,-1434.000,-1645.000,7169.000,-2608.000,-2487.000,5022.000,0.000,0.000,0
2026-01-31 03:46:04,281094,805.000,-3430.000,7394.000,844.000,-3532.000,2538.000,0.000,0.000,0
2026-01-31 03:46:04,281134,676.000,-2475.000,6909.000,4853.000,-2305.000,650.000,0.000,0.000,0
2026-01-31 03:46:04,281174,1102.000,-2780.000,8131.000,1203.000,-1514.000,962.000,0.000,0.000,0
2026-01-31 03:46:04,281214,2150.000,-4626.000,5749.000,666.000,-2532.000,645.000,0.000,0.000,0
2026-01-31 03:46:04,281254,3492.000,-2556.000,4435.000,15503.000,-1761.000,-36.000,0.000,0.000,0
2026-01-31 03:46:04,281294,5046.000,3796.000,10140.000,10620.000,-713.000,456.000,0.000,0.000,0
2026-01-31 03:46:04,281334,6255.000,3199.000,8488.000,-4654.000,1717.000,-257.000,0.000,0.000,0
2026-01-31 03:46:04,281374,808.000,-1588.000,8305.000,-1260.000,2798.000,1266.000,0.000,0.000,0
2026-01-31 03:46:04,281414,3475.000,779.000,8420.000,22.000,2184.000,1541.000,0.000,0.000,0
2026-01-31 03:46:04,281454,503.000,-445.000,10466.000,-798.000,1136.000,-318.000,0.000,0.000,0
2026-01-31 03:46:04,281494,-842.000,1148.000,8904.000,1943.000,-619.000,652.000,0.000,0.000,0
2026-01-31 03:46:04,281534,1859.000,-301.000,6867.000,-1575.000,-2199.000,1049.000,0.000,0.000,0
2026-01-31 03:46:04,281574,2813.000,-678.000,8883.000,-819.000,235.000,499.000,0.000,0.000,0
2026-01-31 03:46:04,281614,1262.000,244.000,8372.000,283.000,819.000,-659.000,0.000,0.000,0
2026-01-31 03:46:04,281654,3828.000,53.000,6215.000,2043.000,-684.000,917.000,0.000,0.000,0
2026-01-31 03:46:04,281694,-3700.000,1657.000,7794.000,2901.000,2630.000,1133.000,0.000,0.000,0
2026-01-31 03:46:04,281734,6536.000,-2000.000,6925.000,566.000,-2693.000,1370.000,0.000,0.000,0
2026-01-31 03:46:04,281774,1673.000,900.000,8234.000,526.000,842.000,133.000,0.000,0.000,0
2026-01-31 03:46:04,281814,-3338.000,456.000,7782.000,856.000,1661.000,-810.000,0.000,0.000,0
2026-01-31 03:46:05,281854,4799.000,1068.000,7472.000,1076.000,-1344.000,-339.000,0.000,0.000,0
2026-01-31 03:46:05,281894,1889.000,1400.000,11607.000,-940.000,1125.000,-192.000,0.000,0.000,0
2026-01-31 03:46:05,281934,-107.000,-191.000,3333.000,-773.000,-444.000,93.000,0.000,0.000,0
2026-01-31 03:46:05,281974,-3222.000,2634.000,17318.000,2718.000,1699.000,-2081.000,0.000,0.000,0
2026-01-31 03:46:05,282014,-299.000,1703.000,6569.000,-1446.000,-2097.000,3660.000,0.000,0.000,0
2026-01-31 03:46:05,282054,-2183.000,1617.000,10842.000,979.000,562.000,-330.000,0.000,0.000,0
2026-01-31 03:46:05,282094,1953.000,468.000,8754.000,-201.000,-289.000,-1067.000,0.000,0.000,0
2026-01-31 03:46:05,282134,-1356.000,2111.000,9296.000,1329.000,62.000,-1307.000,0.000,0.000,0
2026-01-31 03:46:05,282174,7305.000,-532.000,6228.000,-1589.000,-2151.000,556.000,0.000,0.000,0
2026-01-31 03:46:05,282214,-2445.000,442.000,9639.000,717.000,426.000,-135.000,0.000,0.000,0
2026-01-31 03:46:05,282254,-358.000,1284.000,8137.000,1377.000,-1122.000,-882.000,0.000,0.000,0
2026-01-31 03:46:05,282294,4805.000,1712.000,9083.000,-916.000,-2713.000,-38.000,0.000,0.000,0
2026-01-31 03:46:05,282334,3681.000,283.000,8703.000,-1738.000,-230.000,733.000,0.000,0.000,0
2026-01-31 03:46:05,282374,-749.000,-497.000,8327.000,-903.000,-214.000,-413.000,0.000,0.000,0
2026-01-31 03:46:05,282414,-4523.000,2376.000,11980.000,47.000,-1310.000,-587.000,0.000,0.000,0
2026-01-31 03:46:05,282454,11799.000,-2595.000,3318.000,-1827.000,-1619.000,1287.000,0.000,0.000,0
2026-01-31 03:46:05,282494,-5799.000,1734.000,16302.000,548.000,-727.000,-1832.000,0.000,0.000,0
2026-01-31 03:46:05,282534,6172.000,-35.000,5522.000,72.000,-3629.000,1340.000,0.000,0.000,0
2026-01-31 03:46:05,282574,1123.000,344.000,8695.000,-17.000,596.000,113.000,0.000,0.000,0
2026-01-31 03:46:05,282614,4222.000,-589.000,8300.000,-464.000,-67.000,861.000,0.000,0.000,0
2026-01-31 03:46:05,282655,-1538.000,910.000,9510.000,1027.000,356.000,-428.000,0.000,0.000,0
2026-01-31 03:46:05,282694,5318.000,-407.000,8708.000,-401.000,-2831.000,829.000,0.000,0.000,0
2026-01-31 03:46:05,282734,4011.000,-1420.000,7723.000,-1545.000,-208.000,922.000,0.000,0.000,0
2026-01-31 03:46:05,282774,-624.000,615.000,7531.000,1137.000,-200.000,-443.000,0.000,0.000,0
2026-01-31 03:46:05,282814,3220.000,1873.000,9316.000,324.000,-28.000,-38.000,0.000,0.000,0
2026-01-31 03:46:06,282854,3768.000,-1454.000,6854.000,-778.000,312.000,79.000,0.000,0.000,0
2026-01-31 03:46:06,282897,-3473.000,1008.000,9799.000,244.000,1326.000,-1188.000,0.000,0.000,0
2026-01-31 03:46:06,282934,4568.000,1637.000,7847.000,1.000,-1595.000,129.000,0.000,0.000,0
2026-01-31 03:46:06,282974,6648.000,-2195.000,5296.000,-1997.000,587.000,606.000,0.000,0.000,0
2026-01-31 03:46:06,283014,-3304.000,2471.000,10516.000,2409.000,1193.000,-1048.000,0.000,0.000,0
2026-01-31 03:46:06,283054,7453.000,-696.000,5613.000,-273.000,-2056.000,1482.000,0.000,0.000,0
2026-01-31 03:46:06,283094,2322.000,1472.000,9200.000,-766.000,-133.000,41.000,0.000,0.000,0
2026-01-31 03:46:06,283134,854.000,514.000,7872.000,-576.000,-365.000,412.000,0.000,0.000,0
2026-01-31 03:46:06,283174,3966.000,467.000,7634.000,-726.000,-2453.000,888.000,0.000,0.000,0
2026-01-31 03:46:06,283214,3501.000,-1636.000,7785.000,-1058.000,-443.000,565.000,0.000,0.000,0
2026-01-31 03:46:06,283254,3202.000,1211.000,6580.000,129.000,-195.000,-325.000,0.000,0.000,0
2026-01-31 03:46:06,283294,2791.000,55.000,8366.000,-1693.000,-5.000,-327.000,0.000,0.000,0
2026-01-31 03:46:06,283334,3222.000,-1733.000,4867.000,-341.000,200.000,394.000,0.000,0.000,0
2026-01-31 03:46:06,283374,4029.000,1458.000,10554.000,-1104.000,217.000,-691.000,0.000,0.000,0
2026-01-31 03:46:06,283414,3761.000,-1393.000,5450.000,-2715.000,153.000,-667.000,0.000,0.000,0
2026-01-31 03:46:06,283454,3062.000,3037.000,9405.000,916.000,890.000,-1157.000,0.000,0.000,0
2026-01-31 03:46:06,283494,4460.000,-2989.000,6371.000,-2620.000,64.000,313.000,0.000,0.000,0
2026-01-31 03:46:06,283534,2168.000,1864.000,10098.000,46.000,702.000,-1925.000,0.000,0.000,0
2026-01-31 03:46:06,283574,5591.000,-382.000,8904.000,134.000,-43.000,-243.000,0.000,0.000,0
2026-01-31 03:46:06,283614,2625.000,873.000,8712.000,-3185.000,1373.000,-1079.000,0.000,0.000,0
2026-01-31 03:46:06,283654,4709.000,-1708.000,7119.000,-3501.000,-52.000,276.000,0.000,0.000,0
2026-01-31 03:46:06,283694,2790.000,552.000,10135.000,-3353.000,1611.000,-426.000,0.000,0.000,0
2026-01-31 03:46:06,283734,3974.000,-3070.000,8041.000,-9076.000,1884.000,246.000,0.000,0.000,0
2026-01-31 03:46:06,283774,2643.000,-1045.000,7052.000,-8962.000,1821.000,56.000,0.000,0.000,0
2026-01-31 03:46:06,283814,3780.000,-4457.000,6023.000,-10129.000,578.000,381.000,0.000,0.000,0
2026-01-31 03:46:07,283854,3061.000,-4956.000,5927.000,-4872.000,993.000,-945.000,0.000,0.000,0
2026-01-31 03:46:07,283894,805.000,-4674.000,5757.000,-5617.000,1933.000,-1709.000,0.000,0.000,0
2026-01-31 03:46:07,283934,2435.000,-5214.000,6791.000,-6179.000,-228.000,-938.000,0.000,0.000,0
2026-01-31 03:46:07,283974,3193.000,-4452.000,7577.000,-4066.000,91.000,-1478.000,0.000,0.000,0
2026-01-31 03:46:07,284014,2319.000,-4491.000,6486.000,-4108.000,1067.000,-1851.000,0.000,0.000,0
2026-01-31 03:46:07,284054,3478.000,-5867.000,6192.000,-4628.000,365.000,-2020.000,0.000,0.000,0
2026-01-31 03:46:07,284094,4153.000,-5597.000,5794.000,-2799.000,469.000,-3147.000,0.000,0.000,0
2026-01-31 03:46:07,284134,3673.000,-5855.000,4272.000,-1146.000,1653.000,-3601.000,0.000,0.000,0
2026-01-31 03:46:07,284174,3167.000,-6220.000,5109.000,-674.000,2713.000,-3854.000,0.000,0.000,0
2026-01-31 03:46:07,284214,3638.000,-6434.000,5747.000,-761.000,3223.000,-2639.000,0.000,0.000,0
2026-01-31 03:46:07,284254,2809.000,-6719.000,5835.000,-3446.000,4492.000,-1949.000,0.000,0.000,0
2026-01-31 03:46:07,284294,2090.000,-7534.000,5062.000,-3766.000,4601.000,-607.000,0.000,0.000,0
2026-01-31 03:46:07,284334,2172.000,-6033.000,4722.000,-1355.000,3224.000,1195.000,0.000,0.000,0
2026-01-31 03:46:07,284374,1524.000,-6447.000,4123.000,-3090.000,3186.000,1777.000,0.000,0.000,0
2026-01-31 03:46:07,284414,1704.000,-6330.000,3957.000,-1371.000,2057.000,1577.000,0.000,0.000,0
2026-01-31 03:46:07,284454,1968.000,-5514.000,4232.000,-1061.000,1545.000,1222.000,0.000,0.000,0
2026-01-31 03:46:07,284494,1972.000,-5937.000,4746.000,-1805.000,1297.000,1055.000,0.000,0.000,0
2026-01-31 03:46:07,284534,1857.000,-6254.000,4201.000,-1986.000,1363.000,760.000,0.000,0.000,0
2026-01-31 03:46:07,284574,1847.000,-7227.000,3789.000,-1276.000,1328.000,1157.000,0.000,0.000,0
2026-01-31 03:46:07,284617,1761.000,-6867.000,4607.000,-660.000,1223.000,1158.000,0.000,0.000,0
2026-01-31 03:46:07,284657,1585.000,-7259.000,4221.000,-385.000,978.000,1173.000,0.000,0.000,0
2026-01-31 03:46:07,284694,1414.000,-6663.000,4049.000,91.000,971.000,1203.000,0.000,0.000,0
2026-01-31 03:46:07,284734,808.000,-6677.000,4396.000,199.000,523.000,667.000,0.000,0.000,0
2026-01-31 03:46:07,284774,1106.000,-6041.000,4388.000,-357.000,-65.000,251.000,0.000,0.000,0
2026-01-31 03:46:07,284814,731.000,-6897.000,3962.000,-1298.000,58.000,126.000,0.000,0.000,0
2026-01-31 03:46:08,284854,956.000,-6844.000,4275.000,-70.000,-321.000,12.000,0.000,0.000,0
2026-01-31 03:46:08,284897,907.000,-6862.000,4316.000,-1018.000,48.000,313.000,0.000,0.000,0
2026-01-31 03:46:08,284934,1060.000,-7079.000,4431.000,-930.000,-36.000,365.000,0.000,0.000,0
2026-01-31 03:46:08,284974,1021.000,-6960.000,4267.000,-382.000,226.000,-61.000,0.000,0.000,0
2026-01-31 03:46:08,285014,860.000,-7221.000,3686.000,-91.000,434.000,91.000,0.000,0.000,0
2026-01-31 03:46:08,285054,651.000,-6324.000,4518.000,408.000,398.000,-58.000,0.000,0.000,0
2026-01-31 03:46:08,285094,534.000,-7490.000,3448.000,-86.000,141.000,-128.000,0.000,0.000,0
2026-01-31 03:46:08,285134,832.000,-6278.000,4614.000,1514.000,-204.000,-270.000,0.000,0.000,0
2026-01-31 03:46:08,285174,982.000,-7429.000,4267.000,-871.000,-136.000,-558.000,0.000,0.000,0
2026-01-31 03:46:08,285214,1284.000,-7668.000,4446.000,700.000,-295.000,-459.000,0.000,0.000,0
2026-01-31 03:46:08,285254,1473.000,-6926.000,4849.000,597.000,-62.000,-134.000,0.000,0.000,0
2026-01-31 03:46:08,285294,929.000,-7672.000,4094.000,-159.000,343.000,295.000,0.000,0.000,0
2026-01-31 03:46:08,285334,1018.000,-6785.000,4870.000,1852.000,9.000,435.000,0.000,0.000,0
2026-01-31 03:46:08,285374,982.000,-6817.000,4877.000,415.000,-31.000,37.000,0.000,0.000,0
2026-01-31 03:46:08,285414,1211.000,-7179.000,4800.000,261.000,-199.000,-137.000,0.000,0.000,0
2026-01-31 03:46:08,285454,895.000,-7002.000,4152.000,97.000,133.000,-300.000,0.000,0.000,0
2026-01-31 03:46:08,285494,291.000,-6864.000,4376.000,1309.000,188.000,-507.000,0.000,0.000,0
2026-01-31 03:46:08,285534,899.000,-6444.000,4786.000,787.000,-249.000,-745.000,0.000,0.000,0
2026-01-31 03:46:08,285574,1051.000,-6952.000,4535.000,173.000,-274.000,-500.000,0.000,0.000,0
2026-01-31 03:46:08,285614,1733.000,-6323.000,4692.000,715.000,-348.000,-348.000,0.000,0.000,0
2026-01-31 03:46:08,285654,1627.000,-6583.000,4557.000,39.000,49.000,-26.000,0.000,0.000,0
2026-01-31 03:46:08,285694,1407.000,-6810.000,4809.000,553.000,108.000,-17.000,0.000,0.000,0
2026-01-31 03:46:08,285734,1365.000,-6799.000,4893.000,284.000,136.000,25.000,0.000,0.000,0
2026-01-31 03:46:08,285774,1087.000,-7239.000,4624.000,72.000,239.000,46.000,0.000,0.000,0
2026-01-31 03:46:08,285814,731.000,-6935.000,4713.000,951.000,129.000,14.000,0.000,0.000,0
2026-01-31 03:46:09,285854,945.000,-7152.000,5007.000,569.000,-557.000,-442.000,0.000,0.000,0
2026-01-31 03:46:09,285894,1542.000,-6942.000,5331.000,562.000,-940.000,-206.000,0.000,0.000,0
2026-01-31 03:46:09,285934,1863.000,-6589.000,5136.000,19.000,-837.000,118.000,0.000,0.000,0
2026-01-31 03:46:09,285974,1567.000,-6314.000,4738.000,-342.000,-433.000,680.000,0.000,0.000,0
2026-01-31 03:46:09,286014,1276.000,-5908.000,4898.000,554.000,-425.000,797.000,0.000,0.000,0
2026-01-31 03:46:09,286054,962.000,-5854.000,5013.000,376.000,-401.000,574.000,0.000,0.000,0
2026-01-31 03:46:09,286094,965.000,-6369.000,5061.000,733.000,-498.000,114.000,0.000,0.000,0
2026-01-31 03:46:09,286134,1392.000,-6401.000,6124.000,1448.000,-867.000,-300.000,0.000,0.000,0
2026-01-31 03:46:09,286174,1471.000,-6769.000,5655.000,259.000,-612.000,-816.000,0.000,0.000,0
2026-01-31 03:46:09,286214,1889.000,-6942.000,5787.000,386.000,-648.000,-400.000,0.000,0.000,0
2026-01-31 03:46:09,286254,1503.000,-6439.000,5453.000,61.000,-306.000,99.000,0.000,0.000,0
2026-01-31 03:46:09,286294,1627.000,-5992.000,5750.000,155.000,-384.000,-24.000,0.000,0.000,0
2026-01-31 03:46:09,286334,1469.000,-6354.000,5075.000,-535.000,-77.000,-225.000,0.000,0.000,0
2026-01-31 03:46:09,286374,1423.000,-6347.000,5264.000,141.000,-67.000,-415.000,0.000,0.000,0
2026-01-31 03:46:09,286414,1307.000,-6330.000,5137.000,36.000,-99.000,-555.000,0.000,0.000,0
2026-01-31 03:46:09,286454,1317.000,-6509.000,5179.000,-165.000,-221.000,-606.000,0.000,0.000,0
2026-01-31 03:46:09,286494,1480.000,-6389.000,4822.000,-414.000,-169.000,-360.000,0.000,0.000,0
2026-01-31 03:46:09,286534,1256.000,-6283.000,4746.000,-89.000,10.000,75.000,0.000,0.000,0
2026-01-31 03:46:09,286574,1129.000,-5801.000,4599.000,492.000,59.000,233.000,0.000,0.000,0
2026-01-31 03:46:09,286614,1817.000,-5522.000,5965.000,1090.000,-600.000,84.000,0.000,0.000,0
2026-01-31 03:46:09,286654,2348.000,-6126.000,5432.000,-730.000,-272.000,-157.000,0.000,0.000,0
2026-01-31 03:46:09,286694,2213.000,-6490.000,5133.000,12.000,288.000,227.000,0.000,0.000,0
2026-01-31 03:46:09,286734,1787.000,-5963.000,5468.000,1243.000,547.000,478.000,0.000,0.000,0
2026-01-31 03:46:09,286774,1137.000,-5879.000,5469.000,1002.000,392.000,171.000,0.000,0.000,0
2026-01-31 03:46:09,286814,1401.000,-6328.000,6090.000,668.000,-294.000,-94.000,0.000,0.000,0
2026-01-31 03:46:10,286854,1776.000,-6469.000,5901.000,33.000,-571.000,-783.000,0.000,0.000,0
2026-01-31 03:46:10,286897,1829.000,-6683.000,5902.000,89.000,-321.000,-343.000,0.000,0.000,0
2026-01-31 03:46:10,286934,1721.000,-6472.000,5868.000,191.000,-308.000,-236.000,0.000,0.000,0
2026-01-31 03:46:10,286974,1431.000,-6256.000,5348.000,74.000,-276.000,-110.000,0.000,0.000,0
2026-01-31 03:46:10,287014,1894.000,-5874.000,5457.000,-265.000,-415.000,-78.000,0.000,0.000,0
2026-01-31 03:46:10,287054,1803.000,-5959.000,5006.000,-303.000,-147.000,-87.000,0.000,0.000,0
2026-01-31 03:46:10,287094,1588.000,-5851.000,4856.000,197.000,158.000,-6.000,0.000,0.000,0
2026-01-31 03:46:10,287134,1761.000,-5719.000,5534.000,819.000,-222.000,122.000,0.000,0.000,0
2026-01-31 03:46:10,287174,1847.000,-5915.000,5414.000,-16.000,-240.000,-191.000,0.000,0.000,0
2026-01-31 03:46:10,287214,2078.000,-6307.000,5419.000,-258.000,-69.000,79.000,0.000,0.000,0
2026-01-31 03:46:10,287254,1751.000,-6121.000,5408.000,696.000,189.000,405.000,0.000,0.000,0
2026-01-31 03:46:10,287294,1450.000,-5801.000,5667.000,975.000,87.000,284.000,0.000,0.000,0
2026-01-31 03:46:10,287334,1858.000,-6046.000,5934.000,155.000,-279.000,116.000,0.000,0.000,0
2026-01-31 03:46:10,287374,1947.000,-6264.000,6099.000,55.000,-322.000,-142.000,0.000,0.000,0
2026-01-31 03:46:10,287414,1645.000,-6264.000,5414.000,-661.000,116.000,-221.000,0.000,0.000,0
2026-01-31 03:46:10,287454,1564.000,-6134.000,5751.000,283.000,-54.000,304.000,0.000,0.000,0
2026-01-31 03:46:10,287494,1929.000,-5571.000,6182.000,481.000,-521.000,-4.000,0.000,0.000,0
2026-01-31 03:46:10,287534,2346.000,-6225.000,5694.000,-1317.000,-176.000,-401.000,0.000,0.000,0
2026-01-31 03:46:10,287574,2032.000,-6506.000,5205.000,-643.000,345.000,-186.000,0.000,0.000,0
2026-01-31 03:46:10,287614,1521.000,-5923.000,5279.000,559.000,377.000,-95.000,0.000,0.000,0
2026-01-31 03:46:10,287654,1507.000,-5890.000,5419.000,38.000,-30.000,-286.000,0.000,0.000,0
2026-01-31 03:46:10,287694,2121.000,-6084.000,5731.000,-375.000,-512.000,-97.000,0.000,0.000,0
2026-01-31 03:46:10,287734,2610.000,-6174.000,5755.000,-351.000,-529.000,-95.000,0.000,0.000,0
2026-01-31 03:46:10,287774,2113.000,-6099.000,5472.000,-415.000,338.000,133.000,0.000,0.000,0
2026-01-31 03:46:10,287814,1712.000,-5910.000,5182.000,-191.000,382.000,362.000,0.000,0.000,0
2026-01-31 03:46:11,287854,1836.000,-5853.000,5197.000,417.000,69.000,532.000,0.000,0.000,0
2026-01-31 03:46:11,287894,2116.000,-5628.000,5883.000,523.000,-254.000,98.000,0.000,0.000,0
2026-01-31 03:46:11,287934,2079.000,-6558.000,5494.000,-263.000,-136.000,-623.000,0.000,0.000,0
2026-01-31 03:46:11,287974,2190.000,-6634.000,5838.000,-33.000,-129.000,-945.000,0.000,0.000,0
2026-01-31 03:46:11,288014,1672.000,-6830.000,5106.000,-776.000,48.000,-706.000,0.000,0.000,0
2026-01-31 03:46:11,288054,1557.000,-6426.000,5261.000,-178.000,-355.000,-174.000,0.000,0.000,0
2026-01-31 03:46:11,288094,1748.000,-5809.000,5218.000,-527.000,-564.000,-22.000,0.000,0.000,0
2026-01-31 03:46:11,288134,2024.000,-5749.000,5075.000,-741.000,-374.000,183.000,0.000,0.000,0
2026-01-31 03:46:11,288174,1943.000,-5227.000,5041.000,-112.000,119.000,-7.000,0.000,0.000,0
2026-01-31 03:46:11,288214,1972.000,-5748.000,4881.000,-135.000,268.000,-68.000,0.000,0.000,0
2026-01-31 03:46:11,288254,1993.000,-5451.000,5361.000,759.000,199.000,-210.000,0.000,0.000,0
2026-01-31 03:46:11,288294,2152.000,-5959.000,5320.000,53.000,210.000,-638.000,0.000,0.000,0
2026-01-31 03:46:11,288334,2591.000,-6391.000,5660.000,377.000,52.000,-719.000,0.000,0.000,0
2026-01-31 03:46:11,288374,2680.000,-6467.000,5634.000,206.000,211.000,-654.000,0.000,0.000,0
2026-01-31 03:46:11,288414,2469.000,-6716.000,5349.000,-18.000,476.000,-308.000,0.000,0.000,0
2026-01-31 03:46:11,288454,2441.000,-6392.000,5474.000,335.000,343.000,136.000,0.000,0.000,0
2026-01-31 03:46:11,288494,2229.000,-6232.000,5190.000,31.000,267.000,133.000,0.000,0.000,0
2026-01-31 03:46:11,288534,2150.000,-5986.000,5305.000,297.000,18.000,107.000,0.000,0.000,0
2026-01-31 03:46:11,288574,2149.000,-5818.000,5158.000,-59.000,-152.000,-11.000,0.000,0.000,0
2026-01-31 03:46:11,288614,2087.000,-5990.000,5164.000,-17.000,-155.000,38.000,0.000,0.000,0
2026-01-31 03:46:11,288654,2199.000,-5694.000,5428.000,514.000,-233.000,61.000,0.000,0.000,0
2026-01-31 03:46:11,288695,2216.000,-5804.000,5411.000,196.000,-178.000,-74.000,0.000,0.000,0
2026-01-31 03:46:11,288734,2435.000,-6207.000,5428.000,181.000,7.000,-94.000,0.000,0.000,0
2026-01-31 03:46:11,288774,1961.000,-6221.000,5352.000,607.000,309.000,-85.000,0.000,0.000,0
2026-01-31 03:46:11,288814,1562.000,-6519.000,5016.000,490.000,531.000,-187.000,0.000,0.000,0
2026-01-31 03:46:12,288854,1554.000,-6539.000,5342.000,944.000,403.000,-160.000,0.000,0.000,0
2026-01-31 03:46:12,288897,1094.000,-6719.000,5074.000,516.000,416.000,-126.000,0.000,0.000,0
2026-01-31 03:46:12,288934,918.000,-6599.000,5466.000,411.000,391.000,31.000,0.000,0.000,0
2026-01-31 03:46:12,288974,1094.000,-6869.000,5537.000,567.000,164.000,228.000,0.000,0.000,0
2026-01-31 03:46:12,289014,1102.000,-6488.000,5673.000,824.000,140.000,399.000,0.000,0.000,0
2026-01-31 03:46:12,289054,1066.000,-6497.000,5620.000,543.000,151.000,350.000,0.000,0.000,0
2026-01-31 03:46:12,289094,953.000,-6253.000,5687.000,491.000,97.000,310.000,0.000,0.000,0
2026-01-31 03:46:12,289134,656.000,-6376.000,5506.000,-141.000,122.000,290.000,0.000,0.000,0
2026-01-31 03:46:12,289174,671.000,-6601.000,5713.000,-6.000,-109.000,277.000,0.000,0.000,0
2026-01-31 03:46:12,289214,702.000,-6310.000,5843.000,-186.000,-58.000,472.000,0.000,0.000,0
2026-01-31 03:46:12,289254,856.000,-6472.000,5813.000,-61.000,-8.000,628.000,0.000,0.000,0
2026-01-31 03:46:12,289294,925.000,-5761.000,5973.000,195.000,181.000,447.000,0.000,0.000,0
2026-01-31 03:46:12,289334,1183.000,-6055.000,5872.000,-206.000,53.000,118.000,0.000,0.000,0
2026-01-31 03:46:12,289374,1198.000,-5869.000,5773.000,-204.000,-82.000,-296.000,0.000,0.000,0
2026-01-31 03:46:12,289414,1149.000,-6338.000,5425.000,-801.000,-165.000,-713.000,0.000,0.000,0
2026-01-31 03:46:12,289454,1176.000,-6613.000,5388.000,-856.000,-289.000,-699.000,0.000,0.000,0
2026-01-31 03:46:12,289494,1230.000,-6839.000,5283.000,-696.000,-466.000,-483.000,0.000,0.000,0
2026-01-31 03:46:12,289534,1339.000,-6664.000,5596.000,-833.000,-554.000,-250.000,0.000,0.000,0
2026-01-31 03:46:12,289574,1340.000,-6896.000,5045.000,-1158.000,-384.000,71.000,0.000,0.000,0
2026-01-31 03:46:12,289614,1135.000,-6334.000,5281.000,-380.000,-293.000,297.000,0.000,0.000,0
2026-01-31 03:46:12,289654,778.000,-6294.000,4892.000,-737.000,-214.000,336.000,0.000,0.000,0
2026-01-31 03:46:12,289694,801.000,-6340.000,5091.000,-356.000,-217.000,56.000,0.000,0.000,0
2026-01-31 03:46:12,289734,866.000,-6456.000,5035.000,-189.000,-148.000,-81.000,0.000,0.000,0
2026-01-31 03:46:12,289774,777.000,-6564.000,4930.000,-109.000,-5.000,-148.000,0.000,0.000,0
2026-01-31 03:46:12,289814,897.000,-6503.000,5036.000,203.000,-63.000,-111.000,0.000,0.000,0
2026-01-31 03:46:13,289854,1159.000,-6558.000,4908.000,189.000,-17.000,-37.000,0.000,0.000,0
2026-01-31 03:46:13,289894,1077.000,-6517.000,4594.000,356.000,270.000,72.000,0.000,0.000,0
2026-01-31 03:46:13,289934,805.000,-6168.000,4688.000,1020.000,356.000,281.000,0.000,0.000,0
2026-01-31 03:46:13,289974,931.000,-6166.000,4753.000,962.000,3.000,129.000,0.000,0.000,0
2026-01-31 03:46:13,290014,1256.000,-6341.000,4874.000,1307.000,-205.000,76.000,0.000,0.000,0
2026-01-31 03:46:13,290054,1909.000,-6349.000,4481.000,1657.000,-136.000,671.000,0.000,0.000,0
2026-01-31 03:46:13,290094,1737.000,-6050.000,4054.000,3241.000,20.000,1070.000,0.000,0.000,0
2026-01-31 03:46:13,290134,1349.000,-5713.000,4830.000,4800.000,-182.000,1445.000,0.000,0.000,0
2026-01-31 03:46:13,290174,1662.000,-5633.000,5497.000,4435.000,-877.000,1645.000,0.000,0.000,0
2026-01-31 03:46:13,290214,1811.000,-6181.000,5536.000,3954.000,-670.000,2699.000,0.000,0.000,0
2026-01-31 03:46:13,290254,340.000,-5406.000,6142.000,4958.000,-1060.000,3039.000,0.000,0.000,0
2026-01-31 03:46:13,290294,1106.000,-4055.000,7230.000,5459.000,-2566.000,3484.000,0.000,0.000,0
2026-01-31 03:46:13,290334,-245.000,-3158.000,8968.000,951.000,-2939.000,2652.000,0.000,0.000,0
2026-01-31 03:46:13,290374,1451.000,-4578.000,9235.000,-2079.000,-3038.000,1788.000,0.000,0.000,0
2026-01-31 03:46:13,290414,1330.000,-3276.000,9074.000,-487.000,-2159.000,1865.000,0.000,0.000,0
2026-01-31 03:46:13,290454,1700.000,-3123.000,8625.000,-67.000,-715.000,1151.000,0.000,0.000,0
2026-01-31 03:46:13,290494,2214.000,-2359.000,8619.000,-614.000,197.000,25.000,0.000,0.000,0
2026-01-31 03:46:13,290534,2043.000,-3566.000,7683.000,-905.000,670.000,-913.000,0.000,0.000,0
2026-01-31 03:46:13,290574,2146.000,-3927.000,7326.000,-104.000,837.000,-1185.000,0.000,0.000,0
2026-01-31 03:46:13,290614,2190.000,-4253.000,6899.000,-554.000,815.000,-1334.000,0.000,0.000,0
2026-01-31 03:46:13,290657,2036.000,-4852.000,6227.000,-1041.000,755.000,-1232.000,0.000,0.000,0
2026-01-31 03:46:13,290694,1953.000,-4907.000,6601.000,-592.000,500.000,-1186.000,0.000,0.000,0
2026-01-31 03:46:13,290739,2441.000,-4566.000,6777.000,-517.000,172.000,-919.000,0.000,0.000,0
2026-01-31 03:46:13,290774,2556.000,-4580.000,6635.000,-1085.000,380.000,-785.000,0.000,0.000,0
2026-01-31 03:46:13,290814,2413.000,-4861.000,6344.000,-848.000,579.000,-463.000,0.000,0.000,0
2026-01-31 03:46:14,290854,2519.000,-4403.000,6988.000,-448.000,527.000,-366.000,0.000,0.000,0
2026-01-31 03:46:14,290897,2276.000,-5256.000,6353.000,-778.000,762.000,-236.000,0.000,0.000,0
2026-01-31 03:46:14,290936,2361.000,-5268.000,6422.000,-86.000,754.000,-197.000,0.000,0.000,0
2026-01-31 03:46:14,290974,2303.000,-4619.000,6606.000,483.000,774.000,-11.000,0.000,0.000,0
2026-01-31 03:46:14,291014,1977.000,-5086.000,6047.000,-574.000,925.000,208.000,0.000,0.000,0
2026-01-31 03:46:14,291054,1952.000,-4847.000,6058.000,218.000,605.000,296.000,0.000,0.000,0
2026-01-31 03:46:14,291094,1972.000,-4519.000,6227.000,174.000,408.000,328.000,0.000,0.000,0
2026-01-31 03:46:14,291134,1861.000,-4745.000,6205.000,-6.000,125.000,437.000,0.000,0.000,0
2026-01-31 03:46:14,291174,1848.000,-4645.000,6563.000,452.000,-87.000,295.000,0.000,0.000,0
2026-01-31 03:46:14,291214,1849.000,-4862.000,6652.000,91.000,-234.000,-33.000,0.000,0.000,0
2026-01-31 03:46:14,291254,1731.000,-4799.000,6719.000,-211.000,-109.000,83.000,0.000,0.000,0
2026-01-31 03:46:14,291294,1658.000,-4843.000,6521.000,-371.000,-124.000,304.000,0.000,0.000,0
2026-01-31 03:46:14,291334,1659.000,-4559.000,6829.000,530.000,-173.000,309.000,0.000,0.000,0
2026-01-31 03:46:14,291374,1552.000,-4457.000,6901.000,230.000,-103.000,115.000,0.000,0.000,0
2026-01-31 03:46:14,291414,1875.000,-4590.000,6793.000,50.000,-160.000,36.000,0.000,0.000,0
2026-01-31 03:46:14,291454,1855.000,-4583.000,7046.000,-37.000,-177.000,-92.000,0.000,0.000,0
2026-01-31 03:46:14,291494,1711.000,-5077.000,6722.000,-659.000,2.000,-158.000,0.000,0.000,0
2026-01-31 03:46:14,291534,1951.000,-5008.000,6670.000,341.000,-100.000,-107.000,0.000,0.000,0
2026-01-31 03:46:14,291574,2128.000,-4435.000,6807.000,16.000,3.000,63.000,0.000,0.000,0
2026-01-31 03:46:14,291614,2005.000,-5270.000,6015.000,-773.000,-76.000,-22.000,0.000,0.000,0
2026-01-31 03:46:14,291654,2196.000,-5406.000,6094.000,661.000,-406.000,115.000,0.000,0.000,0
2026-01-31 03:46:14,291694,2336.000,-4994.000,6454.000,810.000,-745.000,398.000,0.000,0.000,0
2026-01-31 03:46:14,291734,2018.000,-5342.000,6229.000,388.000,-561.000,716.000,0.000,0.000,0
2026-01-31 03:46:14,291774,1824.000,-5028.000,6263.000,855.000,-767.000,1083.000,0.000,0.000,0
2026-01-31 03:46:14,291814,1555.000,-4814.000,6401.000,1696.000,-1009.000,1117.000,0.000,0.000,0
2026-01-31 03:46:15,291854,2049.000,-4420.000,6666.000,2193.000,-1174.000,1162.000,0.000,0.000,0
2026-01-31 03:46:15,291894,2247.000,-4397.000,6594.000,2603.000,-997.000,1128.000,0.000,0.000,0
2026-01-31 03:46:15,291934,2134.000,-3685.000,6698.000,2524.000,-446.000,1459.000,0.000,0.000,0
2026-01-31 03:46:15,291974,1184.000,-2723.000,6733.000,1417.000,-586.000,1848.000,0.000,0.000,0
2026-01-31 03:46:15,292014,1057.000,-3452.000,6769.000,-1001.000,-1568.000,1081.000,0.000,0.000,0
2026-01-31 03:46:15,292054,2224.000,-3467.000,7523.000,54.000,-2517.000,443.000,0.000,0.000,0
2026-01-31 03:46:15,292094,3156.000,-4164.000,8342.000,-1334.000,-1992.000,358.000,0.000,0.000,0
2026-01-31 03:46:15,292134,3291.000,-4076.000,7904.000,-3298.000,-834.000,801.000,0.000,0.000,0
2026-01-31 03:46:15,292174,2630.000,-5002.000,7198.000,-2415.000,-45.000,1304.000,0.000,0.000,0
2026-01-31 03:46:15,292214,1750.000,-3559.000,7281.000,-2314.000,-373.000,1730.000,0.000,0.000,0
2026-01-31 03:46:15,292254,1627.000,-5529.000,5616.000,-4464.000,-730.000,439.000,0.000,0.000,0
2026-01-31 03:46:15,292294,620.000,-5869.000,5672.000,-1315.000,-1405.000,-897.000,0.000,0.000,0
2026-01-31 03:46:15,292334,1821.000,-6572.000,4920.000,-1865.000,-3534.000,-839.000,0.000,0.000,0
2026-01-31 03:46:15,292374,2493.000,-6749.000,4367.000,33.000,-4214.000,-1004.000,0.000,0.000,0
2026-01-31 03:46:15,292414,3439.000,-5686.000,5029.000,1752.000,-4555.000,-1410.000,0.000,0.000,0
2026-01-31 03:46:15,292454,4984.000,-3168.000,5956.000,2241.000,-4220.000,-1234.000,0.000,0.000,0
2026-01-31 03:46:15,292494,5069.000,-8467.000,5141.000,222.000,-1106.000,1238.000,0.000,0.000,0
2026-01-31 03:46:15,292534,3707.000,-1771.000,5912.000,3820.000,-1307.000,-28.000,0.000,0.000,0
2026-01-31 03:46:15,292574,4969.000,-6626.000,6167.000,3515.000,-1333.000,190.000,0.000,0.000,0
2026-01-31 03:46:15,292614,4214.000,-3223.000,6736.000,5545.000,-487.000,-1352.000,0.000,0.000,0
2026-01-31 03:46:15,292655,3945.000,-4552.000,6866.000,2481.000,-374.000,250.000,0.000,0.000,0
2026-01-31 03:46:15,292694,4475.000,-2299.000,5765.000,3240.000,-754.000,-630.000,0.000,0.000,0
2026-01-31 03:46:15,292734,4846.000,-4275.000,5536.000,2683.000,6.000,-659.000,0.000,0.000,0
2026-01-31 03:46:15,292774,3906.000,-4198.000,4236.000,1214.000,-114.000,616.000,0.000,0.000,0
2026-01-31 03:46:15,292814,4427.000,-3334.000,5395.000,4632.000,-95.000,-102.000,0.000,0.000,0
2026-01-31 03:46:16,292854,6290.000,-2857.000,7958.000,1865.000,-378.000,-209.000,0.000,0.000,0
2026-01-31 03:46:16,292898,4134.000,-747.000,6302.000,1947.000,288.000,-531.000,0.000,0.000,0
2026-01-31 03:46:16,292934,3640.000,-2735.000,5684.000,93.000,425.000,131.000,0.000,0.000,0
2026-01-31 03:46:16,292974,1871.000,-3478.000,7641.000,-881.000,881.000,254.000,0.000,0.000,0
2026-01-31 03:46:16,293014,3441.000,-744.000,9898.000,2537.000,-1247.000,695.000,0.000,0.000,0
2026-01-31 03:46:16,293054,3516.000,-3080.000,7932.000,-2271.000,-129.000,1524.000,0.000,0.000,0
2026-01-31 03:46:16,293094,3599.000,-2214.000,6756.000,-948.000,-272.000,1515.000,0.000,0.000,0
2026-01-31 03:46:16,293134,1538.000,-4086.000,7187.000,-691.000,886.000,1676.000,0.000,0.000,0
2026-01-31 03:46:16,293174,2980.000,-2495.000,7156.000,1828.000,-1085.000,1019.000,0.000,0.000,0
2026-01-31 03:46:16,293214,2491.000,-3042.000,6961.000,-61.000,-592.000,1224.000,0.000,0.000,0
2026-01-31 03:46:16,293254,1885.000,-4259.000,6689.000,221.000,247.000,635.000,0.000,0.000,0
2026-01-31 03:46:16,293294,3264.000,-3341.000,6923.000,757.000,-1133.000,188.000,0.000,0.000,0
2026-01-31 03:46:16,293334,3212.000,-3170.000,7672.000,800.000,1.000,167.000,0.000,0.000,0
2026-01-31 03:46:16,293374,1963.000,-3337.000,7586.000,789.000,855.000,9.000,0.000,0.000,0
2026-01-31 03:46:16,293414,4169.000,-2885.000,7043.000,837.000,-649.000,-227.000,0.000,0.000,0
2026-01-31 03:46:16,293454,1791.000,-3009.000,8637.000,534.000,617.000,-244.000,0.000,0.000,0
2026-01-31 03:46:16,293494,1847.000,-3093.000,6635.000,-68.000,1274.000,-140.000,0.000,0.000,0
2026-01-31 03:46:16,293534,3084.000,-3107.000,7958.000,268.000,394.000,-429.000,0.000,0.000,0
2026-01-31 03:46:16,293574,3152.000,-2826.000,6720.000,-120.000,505.000,-234.000,0.000,0.000,0
2026-01-31 03:46:16,293614,2450.000,-2606.000,7629.000,100.000,-43.000,-291.000,0.000,0.000,0
2026-01-31 03:46:16,293654,2432.000,-2703.000,7595.000,21.000,943.000,-13.000,0.000,0.000,0
2026-01-31 03:46:16,293694,4872.000,-2985.000,6755.000,258.000,-344.000,-99.000,0.000,0.000,0
2026-01-31 03:46:16,293734,1562.000,-2737.000,6816.000,262.000,1393.000,-40.000,0.000,0.000,0
2026-01-31 03:46:16,293774,2822.000,-2636.000,7491.000,453.000,127.000,-60.000,0.000,0.000,0
2026-01-31 03:46:16,293814,2460.000,-1467.000,8972.000,894.000,-130.000,133.000,0.000,0.000,0
2026-01-31 03:46:17,293854,1316.000,-4254.000,6989.000,-1045.000,173.000,223.000,0.000,0.000,0
2026-01-31 03:46:17,293894,2524.000,-1713.000,8172.000,1076.000,-468.000,-480.000,0.000,0.000,0
2026-01-31 03:46:17,293934,3423.000,-1657.000,8565.000,-77.000,42.000,142.000,0.000,0.000,0
2026-01-31 03:46:17,293974,2119.000,-2677.000,5940.000,-982.000,935.000,101.000,0.000,0.000,0
2026-01-31 03:46:17,294014,1353.000,-2866.000,8432.000,-125.000,350.000,26.000,0.000,0.000,0
2026-01-31 03:46:17,294054,5477.000,-891.000,7580.000,126.000,-1011.000,-174.000,0.000,0.000,0
2026-01-31 03:46:17,294094,230.000,-3099.000,7839.000,-1144.000,1837.000,260.000,0.000,0.000,0
2026-01-31 03:46:17,294134,1848.000,-2964.000,6435.000,-684.000,585.000,-295.000,0.000,0.000,0
2026-01-31 03:46:17,294174,2349.000,-918.000,9592.000,532.000,-1093.000,-136.000,0.000,0.000,0
2026-01-31 03:46:17,294214,3547.000,-3149.000,5852.000,-2172.000,114.000,442.000,0.000,0.000,0
2026-01-31 03:46:17,294254,5078.000,-1621.000,7722.000,437.000,-2350.000,-621.000,0.000,0.000,0
2026-01-31 03:46:17,294294,2511.000,-2537.000,6815.000,-1839.000,101.000,-111.000,0.000,0.000,0
2026-01-31 03:46:17,294334,1150.000,-3633.000,7241.000,-1206.000,675.000,-373.000,0.000,0.000,0
2026-01-31 03:46:17,294374,4837.000,-2139.000,7035.000,-636.000,-1810.000,-265.000,0.000,0.000,0
2026-01-31 03:46:17,294414,492.000,-3982.000,8129.000,-1618.000,566.000,-148.000,0.000,0.000,0
2026-01-31 03:46:17,294454,5474.000,-2539.000,6433.000,-635.000,-1957.000,-544.000,0.000,0.000,0
2026-01-31 03:46:17,294494,1396.000,-3141.000,7196.000,-2156.000,-204.000,-333.000,0.000,0.000,0
2026-01-31 03:46:17,294534,2905.000,-3316.000,7555.000,-1660.000,-316.000,-162.000,0.000,0.000,0
2026-01-31 03:46:17,294574,4037.000,-3210.000,6454.000,-2548.000,-1118.000,-258.000,0.000,0.000,0
2026-01-31 03:46:17,294617,4232.000,-4008.000,5797.000,-2322.000,100.000,-232.000,0.000,0.000,0
2026-01-31 03:46:17,294654,1763.000,-4383.000,6306.000,-1822.000,964.000,-491.000,0.000,0.000,0
2026-01-31 03:46:17,294694,4388.000,-3825.000,6411.000,-989.000,-742.000,-470.000,0.000,0.000,0
2026-01-31 03:46:17,294734,3297.000,-3530.000,6534.000,-886.000,509.000,-138.000,0.000,0.000,0
2026-01-31 03:46:17,294774,2938.000,-5477.000,5799.000,-302.000,773.000,-159.000,0.000,0.000,0
2026-01-31 03:46:17,294814,5037.000,-4343.000,6340.000,814.000,-35.000,-441.000,0.000,0.000,0
2026-01-31 03:46:18,294854,1402.000,-3058.000,5554.000,1007.000,1709.000,-830.000,0.000,0.000,0
2026-01-31 03:46:18,294897,2593.000,-2575.000,8070.000,2180.000,90.000,-195.000,0.000,0.000,0
2026-01-31 03:46:18,294934,3884.000,-3432.000,6453.000,1297.000,-531.000,-186.000,0.000,0.000,0
2026-01-31 03:46:18,294974,2525.000,-3810.000,6765.000,1602.000,53.000,-35.000,0.000,0.000,0
2026-01-31 03:46:18,295014,2770.000,-4996.000,6682.000,1215.000,1864.000,-182.000,0.000,0.000,0
2026-01-31 03:46:18,295054,3183.000,-3965.000,5731.000,1638.000,-22.000,-630.000,0.000,0.000,0
2026-01-31 03:46:18,295094,3183.000,-3673.000,8207.000,2261.000,-169.000,-539.000,0.000,0.000,0
2026-01-31 03:46:18,295134,1443.000,-2296.000,6371.000,372.000,762.000,-465.000,0.000,0.000,0
2026-01-31 03:46:18,295174,4473.000,-4389.000,7672.000,480.000,-540.000,-194.000,0.000,0.000,0
2026-01-31 03:46:18,295214,5316.000,-2576.000,5476.000,906.000,-150.000,-497.000,0.000,0.000,0
2026-01-31 03:46:18,295254,2233.000,-4585.000,5541.000,-780.000,2245.000,-655.000,0.000,0.000,0
2026-01-31 03:46:18,295294,302.000,-3334.000,9263.000,899.000,902.000,-177.000,0.000,0.000,0
2026-01-31 03:46:18,295334,8811.000,-1665.000,6515.000,3754.000,-2387.000,-716.000,0.000,0.000,0
2026-01-31 03:46:18,295374,-3194.000,-4596.000,9390.000,-1941.000,5586.000,140.000,0.000,0.000,0
2026-01-31 03:46:18,295414,9959.000,-1449.000,5592.000,2481.000,-1474.000,-866.000,0.000,0.000,0
2026-01-31 03:46:18,295454,-2803.000,-4788.000,8513.000,-2660.000,3852.000,707.000,0.000,0.000,0
2026-01-31 03:46:18,295494,6030.000,-3176.000,8719.000,1062.000,-1703.000,-139.000,0.000,0.000,0
2026-01-31 03:46:18,295534,3698.000,-2958.000,8278.000,154.000,-132.000,580.000,0.000,0.000,0
2026-01-31 03:46:18,295574,1835.000,-4852.000,5484.000,-2510.000,1262.000,621.000,0.000,0.000,0
2026-01-31 03:46:18,295614,650.000,-2874.000,12734.000,1670.000,-1601.000,347.000,0.000,0.000,0
2026-01-31 03:46:18,295654,8961.000,636.000,960.000,524.000,-1728.000,-375.000,0.000,0.000,0
2026-01-31 03:46:18,295694,-8663.000,-8387.000,12112.000,-5871.000,5496.000,1232.000,0.000,0.000,0
2026-01-31 03:46:18,295734,11294.000,2749.000,4048.000,3240.000,-4976.000,-1130.000,0.000,0.000,0
2026-01-31 03:46:18,295774,5176.000,-3807.000,6940.000,914.000,-4797.000,313.000,0.000,0.000,0
2026-01-31 03:46:18,295814,2718.000,-5842.000,9954.000,-1179.000,2609.000,731.000,0.000,0.000,0
2026-01-31 03:46:19,295854,7998.000,134.000,-1003.000,1305.000,-2741.000,-2225.000,0.000,0.000,0
2026-01-31 03:46:19,295894,-7865.000,-9611.000,11295.000,-5658.000,6907.000,41.000,0.000,0.000,0
2026-01-31 03:46:19,295934,13136.000,5922.000,4191.000,6989.000,-5874.000,-2795.000,0.000,0.000,0
2026-01-31 03:46:19,295974,-8032.000,-10624.000,10644.000,-8027.000,7755.000,2356.000,0.000,0.000,0
2026-01-31 03:46:19,296014,11227.000,1462.000,5866.000,5002.000,-5574.000,-891.000,0.000,0.000,0
2026-01-31 03:46:19,296054,-449.000,-7689.000,6631.000,-3526.000,4581.000,1770.000,0.000,0.000,0
2026-01-31 03:46:19,296094,2309.000,-2553.000,8222.000,659.000,-2077.000,-304.000,0.000,0.000,0
2026-01-31 03:46:19,296134,1390.000,-1742.000,6329.000,993.000,251.000,24.000,0.000,0.000,0
2026-01-31 03:46:19,296174,-1416.000,-6270.000,7424.000,-2651.000,1261.000,337.000,0.000,0.000,0
2026-01-31 03:46:19,296214,8460.000,-3512.000,7819.000,1339.000,-2902.000,207.000,0.000,0.000,0
2026-01-31 03:46:19,296254,4860.000,-4861.000,3571.000,-544.000,-447.000,-189.000,0.000,0.000,0
2026-01-31 03:46:19,296294,-2998.000,-4923.000,9068.000,-1185.000,4093.000,-842.000,0.000,0.000,0
2026-01-31 03:46:19,296334,8436.000,293.000,6552.000,4698.000,-4004.000,-1294.000,0.000,0.000,0
2026-01-31 03:46:19,296374,-596.000,-5525.000,8138.000,-1960.000,2593.000,710.000,0.000,0.000,0
2026-01-31 03:46:19,296414,6388.000,-3466.000,5109.000,1331.000,-923.000,-155.000,0.000,0.000,0
2026-01-31 03:46:19,296454,-3070.000,-4705.000,9108.000,-1427.000,3707.000,329.000,0.000,0.000,0
2026-01-31 03:46:19,296494,10819.000,-627.000,5592.000,4364.000,-4927.000,-733.000,0.000,0.000,0
2026-01-31 03:46:19,296534,278.000,-3184.000,6663.000,1900.000,-120.000,-785.000,0.000,0.000,0
2026-01-31 03:46:19,296574,2230.000,-3880.000,11332.000,752.000,-290.000,130.000,0.000,0.000,0
2026-01-31 03:46:19,296617,3837.000,-9374.000,4292.000,-2859.000,1073.000,970.000,0.000,0.000,0
2026-01-31 03:46:19,296656,5160.000,-2544.000,7819.000,3855.000,-2296.000,-639.000,0.000,0.000,0
2026-01-31 03:46:19,296694,8752.000,2902.000,3742.000,3898.000,-2360.000,-1803.000,0.000,0.000,0
2026-01-31 03:46:19,296734,-3871.000,-5619.000,9131.000,-2399.000,1438.000,1181.000,0.000,0.000,0
2026-01-31 03:46:19,296774,8965.000,-1660.000,7530.000,2055.000,-1731.000,-356.000,0.000,0.000,0
2026-01-31 03:46:19,296814,-2379.000,-4465.000,6919.000,-1570.000,4465.000,-25.000,0.000,0.000,0
2026-01-31 03:46:20,296854,9659.000,-3325.000,9197.000,2606.000,-3486.000,-249.000,0.000,0.000,0
2026-01-31 03:46:20,296897,-4537.000,-4922.000,10893.000,-1657.000,4418.000,-188.000,0.000,0.000,0
2026-01-31 03:46:20,296934,566.000,1077.000,12892.000,4187.000,-1341.000,378.000,0.000,0.000,0
2026-01-31 03:46:20,296974,9363.000,-4860.000,4927.000,-366.000,-1908.000,1391.000,0.000,0.000,0
2026-01-31 03:46:20,297014,-2657.000,-5138.000,11378.000,-88.000,4350.000,-85.000,0.000,0.000,0
2026-01-31 03:46:20,297054,9142.000,-1106.000,6398.000,2300.000,-2775.000,-989.000,0.000,0.000,0
2026-01-31 03:46:20,297094,-2942.000,-2494.000,8130.000,-708.000,4135.000,443.000,0.000,0.000,0
2026-01-31 03:46:20,297134,5437.000,-2679.000,7828.000,301.000,-4152.000,156.000,0.000,0.000,0
2026-01-31 03:46:20,297174,-4580.000,-2969.000,9169.000,-1327.000,3242.000,1817.000,0.000,0.000,0
2026-01-31 03:46:20,297214,12614.000,-5224.000,5005.000,-1174.000,-6624.000,819.000,0.000,0.000,0
2026-01-31 03:46:20,297254,-2324.000,-2805.000,4963.000,-219.000,4532.000,187.000,0.000,0.000,0
2026-01-31 03:46:20,297294,10972.000,-5223.000,9948.000,1026.000,-3004.000,44.000,0.000,0.000,0
2026-01-31 03:46:20,297334,4220.000,-148.000,496.000,79.000,-1850.000,-890.000,0.000,0.000,0
2026-01-31 03:46:20,297374,-8274.000,-8058.000,13785.000,-2548.000,5530.000,485.000,0.000,0.000,0
2026-01-31 03:46:20,297414,16463.000,4115.000,2425.000,3600.000,-7554.000,-2044.000,0.000,0.000,0
2026-01-31 03:46:20,297454,-8670.000,-13255.000,9675.000,-3123.000,11069.000,691.000,0.000,0.000,0
2026-01-31 03:46:20,297494,7374.000,7878.000,8123.000,9029.000,-10283.000,224.000,0.000,0.000,0
2026-01-31 03:46:20,297534,-4983.000,-10982.000,8638.000,-6166.000,8039.000,3728.000,0.000,0.000,0
2026-01-31 03:46:20,297574,8238.000,-1766.000,4853.000,4022.000,-8903.000,258.000,0.000,0.000,0
2026-01-31 03:46:20,297614,-351.000,-6474.000,10719.000,-2314.000,3978.000,1642.000,0.000,0.000,0
2026-01-31 03:46:20,297654,7952.000,-2679.000,10529.000,497.000,-2302.000,-1455.000,0.000,0.000,0
2026-01-31 03:46:20,297694,12346.000,-492.000,1795.000,2573.000,-6372.000,-1246.000,0.000,0.000,0
2026-01-31 03:46:20,297734,-8627.000,-2839.000,12040.000,-2393.000,6791.000,1367.000,0.000,0.000,0
2026-01-31 03:46:20,297774,14449.000,-5302.000,5039.000,-577.000,-5250.000,480.000,0.000,0.000,0
2026-01-31 03:46:20,297814,624.000,-3492.000,6501.000,520.000,3771.000,15.000,0.000,0.000,0
2026-01-31 03:46:21,297854,3156.000,-4691.000,8338.000,-341.000,904.000,-371.000,0.000,0.000,0
2026-01-31 03:46:21,297894,1281.000,2396.000,5650.000,163.000,127.000,-57.000,0.000,0.000,0
2026-01-31 03:46:21,297934,-1355.000,-8826.000,10143.000,-4930.000,4955.000,1865.000,0.000,0.000,0
2026-01-31 03:46:21,297974,6981.000,-1290.000,4879.000,905.000,-1303.000,82.000,0.000,0.000,0
2026-01-31 03:46:21,298014,1625.000,-3647.000,9058.000,-79.000,1771.000,228.000,0.000,0.000,0
2026-01-31 03:46:21,298054,4728.000,-5894.000,7413.000,-1803.000,-2974.000,927.000,0.000,0.000,0
2026-01-31 03:46:21,298094,385.000,-55.000,10897.000,1805.000,44.000,674.000,0.000,0.000,0
2026-01-31 03:46:21,298134,6059.000,-3685.000,2297.000,-1472.000,-937.000,263.000,0.000,0.000,0
2026-01-31 03:46:21,298174,-1868.000,-1826.000,10323.000,334.000,1202.000,-135.000,0.000,0.000,0
2026-01-31 03:46:21,298214,8350.000,-7412.000,4650.000,-2168.000,-890.000,1058.000,0.000,0.000,0
2026-01-31 03:46:21,298254,-2442.000,2069.000,10605.000,4397.000,-227.000,27.000,0.000,0.000,0
2026-01-31 03:46:21,298294,6911.000,-7814.000,3618.000,-4369.000,1331.000,1240.000,0.000,0.000,0
2026-01-31 03:46:21,298334,486.000,-1255.000,7523.000,1991.000,321.000,-699.000,0.000,0.000,0
2026-01-31 03:46:21,298374,-864.000,-3595.000,8890.000,-1496.000,2918.000,745.000,0.000,0.000,0
2026-01-31 03:46:21,298414,5204.000,-59.000,5936.000,989.000,-3858.000,154.000,0.000,0.000,0
2026-01-31 03:46:21,298454,1319.000,-1226.000,8972.000,1664.000,-783.000,29.000,0.000,0.000,0
2026-01-31 03:46:21,298494,3694.000,-4715.000,5288.000,-1790.000,1502.000,470.000,0.000,0.000,0
2026-01-31 03:46:21,298534,2151.000,-1920.000,7054.000,864.000,-1680.000,-594.000,0.000,0.000,0
2026-01-31 03:46:21,298574,14.000,-2461.000,8575.000,-445.000,1233.000,-83.000,0.000,0.000,0
2026-01-31 03:46:21,298619,3736.000,-4534.000,6058.000,-948.000,1440.000,-66.000,0.000,0.000,0
2026-01-31 03:46:21,298654,479.000,-3523.000,6516.000,-453.000,2340.000,-399.000,0.000,0.000,0
2026-01-31 03:46:21,298694,2885.000,-3081.000,7621.000,132.000,515.000,-562.000,0.000,0.000,0
2026-01-31 03:46:21,298734,2935.000,-238.000,7866.000,1423.000,-491.000,-211.000,0.000,0.000,0
2026-01-31 03:46:21,298774,668.000,-6658.000,7300.000,-2649.000,2616.000,892.000,0.000,0.000,0
2026-01-31 03:46:21,298814,5566.000,-2196.000,5390.000,2120.000,-647.000,-769.000,0.000,0.000,0
2026-01-31 03:46:22,298854,-1897.000,-2095.000,10980.000,563.000,1125.000,-235.000,0.000,0.000,0
2026-01-31 03:46:22,298897,1550.000,-6113.000,4652.000,-1869.000,2275.000,477.000,0.000,0.000,0
2026-01-31 03:46:22,298934,-458.000,-5102.000,7397.000,-211.000,1773.000,-386.000,0.000,0.000,0
2026-01-31 03:46:22,298974,2361.000,426.000,9131.000,1941.000,-833.000,-766.000,0.000,0.000,0
2026-01-31 03:46:22,299014,3559.000,-4348.000,6197.000,-1028.000,-297.000,325.000,0.000,0.000,0
2026-01-31 03:46:22,299054,3024.000,-1700.000,7719.000,1230.000,-1144.000,-160.000,0.000,0.000,0
2026-01-31 03:46:22,299094,2578.000,-4883.000,6602.000,-833.000,2149.000,50.000,0.000,0.000,0
2026-01-31 03:46:22,299134,2764.000,-769.000,6957.000,1152.000,-1102.000,-967.000,0.000,0.000,0
2026-01-31 03:46:22,299174,997.000,-1793.000,8057.000,176.000,840.000,86.000,0.000,0.000,0
2026-01-31 03:46:22,299214,-312.000,-4203.000,8179.000,-336.000,2741.000,-341.000,0.000,0.000,0
2026-01-31 03:46:22,299254,4964.000,-2120.000,7954.000,-3.000,-151.000,-541.000,0.000,0.000,0
2026-01-31 03:46:22,299294,-1683.000,-2292.000,7838.000,-118.000,2367.000,-224.000,0.000,0.000,0
2026-01-31 03:46:22,299334,3302.000,-2601.000,7674.000,-41.000,-1684.000,400.000,0.000,0.000,0
2026-01-31 03:46:22,299374,4061.000,-3933.000,7305.000,-663.000,-528.000,517.000,0.000,0.000,0
2026-01-31 03:46:22,299414,2148.000,-4326.000,7699.000,-499.000,869.000,-1.000,0.000,0.000,0
2026-01-31 03:46:22,299454,3481.000,-965.000,6059.000,842.000,-1046.000,-455.000,0.000,0.000,0
2026-01-31 03:46:22,299494,-872.000,-3730.000,8402.000,-848.000,1116.000,57.000,0.000,0.000,0
2026-01-31 03:46:22,299534,6765.000,-2464.000,7019.000,440.000,-2548.000,26.000,0.000,0.000,0
2026-01-31 03:46:22,299574,4878.000,-2542.000,5414.000,163.000,443.000,-496.000,0.000,0.000,0
