datetime_local,uptime_ms,acc_x,acc_y,acc_z,gyro_x,gyro_y,gyro_z,speed_mps,turn_rate_deg_s,gps_valid
2026-01-31 03:54:02,109614,2028.000,-3414.000,7527.000,38.000,-70.000,-164.000,0.000,0.000,0
2026-01-31 03:54:02,109654,1793.000,-3421.000,7390.000,-21.000,-2.000,-33.000,0.000,0.000,0
2026-01-31 03:54:02,109694,1888.000,-3518.000,7524.000,-20.000,57.000,-30.000,0.000,0.000,0
2026-01-31 03:54:02,109734,1941.000,-3470.000,7439.000,205.000,-108.000,-30.000,0.000,0.000,0
2026-01-31 03:54:02,109774,2022.000,-3429.000,7458.000,162.000,-56.000,-2.000,0.000,0.000,0
2026-01-31 03:54:02,109814,1874.000,-3520.000,7509.000,-52.000,10.000,64.000,0.000,0.000,0
2026-01-31 03:54:02,109854,1826.000,-3385.000,7395.000,177.000,-141.000,-2.000,0.000,0.000,0
2026-01-31 03:54:02,109894,2005.000,-3413.000,7519.000,297.000,-130.000,-18.000,0.000,0.000,0
2026-01-31 03:54:02,109934,2065.000,-3388.000,7442.000,21.000,-178.000,-75.000,0.000,0.000,0
2026-01-31 03:54:02,109974,1942.000,-3424.000,7518.000,-29.000,11.000,19.000,0.000,0.000,0
2026-01-31 03:54:02,110014,2000.000,-3383.000,7402.000,-134.000,34.000,28.000,0.000,0.000,0
2026-01-31 03:54:02,110054,1958.000,-3404.000,7450.000,-108.000,68.000,-3.000,0.000,0.000,0
2026-01-31 03:54:02,110094,1995.000,-3418.000,7427.000,-11.000,38.000,8.000,0.000,0.000,0
2026-01-31 03:54:03,110134,1965.000,-3463.000,7494.000,-117.000,77.000,32.000,0.000,0.000,0
2026-01-31 03:54:03,110174,1921.000,-3382.000,7394.000,-75.000,36.000,3.000,0.000,0.000,0
2026-01-31 03:54:03,110214,1895.000,-3492.000,7446.000,-30.000,101.000,47.000,0.000,0.000,0
2026-01-31 03:54:03,110254,1987.000,-3397.000,7466.000,83.000,-72.000,-36.000,0.000,0.000,0
2026-01-31 03:54:03,110294,1996.000,-3475.000,7528.000,-9.000,38.000,62.000,0.000,0.000,0
2026-01-31 03:54:03,110334,1869.000,-3317.000,7300.000,-103.000,-31.000,10.000,0.000,0.000,0
2026-01-31 03:54:03,110374,1983.000,-3524.000,7542.000,73.000,74.000,29.000,0.000,0.000,0
2026-01-31 03:54:03,110414,1946.000,-3412.000,7437.000,13.000,-15.000,-36.000,0.000,0.000,0
2026-01-31 03:54:03,110454,1929.000,-3454.000,7454.000,-104.000,118.000,31.000,0.000,0.000,0
2026-01-31 03:54:03,110494,1954.000,-3432.000,7434.000,-2.000,24.000,-31.000,0.000,0.000,0
2026-01-31 03:54:03,110534,1937.000,-3459.000,7476.000,-51.000,89.000,55.000,0.000,0.000,0
2026-01-31 03:54:03,110574,1885.000,-3489.000,7439.000,-71.000,127.000,73.000,0.000,0.000,0
2026-01-31 03:54:03,110614,1899.000,-3464.000,7493.000,-73.000,136.000,53.000,0.000,0.000,0
2026-01-31 03:54:03,110654,1863.000,-3436.000,7377.000,-107.000,107.000,30.000,0.000,0.000,0
2026-01-31 03:54:03,110694,1866.000,-3566.000,7455.000,-16.000,219.000,53.000,0.000,0.000,0
2026-01-31 03:54:03,110734,1966.000,-3461.000,7331.000,-72.000,108.000,-126.000,0.000,0.000,0
2026-01-31 03:54:03,110774,1698.000,-3298.000,7545.000,-245.000,606.000,-92.000,0.000,0.000,0
2026-01-31 03:54:03,110814,1874.000,-3462.000,7284.000,-234.000,606.000,-10.000,0.000,0.000,0
2026-01-31 03:54:03,110854,1594.000,-3531.000,7516.000,186.000,1035.000,294.000,0.000,0.000,0
2026-01-31 03:54:03,110894,1981.000,-3379.000,7292.000,-98.000,718.000,69.000,0.000,0.000,0
2026-01-31 03:54:03,110934,2442.000,-3121.000,6592.000,-223.000,1247.000,267.000,0.000,0.000,0
2026-01-31 03:54:03,110974,1498.000,-3079.000,7497.000,1323.000,1502.000,1491.000,0.000,0.000,0
2026-01-31 03:54:03,111014,930.000,-3380.000,7893.000,1805.000,1170.000,1504.000,0.000,0.000,0
2026-01-31 03:54:03,111054,1696.000,-3070.000,7585.000,1429.000,257.000,449.000,0.000,0.000,0
2026-01-31 03:54:03,111094,369.000,-3233.000,7684.000,806.000,2373.000,1198.000,0.000,0.000,0
2026-01-31 03:54:04,111134,655.000,-2750.000,7828.000,195.000,3639.000,830.000,0.000,0.000,0
2026-01-31 03:54:04,111174,-407.000,-3785.000,8062.000,516.000,2938.000,1531.000,0.000,0.000,0
2026-01-31 03:54:04,111214,-1676.000,-2687.000,7298.000,1842.000,4435.000,1397.000,0.000,0.000,0
2026-01-31 03:54:04,111254,-1322.000,-2629.000,5688.000,5122.000,6543.000,-533.000,0.000,0.000,0
2026-01-31 03:54:04,111294,-1774.000,-2139.000,6613.000,10413.000,12496.000,130.000,0.000,0.000,0
2026-01-31 03:54:04,111334,-3509.000,545.000,10986.000,15848.000,10306.000,-84.000,0.000,0.000,0
2026-01-31 03:54:04,111374,-2308.000,2286.000,10680.000,5318.000,4070.000,-306.000,0.000,0.000,0
2026-01-31 03:54:04,111414,-3026.000,363.000,6978.000,-3331.000,1819.000,1569.000,0.000,0.000,0
2026-01-31 03:54:04,111454,-3506.000,75.000,6701.000,-1392.000,4238.000,1649.000,0.000,0.000,0
2026-01-31 03:54:04,111494,-4494.000,-498.000,5641.000,-4180.000,5417.000,1767.000,0.000,0.000,0
2026-01-31 03:54:04,111534,-5073.000,-11.000,3957.000,-1231.000,8115.000,247.000,0.000,0.000,0
2026-01-31 03:54:04,111574,-6565.000,-417.000,2463.000,-5873.000,12213.000,1319.000,0.000,0.000,0
2026-01-31 03:54:04,111614,-7758.000,-1150.000,2538.000,-3333.000,14959.000,4101.000,0.000,0.000,0
2026-01-31 03:54:04,111654,-8292.000,-1303.000,2713.000,-3571.000,16556.000,2129.000,0.000,0.000,0
2026-01-31 03:54:04,111694,-8513.000,-1244.000,3165.000,-757.000,14984.000,1228.000,0.000,0.000,0
2026-01-31 03:54:04,111734,-10408.000,-1471.000,2696.000,1202.000,10334.000,767.000,0.000,0.000,0
2026-01-31 03:54:04,111774,-7036.000,-324.000,3685.000,1468.000,10071.000,-1960.000,0.000,0.000,0
2026-01-31 03:54:04,111814,-9113.000,-379.000,2281.000,-425.000,1662.000,-1088.000,0.000,0.000,0
2026-01-31 03:54:04,111854,-9292.000,-442.000,1303.000,-3291.000,-2862.000,-1072.000,0.000,0.000,0
2026-01-31 03:54:04,111894,-7818.000,-696.000,708.000,-4694.000,-1231.000,-496.000,0.000,0.000,0
2026-01-31 03:54:04,111934,-4994.000,-470.000,289.000,-4424.000,-3628.000,-2917.000,0.000,0.000,0
2026-01-31 03:54:04,111974,-7153.000,-972.000,-33.000,-1779.000,-3378.000,-1630.000,0.000,0.000,0
2026-01-31 03:54:04,112014,-8223.000,-390.000,492.000,-551.000,-1991.000,-5199.000,0.000,0.000,0
2026-01-31 03:54:04,112054,-9305.000,654.000,1311.000,-1477.000,707.000,-6285.000,0.000,0.000,0
2026-01-31 03:54:04,112094,-8212.000,502.000,717.000,-5256.000,-4504.000,1987.000,0.000,0.000,0
2026-01-31 03:54:05,112134,-7614.000,326.000,1240.000,-7777.000,3159.000,2414.000,0.000,0.000,0
2026-01-31 03:54:05,112174,-10651.000,-372.000,628.000,-7472.000,1197.000,7177.000,0.000,0.000,0
2026-01-31 03:54:05,112214,-8882.000,-255.000,190.000,-7105.000,-664.000,7627.000,0.000,0.000,0
2026-01-31 03:54:05,112254,-10719.000,-550.000,851.000,74.000,5131.000,-869.000,0.000,0.000,0
2026-01-31 03:54:05,112294,-10834.000,-186.000,-491.000,-9288.000,-3882.000,3309.000,0.000,0.000,0
2026-01-31 03:54:05,112334,-6451.000,301.000,491.000,-6584.000,-1442.000,-971.000,0.000,0.000,0
2026-01-31 03:54:05,112374,-8931.000,-163.000,398.000,-6032.000,842.000,-1060.000,0.000,0.000,0
2026-01-31 03:54:05,112414,-8903.000,-1736.000,-41.000,-2898.000,-1514.000,1097.000,0.000,0.000,0
2026-01-31 03:54:05,112454,-7379.000,-1146.000,-729.000,1494.000,-1198.000,-425.000,0.000,0.000,0
2026-01-31 03:54:05,112494,-8271.000,-315.000,478.000,6071.000,-722.000,-3539.000,0.000,0.000,0
2026-01-31 03:54:05,112534,-8769.000,-363.000,-181.000,4560.000,-774.000,-1416.000,0.000,0.000,0
2026-01-31 03:54:05,112574,-7338.000,-501.000,45.000,5600.000,1174.000,1.000,0.000,0.000,0
2026-01-31 03:54:05,112614,-8189.000,-593.000,415.000,3540.000,410.000,-1139.000,0.000,0.000,0
2026-01-31 03:54:05,112654,-7967.000,-271.000,913.000,1242.000,1087.000,-591.000,0.000,0.000,0
2026-01-31 03:54:05,112694,-8287.000,-920.000,671.000,-785.000,-77.000,370.000,0.000,0.000,0
2026-01-31 03:54:05,112734,-8312.000,-909.000,528.000,-695.000,-92.000,81.000,0.000,0.000,0
2026-01-31 03:54:05,112774,-8190.000,-737.000,444.000,-516.000,-1.000,22.000,0.000,0.000,0
2026-01-31 03:54:05,112814,-8163.000,-734.000,416.000,-436.000,-287.000,10.000,0.000,0.000,0
2026-01-31 03:54:05,112854,-8208.000,-769.000,400.000,-526.000,-22.000,23.000,0.000,0.000,0
2026-01-31 03:54:05,112894,-8200.000,-773.000,411.000,-380.000,-104.000,17.000,0.000,0.000,0
2026-01-31 03:54:05,112934,-8219.000,-770.000,369.000,-250.000,-85.000,-6.000,0.000,0.000,0
2026-01-31 03:54:05,112974,-8201.000,-764.000,396.000,-71.000,18.000,-11.000,0.000,0.000,0
2026-01-31 03:54:05,113014,-8204.000,-770.000,384.000,207.000,57.000,13.000,0.000,0.000,0
2026-01-31 03:54:05,113054,-8206.000,-764.000,408.000,331.000,107.000,6.000,0.000,0.000,0
2026-01-31 03:54:05,113094,-8198.000,-762.000,426.000,411.000,79.000,11.000,0.000,0.000,0
2026-01-31 03:54:06,113134,-8205.000,-758.000,439.000,398.000,100.000,8.000,0.000,0.000,0
2026-01-31 03:54:06,113174,-8207.000,-759.000,466.000,310.000,75.000,-7.000,0.000,0.000,0
2026-01-31 03:54:06,113214,-8208.000,-747.000,495.000,117.000,38.000,-29.000,0.000,0.000,0
2026-01-31 03:54:06,113254,-8209.000,-757.000,476.000,-107.000,-39.000,8.000,0.000,0.000,0
2026-01-31 03:54:06,113294,-8205.000,-757.000,448.000,-243.000,-85.000,17.000,0.000,0.000,0
2026-01-31 03:54:06,113337,-8203.000,-771.000,432.000,-343.000,-65.000,6.000,0.000,0.000,0
2026-01-31 03:54:06,113377,-8206.000,-768.000,406.000,-273.000,-40.000,-50.000,0.000,0.000,0
2026-01-31 03:54:06,113414,-8212.000,-772.000,400.000,-205.000,-23.000,-29.000,0.000,0.000,0
2026-01-31 03:54:06,113454,-8206.000,-785.000,386.000,-64.000,5.000,6.000,0.000,0.000,0
2026-01-31 03:54:06,113494,-8201.000,-781.000,399.000,98.000,32.000,5.000,0.000,0.000,0
2026-01-31 03:54:06,113534,-8199.000,-781.000,410.000,216.000,59.000,7.000,0.000,0.000,0
2026-01-31 03:54:06,113574,-8208.000,-776.000,435.000,280.000,65.000,3.000,0.000,0.000,0
2026-01-31 03:54:06,113614,-8202.000,-770.000,440.000,270.000,62.000,5.000,0.000,0.000,0
2026-01-31 03:54:06,113654,-8203.000,-765.000,458.000,197.000,44.000,6.000,0.000,0.000,0
2026-01-31 03:54:06,113694,-8207.000,-763.000,462.000,83.000,19.000,10.000,0.000,0.000,0
2026-01-31 03:54:06,113734,-8199.000,-764.000,466.000,-49.000,-10.000,9.000,0.000,0.000,0
2026-01-31 03:54:06,113774,-8202.000,-770.000,445.000,-200.000,-39.000,8.000,0.000,0.000,0
2026-01-31 03:54:06,113814,-8203.000,-774.000,429.000,-233.000,-42.000,3.000,0.000,0.000,0
2026-01-31 03:54:06,113854,-8200.000,-772.000,407.000,-207.000,-35.000,-7.000,0.000,0.000,0
2026-01-31 03:54:06,113894,-8203.000,-782.000,397.000,-129.000,-19.000,-6.000,0.000,0.000,0
2026-01-31 03:54:06,113934,-8200.000,-786.000,404.000,-24.000,5.000,-7.000,0.000,0.000,0
2026-01-31 03:54:06,113974,-8199.000,-778.000,416.000,80.000,22.000,-2.000,0.000,0.000,0
2026-01-31 03:54:06,114014,-8198.000,-780.000,425.000,148.000,39.000,3.000,0.000,0.000,0
2026-01-31 03:54:06,114054,-8199.000,-778.000,430.000,175.000,45.000,3.000,0.000,0.000,0
2026-01-31 03:54:06,114094,-8201.000,-774.000,447.000,148.000,39.000,6.000,0.000,0.000,0
2026-01-31 03:54:07,114134,-8205.000,-775.000,453.000,88.000,28.000,7.000,0.000,0.000,0
2026-01-31 03:54:07,114174,-8202.000,-777.000,446.000,-21.000,8.000,7.000,0.000,0.000,0
2026-01-31 03:54:07,114214,-8197.000,-780.000,440.000,-83.000,-8.000,7.000,0.000,0.000,0
2026-01-31 03:54:07,114254,-8206.000,-784.000,432.000,-116.000,-17.000,6.000,0.000,0.000,0
2026-01-31 03:54:07,114294,-8204.000,-780.000,426.000,-115.000,-17.000,3.000,0.000,0.000,0
2026-01-31 03:54:07,114334,-8204.000,-784.000,417.000,-86.000,-12.000,3.000,0.000,0.000,0
2026-01-31 03:54:07,114374,-8198.000,-786.000,420.000,-37.000,-7.000,3.000,0.000,0.000,0
2026-01-31 03:54:07,114414,-8205.000,-784.000,416.000,13.000,7.000,-1.000,0.000,0.000,0
2026-01-31 03:54:07,114454,-8200.000,-783.000,423.000,53.000,16.000,-2.000,0.000,0.000,0
2026-01-31 03:54:07,114494,-8202.000,-784.000,424.000,73.000,21.000,6.000,0.000,0.000,0
2026-01-31 03:54:07,114534,-8200.000,-782.000,431.000,67.000,25.000,6.000,0.000,0.000,0
2026-01-31 03:54:07,114574,-8206.000,-785.000,438.000,42.000,14.000,10.000,0.000,0.000,0
2026-01-31 03:54:07,114614,-8202.000,-784.000,436.000,8.000,14.000,9.000,0.000,0.000,0
2026-01-31 03:54:07,114654,-8202.000,-781.000,436.000,-17.000,4.000,10.000,0.000,0.000,0
2026-01-31 03:54:07,114694,-8201.000,-789.000,430.000,-36.000,2.000,8.000,0.000,0.000,0
2026-01-31 03:54:07,114734,-8203.000,-786.000,432.000,-43.000,-4.000,6.000,0.000,0.000,0
2026-01-31 03:54:07,114774,-8202.000,-786.000,423.000,-40.000,-3.000,6.000,0.000,0.000,0
2026-01-31 03:54:07,114814,-8204.000,-786.000,428.000,-28.000,-1.000,4.000,0.000,0.000,0
2026-01-31 03:54:07,114854,-8201.000,-790.000,427.000,-13.000,2.000,3.000,0.000,0.000,0
2026-01-31 03:54:07,114894,-8201.000,-788.000,427.000,4.000,10.000,5.000,0.000,0.000,0
2026-01-31 03:54:07,114934,-8196.000,-783.000,427.000,20.000,16.000,5.000,0.000,0.000,0
2026-01-31 03:54:07,114974,-8204.000,-784.000,433.000,23.000,20.000,7.000,0.000,0.000,0
2026-01-31 03:54:07,115014,-8203.000,-785.000,435.000,20.000,11.000,7.000,0.000,0.000,0
2026-01-31 03:54:07,115054,-8202.000,-788.000,434.000,14.000,11.000,8.000,0.000,0.000,0
2026-01-31 03:54:07,115094,-8204.000,-789.000,436.000,6.000,11.000,8.000,0.000,0.000,0
2026-01-31 03:54:08,115134,-8205.000,-790.000,439.000,0.000,7.000,4.000,0.000,0.000,0
2026-01-31 03:54:08,115174,-8205.000,-786.000,431.000,-8.000,1.000,7.000,0.000,0.000,0
2026-01-31 03:54:08,115214,-8202.000,-787.000,432.000,-15.000,2.000,3.000,0.000,0.000,0
2026-01-31 03:54:08,115254,-8203.000,-788.000,430.000,-18.000,2.000,4.000,0.000,0.000,0
2026-01-31 03:54:08,115294,-8200.000,-791.000,423.000,-21.000,6.000,4.000,0.000,0.000,0
2026-01-31 03:54:08,115334,-8203.000,-789.000,426.000,-15.000,8.000,4.000,0.000,0.000,0
2026-01-31 03:54:08,115374,-8202.000,-792.000,426.000,-6.000,10.000,0.000,0.000,0.000,0
2026-01-31 03:54:08,115414,-8199.000,-794.000,424.000,11.000,14.000,4.000,0.000,0.000,0
2026-01-31 03:54:08,115457,-8199.000,-786.000,427.000,21.000,17.000,6.000,0.000,0.000,0
2026-01-31 03:54:08,115496,-8201.000,-795.000,440.000,25.000,15.000,7.000,0.000,0.000,0
2026-01-31 03:54:08,115534,-8202.000,-795.000,431.000,23.000,14.000,10.000,0.000,0.000,0
2026-01-31 03:54:08,115574,-8205.000,-790.000,438.000,14.000,8.000,6.000,0.000,0.000,0
2026-01-31 03:54:08,115617,-8205.000,-795.000,438.000,-6.000,7.000,5.000,0.000,0.000,0
2026-01-31 03:54:08,115654,-8201.000,-786.000,425.000,-15.000,8.000,7.000,0.000,0.000,0
2026-01-31 03:54:08,115694,-8196.000,-793.000,434.000,-26.000,1.000,7.000,0.000,0.000,0
2026-01-31 03:54:08,115734,-8202.000,-795.000,436.000,-25.000,10.000,7.000,0.000,0.000,0
2026-01-31 03:54:08,115774,-8200.000,-794.000,419.000,-20.000,2.000,6.000,0.000,0.000,0
2026-01-31 03:54:08,115814,-8197.000,-792.000,427.000,-11.000,12.000,4.000,0.000,0.000,0
2026-01-31 03:54:08,115854,-8201.000,-794.000,424.000,3.000,10.000,6.000,0.000,0.000,0
2026-01-31 03:54:08,115894,-8204.000,-799.000,430.000,15.000,10.000,7.000,0.000,0.000,0
2026-01-31 03:54:08,115934,-8201.000,-793.000,434.000,19.000,15.000,4.000,0.000,0.000,0
2026-01-31 03:54:08,115974,-8205.000,-800.000,432.000,20.000,6.000,6.000,0.000,0.000,0
2026-01-31 03:54:08,116014,-8201.000,-793.000,438.000,11.000,15.000,7.000,0.000,0.000,0
2026-01-31 03:54:08,116054,-8201.000,-794.000,434.000,4.000,6.000,8.000,0.000,0.000,0
2026-01-31 03:54:08,116094,-8200.000,-799.000,434.000,-14.000,7.000,4.000,0.000,0.000,0
2026-01-31 03:54:09,116134,-8203.000,-793.000,428.000,-23.000,2.000,9.000,0.000,0.000,0
2026-01-31 03:54:09,116174,-8204.000,-795.000,432.000,-31.000,3.000,9.000,0.000,0.000,0
2026-01-31 03:54:09,116214,-8195.000,-791.000,433.000,-29.000,-4.000,7.000,0.000,0.000,0
2026-01-31 03:54:09,116254,-8202.000,-795.000,428.000,-23.000,8.000,6.000,0.000,0.000,0
2026-01-31 03:54:09,116294,-8198.000,-796.000,423.000,-6.000,3.000,5.000,0.000,0.000,0
2026-01-31 03:54:09,116334,-8205.000,-796.000,422.000,12.000,14.000,5.000,0.000,0.000,0
2026-01-31 03:54:09,116374,-8205.000,-793.000,433.000,29.000,15.000,6.000,0.000,0.000,0
2026-01-31 03:54:09,116414,-8199.000,-795.000,424.000,37.000,12.000,6.000,0.000,0.000,0
2026-01-31 03:54:09,116454,-8198.000,-791.000,435.000,37.000,16.000,8.000,0.000,0.000,0
2026-01-31 03:54:09,116494,-8202.000,-791.000,433.000,23.000,13.000,7.000,0.000,0.000,0
2026-01-31 03:54:09,116534,-8203.000,-788.000,434.000,8.000,10.000,8.000,0.000,0.000,0
2026-01-31 03:54:09,116574,-8199.000,-796.000,436.000,-10.000,7.000,7.000,0.000,0.000,0
2026-01-31 03:54:09,116614,-8201.000,-793.000,429.000,-22.000,8.000,7.000,0.000,0.000,0
2026-01-31 03:54:09,116654,-8208.000,-798.000,432.000,-24.000,-3.000,10.000,0.000,0.000,0
2026-01-31 03:54:09,116694,-8203.000,-796.000,430.000,-16.000,7.000,9.000,0.000,0.000,0
2026-01-31 03:54:09,116734,-8202.000,-789.000,420.000,-4.000,8.000,10.000,0.000,0.000,0
2026-01-31 03:54:09,116774,-8203.000,-796.000,422.000,16.000,6.000,5.000,0.000,0.000,0
2026-01-31 03:54:09,116814,-8201.000,-792.000,426.000,28.000,16.000,10.000,0.000,0.000,0
2026-01-31 03:54:09,116854,-8200.000,-792.000,434.000,36.000,13.000,6.000,0.000,0.000,0
2026-01-31 03:54:09,116894,-8203.000,-788.000,430.000,30.000,23.000,7.000,0.000,0.000,0
2026-01-31 03:54:09,116934,-8203.000,-794.000,433.000,15.000,10.000,6.000,0.000,0.000,0
2026-01-31 03:54:09,116974,-8200.000,-789.000,437.000,-8.000,8.000,4.000,0.000,0.000,0
2026-01-31 03:54:09,117014,-8200.000,-791.000,433.000,-32.000,1.000,6.000,0.000,0.000,0
2026-01-31 03:54:09,117054,-8195.000,-793.000,431.000,-46.000,-6.000,8.000,0.000,0.000,0
2026-01-31 03:54:09,117094,-8199.000,-793.000,430.000,-56.000,0.000,6.000,0.000,0.000,0
2026-01-31 03:54:10,117134,-8201.000,-795.000,430.000,-46.000,-7.000,6.000,0.000,0.000,0
2026-01-31 03:54:10,117174,-8196.000,-795.000,423.000,-33.000,9.000,4.000,0.000,0.000,0
2026-01-31 03:54:10,117214,-8196.000,-797.000,421.000,-7.000,-2.000,5.000,0.000,0.000,0
2026-01-31 03:54:10,117254,-8206.000,-789.000,426.000,11.000,20.000,5.000,0.000,0.000,0
2026-01-31 03:54:10,117294,-8205.000,-794.000,424.000,24.000,15.000,7.000,0.000,0.000,0
2026-01-31 03:54:10,117334,-8205.000,-792.000,422.000,31.000,11.000,7.000,0.000,0.000,0
2026-01-31 03:54:10,117374,-8203.000,-800.000,432.000,23.000,22.000,8.000,0.000,0.000,0
2026-01-31 03:54:10,117414,-8200.000,-796.000,438.000,17.000,3.000,9.000,0.000,0.000,0
2026-01-31 03:54:10,117454,-8202.000,-794.000,428.000,-1.000,10.000,9.000,0.000,0.000,0
2026-01-31 03:54:10,117497,-8202.000,-792.000,438.000,-23.000,-3.000,8.000,0.000,0.000,0
2026-01-31 03:54:10,117549,-8200.000,-793.000,433.000,-36.000,5.000,7.000,0.000,0.000,0
2026-01-31 03:54:10,117579,-8198.000,-793.000,430.000,-29.000,-5.000,10.000,0.000,0.000,0
2026-01-31 03:54:10,117614,-8202.000,-790.000,428.000,-29.000,-4.000,10.000,0.000,0.000,0
2026-01-31 03:54:10,117654,-8206.000,-798.000,426.000,-17.000,8.000,6.000,0.000,0.000,0
2026-01-31 03:54:10,117694,-8200.000,-792.000,428.000,-3.000,10.000,7.000,0.000,0.000,0
2026-01-31 03:54:10,117734,-8198.000,-794.000,429.000,9.000,13.000,7.000,0.000,0.000,0
2026-01-31 03:54:10,117774,-8210.000,-791.000,435.000,13.000,14.000,7.000,0.000,0.000,0
2026-01-31 03:54:10,117814,-8204.000,-793.000,425.000,10.000,7.000,6.000,0.000,0.000,0
2026-01-31 03:54:10,117854,-8204.000,-793.000,432.000,1.000,16.000,7.000,0.000,0.000,0
2026-01-31 03:54:10,117894,-8198.000,-789.000,430.000,-9.000,2.000,8.000,0.000,0.000,0
2026-01-31 03:54:10,117934,-8200.000,-793.000,424.000,-21.000,2.000,9.000,0.000,0.000,0
2026-01-31 03:54:10,117974,-8204.000,-793.000,432.000,-23.000,-5.000,5.000,0.000,0.000,0
2026-01-31 03:54:10,118014,-8203.000,-797.000,427.000,-19.000,9.000,5.000,0.000,0.000,0
2026-01-31 03:54:10,118054,-8202.000,-800.000,429.000,-4.000,13.000,4.000,0.000,0.000,0
2026-01-31 03:54:10,118094,-8202.000,-797.000,426.000,14.000,1.000,7.000,0.000,0.000,0
2026-01-31 03:54:11,118134,-8198.000,-798.000,437.000,20.000,32.000,3.000,0.000,0.000,0
2026-01-31 03:54:11,118174,-8202.000,-793.000,430.000,31.000,-2.000,8.000,0.000,0.000,0
2026-01-31 03:54:11,118214,-8195.000,-795.000,433.000,19.000,29.000,7.000,0.000,0.000,0
2026-01-31 03:54:11,118254,-8203.000,-793.000,441.000,12.000,4.000,6.000,0.000,0.000,0
2026-01-31 03:54:11,118294,-8200.000,-790.000,427.000,-7.000,5.000,7.000,0.000,0.000,0
2026-01-31 03:54:11,118334,-8209.000,-795.000,432.000,-25.000,12.000,6.000,0.000,0.000,0
2026-01-31 03:54:11,118374,-8200.000,-796.000,428.000,-39.000,6.000,3.000,0.000,0.000,0
2026-01-31 03:54:11,118414,-8202.000,-797.000,431.000,-34.000,5.000,2.000,0.000,0.000,0
2026-01-31 03:54:11,118454,-8194.000,-796.000,423.000,-27.000,-5.000,5.000,0.000,0.000,0
2026-01-31 03:54:11,118494,-8202.000,-797.000,435.000,-13.000,14.000,2.000,0.000,0.000,0
2026-01-31 03:54:11,118534,-8200.000,-805.000,422.000,4.000,-1.000,7.000,0.000,0.000,0
2026-01-31 03:54:11,118574,-8199.000,-798.000,426.000,19.000,22.000,7.000,0.000,0.000,0
2026-01-31 03:54:11,118614,-8205.000,-796.000,428.000,30.000,8.000,6.000,0.000,0.000,0
2026-01-31 03:54:11,118654,-8192.000,-795.000,425.000,29.000,14.000,5.000,0.000,0.000,0
2026-01-31 03:54:11,118694,-8201.000,-800.000,431.000,23.000,17.000,10.000,0.000,0.000,0
2026-01-31 03:54:11,118734,-8204.000,-795.000,427.000,2.000,7.000,11.000,0.000,0.000,0
2026-01-31 03:54:11,118774,-8200.000,-799.000,437.000,-10.000,11.000,8.000,0.000,0.000,0
2026-01-31 03:54:11,118814,-8202.000,-801.000,432.000,-19.000,4.000,9.000,0.000,0.000,0
2026-01-31 03:54:11,118854,-8199.000,-792.000,430.000,-20.000,0.000,11.000,0.000,0.000,0
2026-01-31 03:54:11,118894,-8203.000,-804.000,427.000,-16.000,3.000,8.000,0.000,0.000,0
2026-01-31 03:54:11,118934,-8203.000,-802.000,428.000,-8.000,12.000,9.000,0.000,0.000,0
2026-01-31 03:54:11,118974,-8201.000,-802.000,429.000,3.000,1.000,8.000,0.000,0.000,0
2026-01-31 03:54:11,119014,-8200.000,-794.000,432.000,12.000,20.000,5.000,0.000,0.000,0
2026-01-31 03:54:11,119054,-8200.000,-804.000,432.000,17.000,4.000,7.000,0.000,0.000,0
2026-01-31 03:54:11,119094,-8203.000,-798.000,435.000,17.000,15.000,7.000,0.000,0.000,0
2026-01-31 03:54:12,119134,-8199.000,-800.000,428.000,8.000,3.000,7.000,0.000,0.000,0
2026-01-31 03:54:12,119174,-8201.000,-795.000,428.000,-2.000,15.000,6.000,0.000,0.000,0
2026-01-31 03:54:12,119214,-8203.000,-799.000,429.000,-12.000,3.000,8.000,0.000,0.000,0
2026-01-31 03:54:12,119254,-8198.000,-798.000,435.000,-22.000,7.000,6.000,0.000,0.000,0
2026-01-31 03:54:12,119294,-8200.000,-796.000,427.000,-26.000,0.000,6.000,0.000,0.000,0
2026-01-31 03:54:12,119334,-8200.000,-797.000,424.000,-25.000,-1.000,5.000,0.000,0.000,0
2026-01-31 03:54:12,119374,-8200.000,-796.000,431.000,-21.000,10.000,4.000,0.000,0.000,0
2026-01-31 03:54:12,119414,-8196.000,-802.000,427.000,-11.000,0.000,5.000,0.000,0.000,0
2026-01-31 03:54:12,119454,-8196.000,-803.000,425.000,-2.000,11.000,4.000,0.000,0.000,0
2026-01-31 03:54:12,119497,-8191.000,-804.000,421.000,15.000,6.000,4.000,0.000,0.000,0
2026-01-31 03:54:12,119536,-8195.000,-805.000,432.000,14.000,21.000,4.000,0.000,0.000,0
2026-01-31 03:54:12,119574,-8203.000,-793.000,435.000,9.000,12.000,8.000,0.000,0.000,0
2026-01-31 03:54:12,119614,-8201.000,-796.000,421.000,6.000,5.000,7.000,0.000,0.000,0
2026-01-31 03:54:12,119654,-8207.000,-794.000,429.000,1.000,18.000,10.000,0.000,0.000,0
2026-01-31 03:54:12,119694,-8206.000,-797.000,434.000,-8.000,-5.000,9.000,0.000,0.000,0
2026-01-31 03:54:12,119734,-8207.000,-797.000,437.000,-14.000,15.000,8.000,0.000,0.000,0
2026-01-31 03:54:12,119774,-8200.000,-799.000,427.000,-18.000,-5.000,12.000,0.000,0.000,0
2026-01-31 03:54:12,119814,-8206.000,-801.000,429.000,-25.000,11.000,7.000,0.000,0.000,0
2026-01-31 03:54:12,119854,-8207.000,-800.000,429.000,-21.000,-2.000,7.000,0.000,0.000,0
2026-01-31 03:54:12,119894,-8197.000,-800.000,423.000,-13.000,18.000,5.000,0.000,0.000,0
2026-01-31 03:54:12,119934,-8199.000,-801.000,430.000,0.000,-3.000,8.000,0.000,0.000,0
2026-01-31 03:54:12,119974,-8202.000,-801.000,418.000,4.000,9.000,6.000,0.000,0.000,0
2026-01-31 03:54:12,120014,-8199.000,-804.000,432.000,9.000,20.000,6.000,0.000,0.000,0
2026-01-31 03:54:12,120054,-8201.000,-806.000,429.000,9.000,2.000,7.000,0.000,0.000,0
2026-01-31 03:54:12,120094,-8201.000,-804.000,436.000,8.000,18.000,6.000,0.000,0.000,0
2026-01-31 03:54:13,120134,-8197.000,-796.000,431.000,2.000,4.000,9.000,0.000,0.000,0
2026-01-31 03:54:13,120174,-8196.000,-803.000,434.000,-6.000,11.000,9.000,0.000,0.000,0
2026-01-31 03:54:13,120214,-8198.000,-808.000,430.000,-8.000,-2.000,6.000,0.000,0.000,0
2026-01-31 03:54:13,120254,-8200.000,-807.000,438.000,-19.000,16.000,11.000,0.000,0.000,0
2026-01-31 03:54:13,120294,-8200.000,-800.000,422.000,-13.000,-6.000,7.000,0.000,0.000,0
2026-01-31 03:54:13,120334,-8196.000,-804.000,425.000,-12.000,17.000,6.000,0.000,0.000,0
2026-01-31 03:54:13,120374,-8207.000,-798.000,428.000,-5.000,-1.000,5.000,0.000,0.000,0
2026-01-31 03:54:13,120414,-8199.000,-804.000,421.000,3.000,11.000,6.000,0.000,0.000,0
2026-01-31 03:54:13,120454,-8205.000,-791.000,427.000,11.000,16.000,5.000,0.000,0.000,0
2026-01-31 03:54:13,120494,-8199.000,-802.000,424.000,13.000,-2.000,10.000,0.000,0.000,0
2026-01-31 03:54:13,120534,-8198.000,-800.000,425.000,9.000,24.000,7.000,0.000,0.000,0
2026-01-31 03:54:13,120574,-8199.000,-804.000,430.000,8.000,-1.000,9.000,0.000,0.000,0
2026-01-31 03:54:13,120614,-8202.000,-799.000,427.000,0.000,15.000,4.000,0.000,0.000,0
2026-01-31 03:54:13,120654,-8196.000,-807.000,420.000,-9.000,-3.000,8.000,0.000,0.000,0
2026-01-31 03:54:13,120694,-8197.000,-806.000,424.000,-12.000,9.000,7.000,0.000,0.000,0
2026-01-31 03:54:13,120734,-8199.000,-802.000,428.000,-11.000,4.000,6.000,0.000,0.000,0
2026-01-31 03:54:13,120774,-8193.000,-803.000,422.000,-11.000,7.000,8.000,0.000,0.000,0
2026-01-31 03:54:13,120814,-8197.000,-803.000,433.000,-2.000,8.000,8.000,0.000,0.000,0
2026-01-31 03:54:13,120854,-8202.000,-806.000,426.000,0.000,8.000,7.000,0.000,0.000,0
2026-01-31 03:54:13,120894,-8195.000,-803.000,429.000,6.000,10.000,6.000,0.000,0.000,0
2026-01-31 03:54:13,120934,-8201.000,-803.000,425.000,3.000,11.000,4.000,0.000,0.000,0
2026-01-31 03:54:13,120974,-8198.000,-799.000,423.000,3.000,1.000,8.000,0.000,0.000,0
2026-01-31 03:54:13,121014,-8202.000,-798.000,435.000,-3.000,18.000,7.000,0.000,0.000,0
2026-01-31 03:54:13,121054,-8198.000,-800.000,425.000,-7.000,-9.000,7.000,0.000,0.000,0
2026-01-31 03:54:13,121094,-8201.000,-809.000,423.000,-14.000,20.000,5.000,0.000,0.000,0
2026-01-31 03:54:14,121134,-8197.000,-804.000,429.000,-8.000,-2.000,6.000,0.000,0.000,0
2026-01-31 03:54:14,121174,-8200.000,-801.000,426.000,-12.000,6.000,8.000,0.000,0.000,0
2026-01-31 03:54:14,121214,-8200.000,-806.000,435.000,-8.000,12.000,7.000,0.000,0.000,0
2026-01-31 03:54:14,121254,-8204.000,-805.000,423.000,-6.000,-8.000,9.000,0.000,0.000,0
2026-01-31 03:54:14,121294,-8201.000,-804.000,437.000,-4.000,22.000,7.000,0.000,0.000,0
2026-01-31 03:54:14,121334,-8200.000,-805.000,423.000,-1.000,-12.000,11.000,0.000,0.000,0
2026-01-31 03:54:14,121374,-8201.000,-805.000,430.000,-2.000,15.000,9.000,0.000,0.000,0
2026-01-31 03:54:14,121414,-8200.000,-809.000,430.000,1.000,-9.000,12.000,0.000,0.000,0
2026-01-31 03:54:14,121454,-8201.000,-804.000,431.000,-5.000,20.000,7.000,0.000,0.000,0
2026-01-31 03:54:14,121497,-8201.000,-810.000,426.000,-6.000,-6.000,9.000,0.000,0.000,0
2026-01-31 03:54:14,121537,-8192.000,-810.000,432.000,-7.000,23.000,5.000,0.000,0.000,0
2026-01-31 03:54:14,121574,-8206.000,-803.000,430.000,-9.000,16.000,4.000,0.000,0.000,0
2026-01-31 03:54:14,121617,-8198.000,-809.000,425.000,-9.000,14.000,6.000,0.000,0.000,0
2026-01-31 03:54:14,121654,-8205.000,-802.000,433.000,-10.000,17.000,4.000,0.000,0.000,0
2026-01-31 03:54:14,121694,-8200.000,-803.000,423.000,-5.000,4.000,9.000,0.000,0.000,0
2026-01-31 03:54:14,121734,-8197.000,-807.000,422.000,-5.000,12.000,7.000,0.000,0.000,0
2026-01-31 03:54:14,121774,-8199.000,-804.000,427.000,-1.000,4.000,7.000,0.000,0.000,0
2026-01-31 03:54:14,121814,-8201.000,-804.000,427.000,4.000,17.000,5.000,0.000,0.000,0
2026-01-31 03:54:14,121854,-8205.000,-805.000,431.000,4.000,8.000,8.000,0.000,0.000,0
2026-01-31 03:54:14,121894,-8193.000,-807.000,425.000,3.000,7.000,6.000,0.000,0.000,0
2026-01-31 03:54:14,121934,-8200.000,-810.000,429.000,3.000,9.000,3.000,0.000,0.000,0
2026-01-31 03:54:14,121974,-8199.000,-811.000,434.000,-1.000,11.000,8.000,0.000,0.000,0
2026-01-31 03:54:14,122014,-8201.000,-808.000,427.000,-4.000,4.000,8.000,0.000,0.000,0
2026-01-31 03:54:14,122054,-8199.000,-802.000,431.000,-5.000,3.000,11.000,0.000,0.000,0
2026-01-31 03:54:14,122094,-8201.000,-806.000,429.000,-9.000,5.000,10.000,0.000,0.000,0
2026-01-31 03:54:15,122134,-8200.000,-814.000,428.000,-9.000,3.000,6.000,0.000,0.000,0
2026-01-31 03:54:15,122174,-8197.000,-802.000,426.000,-4.000,11.000,9.000,0.000,0.000,0
2026-01-31 03:54:15,122214,-8196.000,-806.000,431.000,-1.000,10.000,8.000,0.000,0.000,0
2026-01-31 03:54:15,122254,-8198.000,-808.000,425.000,7.000,13.000,6.000,0.000,0.000,0
2026-01-31 03:54:15,122294,-8199.000,-806.000,425.000,10.000,10.000,6.000,0.000,0.000,0
2026-01-31 03:54:15,122334,-8205.000,-801.000,422.000,12.000,15.000,7.000,0.000,0.000,0
2026-01-31 03:54:15,122374,-8204.000,-803.000,425.000,10.000,6.000,8.000,0.000,0.000,0
2026-01-31 03:54:15,122414,-8206.000,-802.000,429.000,7.000,14.000,9.000,0.000,0.000,0
2026-01-31 03:54:15,122454,-8204.000,-807.000,436.000,1.000,5.000,10.000,0.000,0.000,0
2026-01-31 03:54:15,122494,-8204.000,-805.000,425.000,-6.000,6.000,11.000,0.000,0.000,0
2026-01-31 03:54:15,122534,-8197.000,-808.000,433.000,-10.000,7.000,6.000,0.000,0.000,0
2026-01-31 03:54:15,122574,-8199.000,-805.000,423.000,-15.000,8.000,3.000,0.000,0.000,0
2026-01-31 03:54:15,122614,-8198.000,-810.000,425.000,-14.000,4.000,9.000,0.000,0.000,0
2026-01-31 03:54:15,122654,-8200.000,-805.000,428.000,-8.000,4.000,6.000,0.000,0.000,0
2026-01-31 03:54:15,122694,-8198.000,-803.000,428.000,-8.000,13.000,5.000,0.000,0.000,0
2026-01-31 03:54:15,122734,-8199.000,-807.000,422.000,0.000,3.000,7.000,0.000,0.000,0
2026-01-31 03:54:15,122774,-8201.000,-809.000,430.000,6.000,13.000,5.000,0.000,0.000,0
2026-01-31 03:54:15,122814,-8204.000,-812.000,427.000,7.000,8.000,5.000,0.000,0.000,0
2026-01-31 03:54:15,122854,-8198.000,-806.000,426.000,6.000,11.000,5.000,0.000,0.000,0
2026-01-31 03:54:15,122894,-8198.000,-798.000,427.000,6.000,9.000,8.000,0.000,0.000,0
2026-01-31 03:54:15,122934,-8196.000,-812.000,425.000,0.000,11.000,8.000,0.000,0.000,0
2026-01-31 03:54:15,122974,-8199.000,-806.000,431.000,-5.000,7.000,10.000,0.000,0.000,0
2026-01-31 03:54:15,123014,-8200.000,-803.000,422.000,-15.000,0.000,9.000,0.000,0.000,0
2026-01-31 03:54:15,123054,-8205.000,-807.000,428.000,-21.000,8.000,7.000,0.000,0.000,0
2026-01-31 03:54:15,123094,-8201.000,-805.000,424.000,-18.000,2.000,8.000,0.000,0.000,0
2026-01-31 03:54:16,123134,-8193.000,-807.000,423.000,-17.000,7.000,8.000,0.000,0.000,0
2026-01-31 03:54:16,123174,-8196.000,-806.000,430.000,-9.000,2.000,9.000,0.000,0.000,0
2026-01-31 03:54:16,123214,-8201.000,-808.000,426.000,-1.000,8.000,10.000,0.000,0.000,0
2026-01-31 03:54:16,123254,-8203.000,-810.000,430.000,6.000,16.000,8.000,0.000,0.000,0
2026-01-31 03:54:16,123294,-8200.000,-809.000,431.000,12.000,4.000,8.000,0.000,0.000,0
2026-01-31 03:54:16,123334,-8204.000,-806.000,433.000,10.000,17.000,9.000,0.000,0.000,0
2026-01-31 03:54:16,123374,-8197.000,-811.000,427.000,3.000,4.000,7.000,0.000,0.000,0
2026-01-31 03:54:16,123414,-8203.000,-803.000,428.000,-8.000,7.000,7.000,0.000,0.000,0
2026-01-31 03:54:16,123454,-8196.000,-798.000,439.000,-14.000,4.000,7.000,0.000,0.000,0
2026-01-31 03:54:16,123497,-8198.000,-811.000,426.000,-24.000,9.000,3.000,0.000,0.000,0
2026-01-31 03:54:16,123536,-8204.000,-807.000,430.000,-21.000,2.000,6.000,0.000,0.000,0
2026-01-31 03:54:16,123574,-8207.000,-810.000,421.000,-18.000,4.000,6.000,0.000,0.000,0
2026-01-31 03:54:16,123617,-8198.000,-806.000,427.000,-7.000,9.000,7.000,0.000,0.000,0
2026-01-31 03:54:16,123654,-8200.000,-801.000,427.000,-3.000,8.000,7.000,0.000,0.000,0
2026-01-31 03:54:16,123694,-8202.000,-810.000,428.000,7.000,12.000,9.000,0.000,0.000,0
2026-01-31 03:54:16,123734,-8201.000,-807.000,427.000,10.000,8.000,8.000,0.000,0.000,0
2026-01-31 03:54:16,123774,-8204.000,-811.000,427.000,6.000,17.000,4.000,0.000,0.000,0
2026-01-31 03:54:16,123814,-8194.000,-809.000,432.000,2.000,6.000,6.000,0.000,0.000,0
2026-01-31 03:54:16,123854,-8201.000,-810.000,434.000,-7.000,9.000,8.000,0.000,0.000,0
2026-01-31 03:54:16,123894,-8201.000,-803.000,429.000,-10.000,4.000,7.000,0.000,0.000,0
2026-01-31 03:54:16,123934,-8197.000,-815.000,424.000,-17.000,7.000,8.000,0.000,0.000,0
2026-01-31 03:54:16,123974,-8198.000,-806.000,431.000,-15.000,4.000,8.000,0.000,0.000,0
2026-01-31 03:54:16,124014,-8200.000,-812.000,427.000,-12.000,2.000,7.000,0.000,0.000,0
2026-01-31 03:54:16,124054,-8198.000,-808.000,426.000,-4.000,8.000,10.000,0.000,0.000,0
2026-01-31 03:54:16,124094,-8200.000,-804.000,432.000,6.000,6.000,8.000,0.000,0.000,0
2026-01-31 03:54:17,124134,-8194.000,-810.000,425.000,8.000,11.000,6.000,0.000,0.000,0
2026-01-31 03:54:17,124174,-8199.000,-810.000,428.000,10.000,9.000,7.000,0.000,0.000,0
2026-01-31 03:54:17,124214,-8209.000,-809.000,432.000,11.000,9.000,8.000,0.000,0.000,0
2026-01-31 03:54:17,124254,-8204.000,-806.000,430.000,2.000,13.000,9.000,0.000,0.000,0
2026-01-31 03:54:17,124294,-8197.000,-812.000,437.000,-1.000,8.000,9.000,0.000,0.000,0
2026-01-31 03:54:17,124334,-8195.000,-810.000,425.000,-10.000,6.000,7.000,0.000,0.000,0
2026-01-31 03:54:17,124374,-8204.000,-805.000,432.000,-17.000,13.000,6.000,0.000,0.000,0
2026-01-31 03:54:17,124414,-8202.000,-807.000,426.000,-18.000,-5.000,7.000,0.000,0.000,0
2026-01-31 03:54:17,124454,-8199.000,-813.000,424.000,-16.000,14.000,9.000,0.000,0.000,0
2026-01-31 03:54:17,124494,-8197.000,-815.000,431.000,-5.000,-2.000,7.000,0.000,0.000,0
2026-01-31 03:54:17,124534,-8198.000,-808.000,435.000,-3.000,14.000,6.000,0.000,0.000,0
2026-01-31 03:54:17,124574,-8199.000,-804.000,427.000,6.000,9.000,6.000,0.000,0.000,0
2026-01-31 03:54:17,124614,-8200.000,-812.000,428.000,10.000,11.000,5.000,0.000,0.000,0
2026-01-31 03:54:17,124654,-8200.000,-808.000,434.000,7.000,12.000,5.000,0.000,0.000,0
2026-01-31 03:54:17,124694,-8191.000,-808.000,425.000,5.000,8.000,8.000,0.000,0.000,0
2026-01-31 03:54:17,124734,-8202.000,-806.000,434.000,0.000,10.000,6.000,0.000,0.000,0
2026-01-31 03:54:17,124774,-8198.000,-811.000,420.000,-4.000,4.000,9.000,0.000,0.000,0
2026-01-31 03:54:17,124814,-8203.000,-809.000,424.000,-8.000,9.000,7.000,0.000,0.000,0
2026-01-31 03:54:17,124854,-8199.000,-812.000,423.000,-9.000,7.000,9.000,0.000,0.000,0
2026-01-31 03:54:17,124894,-8199.000,-810.000,429.000,-11.000,7.000,7.000,0.000,0.000,0
2026-01-31 03:54:17,124934,-8202.000,-813.000,422.000,-7.000,3.000,7.000,0.000,0.000,0
2026-01-31 03:54:17,124974,-8200.000,-810.000,434.000,-2.000,15.000,6.000,0.000,0.000,0
2026-01-31 03:54:17,125014,-8200.000,-816.000,428.000,4.000,0.000,8.000,0.000,0.000,0
2026-01-31 03:54:17,125054,-8199.000,-811.000,430.000,3.000,17.000,5.000,0.000,0.000,0
2026-01-31 03:54:17,125094,-8202.000,-816.000,435.000,4.000,4.000,5.000,0.000,0.000,0
2026-01-31 03:54:18,125134,-8197.000,-804.000,429.000,0.000,10.000,3.000,0.000,0.000,0
2026-01-31 03:54:18,125174,-8200.000,-810.000,429.000,0.000,13.000,4.000,0.000,0.000,0
2026-01-31 03:54:18,125214,-8198.000,-811.000,430.000,-2.000,9.000,3.000,0.000,0.000,0
2026-01-31 03:54:18,125254,-8202.000,-813.000,432.000,-3.000,9.000,5.000,0.000,0.000,0
2026-01-31 03:54:18,125294,-8205.000,-816.000,427.000,-8.000,5.000,5.000,0.000,0.000,0
2026-01-31 03:54:18,125334,-8200.000,-813.000,428.000,-11.000,12.000,5.000,0.000,0.000,0
2026-01-31 03:54:18,125374,-8203.000,-812.000,429.000,-10.000,-2.000,6.000,0.000,0.000,0
2026-01-31 03:54:18,125414,-8201.000,-817.000,429.000,-10.000,10.000,7.000,0.000,0.000,0
2026-01-31 03:54:18,125454,-8200.000,-815.000,425.000,-5.000,4.000,6.000,0.000,0.000,0
2026-01-31 03:54:18,125496,-8204.000,-814.000,421.000,-2.000,7.000,7.000,0.000,0.000,0
2026-01-31 03:54:18,125538,-8195.000,-804.000,418.000,4.000,11.000,7.000,0.000,0.000,0
2026-01-31 03:54:18,125574,-8200.000,-812.000,425.000,6.000,13.000,8.000,0.000,0.000,0
2026-01-31 03:54:18,125614,-8199.000,-814.000,422.000,4.000,9.000,7.000,0.000,0.000,0
2026-01-31 03:54:18,125654,-8200.000,-813.000,428.000,2.000,12.000,6.000,0.000,0.000,0
2026-01-31 03:54:18,125694,-8204.000,-815.000,430.000,1.000,9.000,8.000,0.000,0.000,0
2026-01-31 03:54:18,125734,-8203.000,-815.000,431.000,-3.000,5.000,5.000,0.000,0.000,0
2026-01-31 03:54:18,125774,-8203.000,-813.000,419.000,-10.000,7.000,6.000,0.000,0.000,0
2026-01-31 03:54:18,125814,-8201.000,-814.000,421.000,-13.000,9.000,3.000,0.000,0.000,0
2026-01-31 03:54:18,125854,-8197.000,-811.000,426.000,-13.000,6.000,6.000,0.000,0.000,0
2026-01-31 03:54:18,125894,-8200.000,-815.000,421.000,-9.000,8.000,6.000,0.000,0.000,0
2026-01-31 03:54:18,125934,-8201.000,-815.000,425.000,-4.000,7.000,6.000,0.000,0.000,0
2026-01-31 03:54:18,125974,-8197.000,-816.000,428.000,8.000,15.000,6.000,0.000,0.000,0
2026-01-31 03:54:18,126014,-8201.000,-815.000,426.000,8.000,6.000,2.000,0.000,0.000,0
2026-01-31 03:54:18,126054,-8200.000,-813.000,426.000,6.000,14.000,5.000,0.000,0.000,0
2026-01-31 03:54:18,126094,-8197.000,-814.000,425.000,6.000,10.000,7.000,0.000,0.000,0
2026-01-31 03:54:19,126134,-8199.000,-808.000,427.000,0.000,9.000,8.000,0.000,0.000,0
2026-01-31 03:54:19,126174,-8196.000,-814.000,428.000,-7.000,5.000,8.000,0.000,0.000,0
2026-01-31 03:54:19,126214,-8201.000,-814.000,431.000,-16.000,5.000,10.000,0.000,0.000,0
2026-01-31 03:54:19,126254,-8198.000,-817.000,424.000,-23.000,3.000,8.000,0.000,0.000,0
2026-01-31 03:54:19,126294,-8201.000,-816.000,428.000,-21.000,5.000,9.000,0.000,0.000,0
2026-01-31 03:54:19,126334,-8201.000,-818.000,427.000,-22.000,7.000,6.000,0.000,0.000,0
2026-01-31 03:54:19,126374,-8199.000,-814.000,418.000,-3.000,9.000,10.000,0.000,0.000,0
2026-01-31 03:54:19,126414,-8199.000,-812.000,424.000,8.000,10.000,6.000,0.000,0.000,0
2026-01-31 03:54:19,126454,-8201.000,-814.000,425.000,17.000,12.000,5.000,0.000,0.000,0
2026-01-31 03:54:19,126494,-8196.000,-816.000,425.000,20.000,20.000,7.000,0.000,0.000,0
2026-01-31 03:54:19,126534,-8197.000,-814.000,428.000,22.000,10.000,6.000,0.000,0.000,0
2026-01-31 03:54:19,126574,-8205.000,-816.000,425.000,13.000,16.000,7.000,0.000,0.000,0
2026-01-31 03:54:19,126614,-8200.000,-815.000,432.000,3.000,7.000,7.000,0.000,0.000,0
2026-01-31 03:54:19,126654,-8203.000,-814.000,425.000,-5.000,4.000,9.000,0.000,0.000,0
2026-01-31 03:54:19,126694,-8201.000,-816.000,426.000,-13.000,13.000,8.000,0.000,0.000,0
2026-01-31 03:54:19,126734,-8197.000,-811.000,417.000,-18.000,2.000,6.000,0.000,0.000,0
2026-01-31 03:54:19,126774,-8200.000,-813.000,424.000,-19.000,10.000,5.000,0.000,0.000,0
2026-01-31 03:54:19,126814,-8200.000,-819.000,422.000,-16.000,4.000,7.000,0.000,0.000,0
2026-01-31 03:54:19,126854,-8199.000,-820.000,427.000,-12.000,11.000,7.000,0.000,0.000,0
2026-01-31 03:54:19,126894,-8195.000,-819.000,423.000,-5.000,6.000,7.000,0.000,0.000,0
2026-01-31 03:54:19,126934,-8202.000,-818.000,432.000,0.000,12.000,6.000,0.000,0.000,0
2026-01-31 03:54:19,126974,-8200.000,-814.000,424.000,1.000,10.000,5.000,0.000,0.000,0
2026-01-31 03:54:19,127014,-8192.000,-814.000,426.000,5.000,8.000,8.000,0.000,0.000,0
2026-01-31 03:54:19,127054,-8194.000,-817.000,423.000,10.000,13.000,7.000,0.000,0.000,0
2026-01-31 03:54:19,127094,-8201.000,-810.000,425.000,9.000,11.000,6.000,0.000,0.000,0
2026-01-31 03:54:20,127134,-8200.000,-820.000,431.000,2.000,7.000,6.000,0.000,0.000,0
2026-01-31 03:54:20,127174,-8197.000,-809.000,425.000,0.000,7.000,7.000,0.000,0.000,0
2026-01-31 03:54:20,127214,-8203.000,-817.000,427.000,-6.000,11.000,7.000,0.000,0.000,0
2026-01-31 03:54:20,127254,-8202.000,-816.000,426.000,-8.000,6.000,5.000,0.000,0.000,0
2026-01-31 03:54:20,127294,-8201.000,-814.000,422.000,-8.000,5.000,6.000,0.000,0.000,0
2026-01-31 03:54:20,127334,-8203.000,-817.000,429.000,-7.000,19.000,8.000,0.000,0.000,0
2026-01-31 03:54:20,127374,-8201.000,-816.000,422.000,0.000,0.000,8.000,0.000,0.000,0
2026-01-31 03:54:20,127414,-8202.000,-816.000,421.000,1.000,16.000,8.000,0.000,0.000,0
2026-01-31 03:54:20,127454,-8201.000,-817.000,430.000,5.000,1.000,10.000,0.000,0.000,0
2026-01-31 03:54:20,127494,-8205.000,-816.000,430.000,3.000,28.000,8.000,0.000,0.000,0
2026-01-31 03:54:20,127535,-8194.000,-816.000,428.000,7.000,-10.000,9.000,0.000,0.000,0
2026-01-31 03:54:20,127574,-8196.000,-817.000,430.000,-8.000,27.000,7.000,0.000,0.000,0
2026-01-31 03:54:20,127614,-8200.000,-813.000,428.000,-5.000,-7.000,11.000,0.000,0.000,0
2026-01-31 03:54:20,127654,-8192.000,-818.000,409.000,-10.000,10.000,8.000,0.000,0.000,0
2026-01-31 03:54:20,127694,-8204.000,-817.000,434.000,-8.000,17.000,9.000,0.000,0.000,0
2026-01-31 03:54:20,127734,-8200.000,-818.000,411.000,-6.000,-17.000,8.000,0.000,0.000,0
2026-01-31 03:54:20,127774,-8198.000,-810.000,428.000,-8.000,37.000,9.000,0.000,0.000,0
2026-01-31 03:54:20,127814,-8194.000,-815.000,419.000,3.000,-16.000,8.000,0.000,0.000,0
2026-01-31 03:54:20,127854,-8195.000,-815.000,423.000,-1.000,26.000,6.000,0.000,0.000,0
2026-01-31 03:54:20,127894,-8200.000,-818.000,419.000,6.000,-9.000,9.000,0.000,0.000,0
2026-01-31 03:54:20,127934,-8199.000,-816.000,427.000,-4.000,23.000,5.000,0.000,0.000,0
2026-01-31 03:54:20,127974,-8198.000,-815.000,423.000,-4.000,-7.000,8.000,0.000,0.000,0
2026-01-31 03:54:20,128014,-8196.000,-814.000,421.000,-4.000,15.000,8.000,0.000,0.000,0
2026-01-31 03:54:20,128054,-8198.000,-819.000,426.000,-5.000,6.000,6.000,0.000,0.000,0
2026-01-31 03:54:20,128094,-8202.000,-816.000,425.000,-6.000,5.000,9.000,0.000,0.000,0
2026-01-31 03:54:21,128134,-8205.000,-816.000,430.000,-8.000,4.000,6.000,0.000,0.000,0
2026-01-31 03:54:21,128174,-8200.000,-816.000,420.000,-8.000,10.000,5.000,0.000,0.000,0
2026-01-31 03:54:21,128214,-8200.000,-817.000,429.000,-7.000,10.000,6.000,0.000,0.000,0
2026-01-31 03:54:21,128254,-8198.000,-811.000,419.000,-2.000,4.000,9.000,0.000,0.000,0
2026-01-31 03:54:21,128294,-8195.000,-819.000,421.000,3.000,6.000,10.000,0.000,0.000,0
2026-01-31 03:54:21,128334,-8199.000,-817.000,429.000,2.000,11.000,9.000,0.000,0.000,0
2026-01-31 03:54:21,128374,-8198.000,-813.000,424.000,2.000,2.000,10.000,0.000,0.000,0
2026-01-31 03:54:21,128414,-8198.000,-820.000,426.000,-2.000,9.000,10.000,0.000,0.000,0
2026-01-31 03:54:21,128454,-8201.000,-814.000,426.000,-5.000,10.000,10.000,0.000,0.000,0
2026-01-31 03:54:21,128494,-8201.000,-815.000,422.000,-4.000,0.000,11.000,0.000,0.000,0
2026-01-31 03:54:21,128534,-8200.000,-820.000,427.000,-7.000,8.000,10.000,0.000,0.000,0
2026-01-31 03:54:21,128574,-8204.000,-821.000,423.000,-3.000,2.000,12.000,0.000,0.000,0
2026-01-31 03:54:21,128614,-8199.000,-823.000,425.000,-2.000,11.000,11.000,0.000,0.000,0
2026-01-31 03:54:21,128654,-8201.000,-816.000,415.000,1.000,2.000,9.000,0.000,0.000,0
2026-01-31 03:54:21,128694,-8199.000,-816.000,431.000,-4.000,12.000,6.000,0.000,0.000,0
2026-01-31 03:54:21,128734,-8200.000,-816.000,423.000,-1.000,5.000,9.000,0.000,0.000,0
2026-01-31 03:54:21,128774,-8198.000,-816.000,422.000,-4.000,9.000,6.000,0.000,0.000,0
2026-01-31 03:54:21,128814,-8203.000,-811.000,423.000,-4.000,6.000,9.000,0.000,0.000,0
2026-01-31 03:54:21,128854,-8199.000,-817.000,421.000,-5.000,8.000,7.000,0.000,0.000,0
2026-01-31 03:54:21,128894,-8197.000,-814.000,422.000,-6.000,5.000,9.000,0.000,0.000,0
2026-01-31 03:54:21,128934,-8199.000,-818.000,420.000,-9.000,3.000,9.000,0.000,0.000,0
2026-01-31 03:54:21,128974,-8194.000,-818.000,424.000,-9.000,7.000,8.000,0.000,0.000,0
2026-01-31 03:54:21,129014,-8198.000,-818.000,422.000,-4.000,7.000,9.000,0.000,0.000,0
2026-01-31 03:54:21,129054,-8203.000,-822.000,426.000,-6.000,5.000,8.000,0.000,0.000,0
2026-01-31 03:54:21,129094,-8200.000,-818.000,421.000,-7.000,9.000,8.000,0.000,0.000,0
2026-01-31 03:54:22,129134,-8203.000,-812.000,422.000,-10.000,7.000,11.000,0.000,0.000,0
2026-01-31 03:54:22,129174,-8206.000,-818.000,422.000,-13.000,3.000,6.000,0.000,0.000,0
2026-01-31 03:54:22,129214,-8202.000,-822.000,420.000,-9.000,5.000,9.000,0.000,0.000,0
2026-01-31 03:54:22,129254,-8202.000,-816.000,427.000,-8.000,8.000,10.000,0.000,0.000,0
2026-01-31 03:54:22,129294,-8205.000,-816.000,428.000,-3.000,7.000,8.000,0.000,0.000,0
2026-01-31 03:54:22,129334,-8195.000,-813.000,419.000,-9.000,8.000,6.000,0.000,0.000,0
2026-01-31 03:54:22,129374,-8198.000,-813.000,419.000,-6.000,2.000,6.000,0.000,0.000,0
2026-01-31 03:54:22,129414,-8201.000,-812.000,425.000,-2.000,12.000,5.000,0.000,0.000,0
2026-01-31 03:54:22,129454,-8201.000,-818.000,420.000,2.000,5.000,8.000,0.000,0.000,0
2026-01-31 03:54:22,129497,-8197.000,-813.000,428.000,0.000,17.000,7.000,0.000,0.000,0
2026-01-31 03:54:22,129537,-8195.000,-817.000,428.000,-2.000,7.000,9.000,0.000,0.000,0
2026-01-31 03:54:22,129574,-8204.000,-815.000,426.000,-4.000,7.000,7.000,0.000,0.000,0
2026-01-31 03:54:22,129617,-8194.000,-818.000,424.000,-11.000,5.000,7.000,0.000,0.000,0
2026-01-31 03:54:22,129654,-8201.000,-816.000,431.000,-12.000,3.000,8.000,0.000,0.000,0
2026-01-31 03:54:22,129694,-8199.000,-816.000,418.000,-10.000,10.000,10.000,0.000,0.000,0
2026-01-31 03:54:22,129734,-8200.000,-818.000,421.000,-7.000,7.000,6.000,0.000,0.000,0
2026-01-31 03:54:22,129774,-8197.000,-817.000,426.000,-2.000,4.000,6.000,0.000,0.000,0
2026-01-31 03:54:22,129814,-8196.000,-819.000,426.000,3.000,13.000,6.000,0.000,0.000,0
2026-01-31 03:54:22,129854,-8197.000,-813.000,430.000,-1.000,7.000,8.000,0.000,0.000,0
2026-01-31 03:54:22,129894,-8202.000,-816.000,425.000,-7.000,6.000,8.000,0.000,0.000,0
2026-01-31 03:54:22,129934,-8202.000,-820.000,427.000,-11.000,9.000,7.000,0.000,0.000,0
2026-01-31 03:54:22,129974,-8196.000,-816.000,421.000,-5.000,5.000,8.000,0.000,0.000,0
2026-01-31 03:54:22,130014,-8200.000,-821.000,420.000,-6.000,9.000,6.000,0.000,0.000,0
2026-01-31 03:54:22,130054,-8203.000,-824.000,424.000,-4.000,8.000,8.000,0.000,0.000,0
2026-01-31 03:54:22,130094,-8195.000,-817.000,425.000,-4.000,9.000,8.000,0.000,0.000,0
2026-01-31 03:54:23,130134,-8198.000,-815.000,419.000,-3.000,9.000,8.000,0.000,0.000,0
2026-01-31 03:54:23,130174,-8197.000,-817.000,426.000,-4.000,9.000,7.000,0.000,0.000,0
2026-01-31 03:54:23,130214,-8197.000,-816.000,424.000,-7.000,9.000,6.000,0.000,0.000,0
2026-01-31 03:54:23,130254,-8200.000,-816.000,421.000,-4.000,9.000,8.000,0.000,0.000,0
2026-01-31 03:54:23,130294,-8198.000,-815.000,422.000,-5.000,8.000,8.000,0.000,0.000,0
2026-01-31 03:54:23,130334,-8204.000,-814.000,424.000,-4.000,2.000,8.000,0.000,0.000,0
2026-01-31 03:54:23,130374,-8202.000,-815.000,428.000,-8.000,15.000,9.000,0.000,0.000,0
2026-01-31 03:54:23,130414,-8200.000,-815.000,423.000,-5.000,-2.000,8.000,0.000,0.000,0
2026-01-31 03:54:23,130454,-8200.000,-822.000,421.000,-10.000,13.000,8.000,0.000,0.000,0
2026-01-31 03:54:23,130494,-8200.000,-818.000,430.000,-6.000,5.000,8.000,0.000,0.000,0
2026-01-31 03:54:23,130534,-8197.000,-817.000,423.000,-8.000,9.000,4.000,0.000,0.000,0
2026-01-31 03:54:23,130574,-8202.000,-816.000,425.000,-6.000,1.000,8.000,0.000,0.000,0
2026-01-31 03:54:23,130614,-8206.000,-820.000,421.000,-6.000,5.000,7.000,0.000,0.000,0
2026-01-31 03:54:23,130654,-8194.000,-817.000,429.000,-5.000,12.000,6.000,0.000,0.000,0
2026-01-31 03:54:23,130694,-8198.000,-816.000,425.000,-5.000,0.000,10.000,0.000,0.000,0
2026-01-31 03:54:23,130734,-8198.000,-817.000,427.000,-4.000,14.000,9.000,0.000,0.000,0
2026-01-31 03:54:23,130774,-8200.000,-819.000,425.000,-4.000,1.000,8.000,0.000,0.000,0
2026-01-31 03:54:23,130814,-8201.000,-819.000,428.000,-7.000,15.000,8.000,0.000,0.000,0
2026-01-31 03:54:23,130854,-8196.000,-817.000,431.000,-5.000,4.000,7.000,0.000,0.000,0
2026-01-31 03:54:23,130894,-8199.000,-821.000,421.000,-9.000,8.000,6.000,0.000,0.000,0
2026-01-31 03:54:23,130934,-8197.000,-822.000,429.000,-3.000,4.000,10.000,0.000,0.000,0
2026-01-31 03:54:23,130974,-8201.000,-822.000,420.000,-4.000,9.000,8.000,0.000,0.000,0
2026-01-31 03:54:23,131014,-8197.000,-815.000,423.000,-9.000,7.000,6.000,0.000,0.000,0
2026-01-31 03:54:23,131054,-8196.000,-811.000,430.000,-5.000,5.000,9.000,0.000,0.000,0
2026-01-31 03:54:23,131094,-8196.000,-820.000,428.000,-4.000,8.000,4.000,0.000,0.000,0
2026-01-31 03:54:24,131134,-8200.000,-814.000,423.000,-4.000,9.000,5.000,0.000,0.000,0
2026-01-31 03:54:24,131174,-8199.000,-819.000,424.000,-3.000,6.000,6.000,0.000,0.000,0
2026-01-31 03:54:24,131214,-8203.000,-822.000,428.000,-1.000,9.000,8.000,0.000,0.000,0
2026-01-31 03:54:24,131254,-8200.000,-820.000,426.000,-3.000,10.000,8.000,0.000,0.000,0
2026-01-31 03:54:24,131294,-8204.000,-821.000,422.000,-2.000,11.000,6.000,0.000,0.000,0
2026-01-31 03:54:24,131334,-8204.000,-821.000,422.000,-4.000,10.000,5.000,0.000,0.000,0
2026-01-31 03:54:24,131374,-8196.000,-816.000,434.000,-4.000,14.000,5.000,0.000,0.000,0
2026-01-31 03:54:24,131414,-8201.000,-823.000,416.000,-4.000,-5.000,6.000,0.000,0.000,0
2026-01-31 03:54:24,131454,-8201.000,-822.000,432.000,-3.000,18.000,9.000,0.000,0.000,0
2026-01-31 03:54:24,131494,-8196.000,-823.000,425.000,-3.000,-1.000,5.000,0.000,0.000,0
2026-01-31 03:54:24,131535,-8199.000,-818.000,420.000,-6.000,17.000,5.000,0.000,0.000,0
2026-01-31 03:54:24,131574,-8201.000,-817.000,423.000,-4.000,2.000,2.000,0.000,0.000,0
2026-01-31 03:54:24,131614,-8200.000,-823.000,426.000,-4.000,11.000,8.000,0.000,0.000,0
2026-01-31 03:54:24,131654,-8202.000,-816.000,429.000,-4.000,11.000,6.000,0.000,0.000,0
2026-01-31 03:54:24,131694,-8196.000,-816.000,425.000,-4.000,7.000,7.000,0.000,0.000,0
2026-01-31 03:54:24,131734,-8194.000,-824.000,425.000,-3.000,8.000,6.000,0.000,0.000,0
2026-01-31 03:54:24,131774,-8197.000,-821.000,429.000,-6.000,19.000,5.000,0.000,0.000,0
2026-01-31 03:54:24,131814,-8200.000,-811.000,423.000,-2.000,-13.000,8.000,0.000,0.000,0
2026-01-31 03:54:24,131854,-8198.000,-824.000,424.000,-7.000,29.000,3.000,0.000,0.000,0
2026-01-31 03:54:24,131894,-8201.000,-828.000,427.000,0.000,-5.000,9.000,0.000,0.000,0
2026-01-31 03:54:24,131934,-8202.000,-818.000,427.000,-5.000,15.000,5.000,0.000,0.000,0
2026-01-31 03:54:24,131974,-8200.000,-823.000,438.000,-3.000,6.000,8.000,0.000,0.000,0
2026-01-31 03:54:24,132014,-8196.000,-823.000,421.000,-6.000,2.000,9.000,0.000,0.000,0
2026-01-31 03:54:24,132054,-8193.000,-825.000,424.000,-8.000,19.000,5.000,0.000,0.000,0
2026-01-31 03:54:24,132094,-8201.000,-819.000,420.000,-12.000,12.000,8.000,0.000,0.000,0
2026-01-31 03:54:25,132134,-8198.000,-820.000,432.000,-5.000,10.000,9.000,0.000,0.000,0
2026-01-31 03:54:25,132174,-8197.000,-824.000,423.000,0.000,1.000,9.000,0.000,0.000,0
2026-01-31 03:54:25,132214,-8203.000,-818.000,427.000,-1.000,24.000,8.000,0.000,0.000,0
2026-01-31 03:54:25,132254,-8197.000,-818.000,428.000,9.000,-10.000,9.000,0.000,0.000,0
2026-01-31 03:54:25,132294,-8205.000,-822.000,430.000,2.000,30.000,8.000,0.000,0.000,0
2026-01-31 03:54:25,132334,-8198.000,-822.000,432.000,4.000,-2.000,9.000,0.000,0.000,0
2026-01-31 03:54:25,132374,-8196.000,-822.000,423.000,-8.000,11.000,8.000,0.000,0.000,0
2026-01-31 03:54:25,132414,-8197.000,-820.000,429.000,-11.000,9.000,7.000,0.000,0.000,0
2026-01-31 03:54:25,132454,-8200.000,-818.000,423.000,-10.000,11.000,7.000,0.000,0.000,0
2026-01-31 03:54:25,132494,-8201.000,-823.000,421.000,-7.000,4.000,8.000,0.000,0.000,0
2026-01-31 03:54:25,132534,-8203.000,-826.000,421.000,-1.000,6.000,7.000,0.000,0.000,0
2026-01-31 03:54:25,132574,-8196.000,-813.000,428.000,0.000,14.000,8.000,0.000,0.000,0
2026-01-31 03:54:25,132614,-8197.000,-823.000,424.000,-1.000,7.000,9.000,0.000,0.000,0
2026-01-31 03:54:25,132654,-8202.000,-820.000,423.000,-3.000,9.000,7.000,0.000,0.000,0
2026-01-31 03:54:25,132694,-8198.000,-822.000,429.000,-6.000,4.000,9.000,0.000,0.000,0
2026-01-31 03:54:25,132734,-8200.000,-818.000,431.000,-8.000,9.000,7.000,0.000,0.000,0
2026-01-31 03:54:25,132774,-8198.000,-819.000,429.000,-5.000,3.000,7.000,0.000,0.000,0
2026-01-31 03:54:25,132814,-8201.000,-821.000,428.000,-5.000,2.000,6.000,0.000,0.000,0
2026-01-31 03:54:25,132854,-8194.000,-820.000,434.000,-1.000,3.000,8.000,0.000,0.000,0
2026-01-31 03:54:25,132894,-8196.000,-816.000,418.000,0.000,4.000,7.000,0.000,0.000,0
2026-01-31 03:54:25,132934,-8198.000,-822.000,426.000,-3.000,18.000,11.000,0.000,0.000,0
2026-01-31 03:54:25,132974,-8200.000,-823.000,421.000,1.000,-8.000,7.000,0.000,0.000,0
2026-01-31 03:54:25,133014,-8197.000,-819.000,425.000,-9.000,24.000,4.000,0.000,0.000,0
2026-01-31 03:54:25,133054,-8197.000,-818.000,424.000,-2.000,-6.000,10.000,0.000,0.000,0
2026-01-31 03:54:25,133094,-8197.000,-821.000,420.000,-6.000,17.000,6.000,0.000,0.000,0
2026-01-31 03:54:26,133134,-8204.000,-823.000,432.000,-2.000,5.000,7.000,0.000,0.000,0
2026-01-31 03:54:26,133174,-8198.000,-817.000,421.000,0.000,3.000,9.000,0.000,0.000,0
2026-01-31 03:54:26,133214,-8197.000,-819.000,426.000,-4.000,-3.000,10.000,0.000,0.000,0
2026-01-31 03:54:26,133254,-8191.000,-822.000,425.000,-2.000,9.000,8.000,0.000,0.000,0
2026-01-31 03:54:26,133294,-8202.000,-816.000,431.000,-6.000,13.000,6.000,0.000,0.000,0
2026-01-31 03:54:26,133334,-8205.000,-815.000,423.000,1.000,-8.000,10.000,0.000,0.000,0
2026-01-31 03:54:26,133374,-8199.000,-817.000,431.000,-1.000,24.000,11.000,0.000,0.000,0
2026-01-31 03:54:26,133414,-8195.000,-821.000,422.000,2.000,-12.000,9.000,0.000,0.000,0
2026-01-31 03:54:26,133454,-8199.000,-817.000,426.000,-1.000,18.000,7.000,0.000,0.000,0
2026-01-31 03:54:26,133497,-8193.000,-818.000,425.000,-1.000,-6.000,9.000,0.000,0.000,0
2026-01-31 03:54:26,133536,-8199.000,-818.000,420.000,-3.000,20.000,10.000,0.000,0.000,0
2026-01-31 03:54:26,133574,-8203.000,-818.000,430.000,-1.000,16.000,10.000,0.000,0.000,0
2026-01-31 03:54:26,133617,-8199.000,-814.000,430.000,-2.000,16.000,9.000,0.000,0.000,0
2026-01-31 03:54:26,133654,-8199.000,-822.000,425.000,-1.000,8.000,8.000,0.000,0.000,0
2026-01-31 03:54:26,133694,-8200.000,-822.000,421.000,-2.000,7.000,8.000,0.000,0.000,0
2026-01-31 03:54:26,133734,-8202.000,-822.000,422.000,-6.000,9.000,8.000,0.000,0.000,0
2026-01-31 03:54:26,133774,-8203.000,-826.000,418.000,-4.000,2.000,8.000,0.000,0.000,0
2026-01-31 03:54:26,133814,-8197.000,-822.000,431.000,-6.000,14.000,11.000,0.000,0.000,0
2026-01-31 03:54:26,133854,-8200.000,-818.000,426.000,-2.000,2.000,8.000,0.000,0.000,0
2026-01-31 03:54:26,133894,-8197.000,-827.000,429.000,-6.000,14.000,8.000,0.000,0.000,0
2026-01-31 03:54:26,133934,-8199.000,-827.000,428.000,-2.000,4.000,8.000,0.000,0.000,0
2026-01-31 03:54:26,133974,-8194.000,-816.000,425.000,0.000,10.000,7.000,0.000,0.000,0
2026-01-31 03:54:26,134014,-8205.000,-823.000,419.000,-3.000,0.000,9.000,0.000,0.000,0
2026-01-31 03:54:26,134054,-8202.000,-823.000,428.000,-2.000,13.000,9.000,0.000,0.000,0
2026-01-31 03:54:26,134094,-8202.000,-822.000,425.000,-2.000,7.000,9.000,0.000,0.000,0
2026-01-31 03:54:27,134134,-8204.000,-815.000,433.000,0.000,3.000,8.000,0.000,0.000,0
2026-01-31 03:54:27,134174,-8198.000,-816.000,419.000,-1.000,7.000,8.000,0.000,0.000,0
2026-01-31 03:54:27,134214,-8197.000,-820.000,422.000,-1.000,6.000,10.000,0.000,0.000,0
2026-01-31 03:54:27,134254,-8196.000,-820.000,420.000,-2.000,6.000,10.000,0.000,0.000,0
2026-01-31 03:54:27,134294,-8202.000,-818.000,427.000,-3.000,7.000,9.000,0.000,0.000,0
2026-01-31 03:54:27,134334,-8198.000,-821.000,426.000,0.000,2.000,14.000,0.000,0.000,0
2026-01-31 03:54:27,134374,-8200.000,-820.000,418.000,-2.000,4.000,7.000,0.000,0.000,0
2026-01-31 03:54:27,134414,-8206.000,-822.000,420.000,-5.000,5.000,10.000,0.000,0.000,0
2026-01-31 03:54:27,134454,-8202.000,-820.000,421.000,0.000,7.000,10.000,0.000,0.000,0
2026-01-31 03:54:27,134494,-8203.000,-818.000,421.000,-1.000,6.000,13.000,0.000,0.000,0
2026-01-31 03:54:27,134534,-8198.000,-817.000,436.000,-1.000,4.000,10.000,0.000,0.000,0
2026-01-31 03:54:27,134574,-8200.000,-824.000,417.000,-4.000,6.000,11.000,0.000,0.000,0
2026-01-31 03:54:27,134614,-8202.000,-820.000,425.000,-7.000,4.000,12.000,0.000,0.000,0
2026-01-31 03:54:27,134654,-8197.000,-823.000,428.000,-7.000,4.000,11.000,0.000,0.000,0
2026-01-31 03:54:27,134694,-8194.000,-819.000,427.000,-5.000,9.000,10.000,0.000,0.000,0
2026-01-31 03:54:27,134734,-8200.000,-821.000,421.000,-1.000,-2.000,12.000,0.000,0.000,0
2026-01-31 03:54:27,134774,-8206.000,-822.000,425.000,6.000,3.000,13.000,0.000,0.000,0
2026-01-31 03:54:27,134814,-8195.000,-817.000,423.000,0.000,6.000,9.000,0.000,0.000,0
2026-01-31 03:54:27,134854,-8200.000,-821.000,429.000,-2.000,12.000,12.000,0.000,0.000,0
2026-01-31 03:54:27,134894,-8201.000,-814.000,417.000,-3.000,-2.000,12.000,0.000,0.000,0
2026-01-31 03:54:27,134934,-8204.000,-821.000,419.000,-9.000,18.000,9.000,0.000,0.000,0
2026-01-31 03:54:27,134974,-8201.000,-816.000,422.000,-5.000,-8.000,12.000,0.000,0.000,0
2026-01-31 03:54:27,135014,-8198.000,-822.000,427.000,-9.000,16.000,11.000,0.000,0.000,0
2026-01-31 03:54:27,135054,-8196.000,-818.000,423.000,-2.000,-1.000,11.000,0.000,0.000,0
2026-01-31 03:54:27,135094,-8197.000,-823.000,423.000,-2.000,10.000,11.000,0.000,0.000,0
2026-01-31 03:54:28,135134,-8201.000,-825.000,425.000,0.000,-1.000,9.000,0.000,0.000,0
2026-01-31 03:54:28,135174,-8203.000,-820.000,422.000,-6.000,15.000,5.000,0.000,0.000,0
2026-01-31 03:54:28,135214,-8202.000,-822.000,426.000,0.000,2.000,9.000,0.000,0.000,0
2026-01-31 03:54:28,135254,-8202.000,-818.000,420.000,-3.000,12.000,8.000,0.000,0.000,0
2026-01-31 03:54:28,135294,-8203.000,-824.000,421.000,-4.000,10.000,8.000,0.000,0.000,0
2026-01-31 03:54:28,135334,-8206.000,-816.000,425.000,-5.000,5.000,8.000,0.000,0.000,0
2026-01-31 03:54:28,135374,-8198.000,-818.000,425.000,-6.000,10.000,5.000,0.000,0.000,0
2026-01-31 03:54:28,135414,-8194.000,-817.000,426.000,-6.000,0.000,9.000,0.000,0.000,0
2026-01-31 03:54:28,135454,-8201.000,-812.000,422.000,-6.000,12.000,10.000,0.000,0.000,0
2026-01-31 03:54:28,135494,-8192.000,-820.000,419.000,-3.000,2.000,10.000,0.000,0.000,0
2026-01-31 03:54:28,135534,-8195.000,-818.000,420.000,-4.000,13.000,8.000,0.000,0.000,0
2026-01-31 03:54:28,135574,-8201.000,-822.000,417.000,-1.000,7.000,5.000,0.000,0.000,0
2026-01-31 03:54:28,135617,-8203.000,-815.000,432.000,-2.000,13.000,8.000,0.000,0.000,0
2026-01-31 03:54:28,135654,-8202.000,-817.000,424.000,-2.000,5.000,7.000,0.000,0.000,0
2026-01-31 03:54:28,135694,-8196.000,-823.000,424.000,-5.000,11.000,10.000,0.000,0.000,0
2026-01-31 03:54:28,135734,-8204.000,-819.000,427.000,-8.000,5.000,10.000,0.000,0.000,0
2026-01-31 03:54:28,135774,-8194.000,-819.000,418.000,-7.000,6.000,11.000,0.000,0.000,0
2026-01-31 03:54:28,135814,-8198.000,-820.000,424.000,-7.000,6.000,10.000,0.000,0.000,0
2026-01-31 03:54:28,135854,-8194.000,-821.000,421.000,-6.000,4.000,10.000,0.000,0.000,0
2026-01-31 03:54:28,135894,-8205.000,-823.000,425.000,-2.000,9.000,8.000,0.000,0.000,0
2026-01-31 03:54:28,135934,-8192.000,-822.000,414.000,-4.000,3.000,7.000,0.000,0.000,0
2026-01-31 03:54:28,135974,-8194.000,-821.000,426.000,-5.000,10.000,6.000,0.000,0.000,0
2026-01-31 03:54:28,136014,-8196.000,-819.000,426.000,-4.000,7.000,7.000,0.000,0.000,0
2026-01-31 03:54:28,136054,-8198.000,-821.000,429.000,-4.000,11.000,7.000,0.000,0.000,0
2026-01-31 03:54:28,136094,-8199.000,-819.000,430.000,-3.000,2.000,10.000,0.000,0.000,0
2026-01-31 03:54:29,136134,-8204.000,-820.000,426.000,-4.000,11.000,9.000,0.000,0.000,0
2026-01-31 03:54:29,136174,-8204.000,-821.000,425.000,-2.000,6.000,7.000,0.000,0.000,0
2026-01-31 03:54:29,136214,-8198.000,-821.000,420.000,-7.000,9.000,7.000,0.000,0.000,0
2026-01-31 03:54:29,136254,-8200.000,-825.000,424.000,-6.000,9.000,8.000,0.000,0.000,0
2026-01-31 03:54:29,136294,-8196.000,-816.000,425.000,-4.000,12.000,7.000,0.000,0.000,0
2026-01-31 03:54:29,136334,-8199.000,-816.000,425.000,-4.000,6.000,7.000,0.000,0.000,0
2026-01-31 03:54:29,136374,-8196.000,-819.000,424.000,-3.000,7.000,9.000,0.000,0.000,0
2026-01-31 03:54:29,136414,-8200.000,-825.000,428.000,-3.000,8.000,12.000,0.000,0.000,0
2026-01-31 03:54:29,136454,-8200.000,-819.000,416.000,-1.000,6.000,8.000,0.000,0.000,0
2026-01-31 03:54:29,136494,-8203.000,-818.000,424.000,-7.000,10.000,9.000,0.000,0.000,0
2026-01-31 03:54:29,136534,-8200.000,-818.000,422.000,-5.000,3.000,10.000,0.000,0.000,0
2026-01-31 03:54:29,136574,-8200.000,-824.000,426.000,-7.000,8.000,8.000,0.000,0.000,0
2026-01-31 03:54:29,136614,-8201.000,-818.000,422.000,-8.000,4.000,6.000,0.000,0.000,0
2026-01-31 03:54:29,136654,-8202.000,-820.000,425.000,-5.000,7.000,7.000,0.000,0.000,0
2026-01-31 03:54:29,136694,-8197.000,-816.000,428.000,-3.000,8.000,8.000,0.000,0.000,0
2026-01-31 03:54:29,136734,-8197.000,-827.000,431.000,-1.000,8.000,9.000,0.000,0.000,0
2026-01-31 03:54:29,136774,-8200.000,-815.000,430.000,-2.000,7.000,9.000,0.000,0.000,0
2026-01-31 03:54:29,136814,-8199.000,-819.000,419.000,-4.000,13.000,8.000,0.000,0.000,0
2026-01-31 03:54:29,136854,-8201.000,-818.000,426.000,-2.000,6.000,9.000,0.000,0.000,0
2026-01-31 03:54:29,136894,-8194.000,-820.000,430.000,-6.000,10.000,6.000,0.000,0.000,0
2026-01-31 03:54:29,136934,-8201.000,-819.000,422.000,-4.000,5.000,6.000,0.000,0.000,0
2026-01-31 03:54:29,136974,-8196.000,-824.000,423.000,-3.000,10.000,5.000,0.000,0.000,0
2026-01-31 03:54:29,137014,-8194.000,-824.000,428.000,-2.000,9.000,8.000,0.000,0.000,0
2026-01-31 03:54:29,137054,-8199.000,-828.000,423.000,-3.000,9.000,8.000,0.000,0.000,0
2026-01-31 03:54:29,137094,-8197.000,-820.000,423.000,-3.000,8.000,8.000,0.000,0.000,0
2026-01-31 03:54:30,137134,-8201.000,-818.000,427.000,-5.000,8.000,8.000,0.000,0.000,0
2026-01-31 03:54:30,137174,-8193.000,-823.000,427.000,-3.000,12.000,7.000,0.000,0.000,0
2026-01-31 03:54:30,137214,-8195.000,-822.000,417.000,-4.000,6.000,6.000,0.000,0.000,0
2026-01-31 03:54:30,137254,-8200.000,-821.000,430.000,-5.000,8.000,8.000,0.000,0.000,0
2026-01-31 03:54:30,137294,-8203.000,-822.000,420.000,-7.000,7.000,7.000,0.000,0.000,0
2026-01-31 03:54:30,137334,-8202.000,-819.000,421.000,-2.000,8.000,11.000,0.000,0.000,0
2026-01-31 03:54:30,137374,-8203.000,-819.000,421.000,-1.000,5.000,10.000,0.000,0.000,0
2026-01-31 03:54:30,137414,-8194.000,-824.000,424.000,-2.000,6.000,10.000,0.000,0.000,0
2026-01-31 03:54:30,137454,-8194.000,-817.000,418.000,-1.000,5.000,10.000,0.000,0.000,0
2026-01-31 03:54:30,137497,-8202.000,-818.000,425.000,-7.000,7.000,9.000,0.000,0.000,0
2026-01-31 03:54:30,137536,-8199.000,-820.000,419.000,-3.000,7.000,10.000,0.000,0.000,0
2026-01-31 03:54:30,137574,-8199.000,-823.000,424.000,-3.000,8.000,10.000,0.000,0.000,0
2026-01-31 03:54:30,137614,-8202.000,-818.000,425.000,-2.000,7.000,10.000,0.000,0.000,0
2026-01-31 03:54:30,137654,-8199.000,-821.000,426.000,-3.000,8.000,8.000,0.000,0.000,0
2026-01-31 03:54:30,137694,-8201.000,-821.000,425.000,-3.000,7.000,9.000,0.000,0.000,0
2026-01-31 03:54:30,137734,-8200.000,-820.000,419.000,-3.000,5.000,12.000,0.000,0.000,0
2026-01-31 03:54:30,137774,-8207.000,-816.000,423.000,-7.000,9.000,7.000,0.000,0.000,0
2026-01-31 03:54:30,137814,-8197.000,-822.000,422.000,-3.000,7.000,8.000,0.000,0.000,0
2026-01-31 03:54:30,137854,-8196.000,-821.000,419.000,-5.000,8.000,7.000,0.000,0.000,0
2026-01-31 03:54:30,137894,-8204.000,-823.000,423.000,-2.000,8.000,6.000,0.000,0.000,0
2026-01-31 03:54:30,137934,-8196.000,-826.000,421.000,-3.000,10.000,7.000,0.000,0.000,0
2026-01-31 03:54:30,137974,-8196.000,-820.000,428.000,-2.000,5.000,10.000,0.000,0.000,0
2026-01-31 03:54:30,138014,-8199.000,-821.000,428.000,-4.000,6.000,11.000,0.000,0.000,0
2026-01-31 03:54:30,138054,-8199.000,-815.000,419.000,-1.000,5.000,12.000,0.000,0.000,0
2026-01-31 03:54:30,138094,-8196.000,-823.000,428.000,-3.000,9.000,9.000,0.000,0.000,0
2026-01-31 03:54:31,138134,-8199.000,-825.000,428.000,-2.000,5.000,11.000,0.000,0.000,0
2026-01-31 03:54:31,138174,-8193.000,-824.000,418.000,-2.000,4.000,10.000,0.000,0.000,0
2026-01-31 03:54:31,138214,-8198.000,-819.000,423.000,-2.000,6.000,11.000,0.000,0.000,0
2026-01-31 03:54:31,138254,-8199.000,-824.000,419.000,-3.000,7.000,7.000,0.000,0.000,0
2026-01-31 03:54:31,138294,-8200.000,-822.000,414.000,-6.000,6.000,7.000,0.000,0.000,0
2026-01-31 03:54:31,138334,-8194.000,-827.000,424.000,-2.000,11.000,7.000,0.000,0.000,0
2026-01-31 03:54:31,138374,-8198.000,-819.000,427.000,-2.000,8.000,7.000,0.000,0.000,0
2026-01-31 03:54:31,138414,-8201.000,-823.000,426.000,-3.000,7.000,9.000,0.000,0.000,0
2026-01-31 03:54:31,138454,-8198.000,-828.000,428.000,-5.000,6.000,8.000,0.000,0.000,0
2026-01-31 03:54:31,138494,-8201.000,-822.000,424.000,-5.000,10.000,7.000,0.000,0.000,0
2026-01-31 03:54:31,138534,-8203.000,-823.000,419.000,-2.000,6.000,10.000,0.000,0.000,0
2026-01-31 03:54:31,138574,-8194.000,-818.000,422.000,-5.000,6.000,11.000,0.000,0.000,0
2026-01-31 03:54:31,138614,-8198.000,-820.000,427.000,-4.000,7.000,8.000,0.000,0.000,0
2026-01-31 03:54:31,138654,-8197.000,-822.000,424.000,-2.000,8.000,13.000,0.000,0.000,0
2026-01-31 03:54:31,138694,-8196.000,-820.000,422.000,-4.000,6.000,8.000,0.000,0.000,0
2026-01-31 03:54:31,138734,-8197.000,-825.000,421.000,-5.000,11.000,9.000,0.000,0.000,0
2026-01-31 03:54:31,138774,-8199.000,-815.000,424.000,-2.000,7.000,8.000,0.000,0.000,0
2026-01-31 03:54:31,138814,-8200.000,-825.000,417.000,-5.000,5.000,9.000,0.000,0.000,0
2026-01-31 03:54:31,138854,-8201.000,-824.000,427.000,-4.000,8.000,8.000,0.000,0.000,0
2026-01-31 03:54:31,138894,-8195.000,-824.000,425.000,-4.000,7.000,9.000,0.000,0.000,0
2026-01-31 03:54:31,138934,-8195.000,-822.000,423.000,-1.000,5.000,11.000,0.000,0.000,0
2026-01-31 03:54:31,138974,-8195.000,-818.000,426.000,-5.000,8.000,7.000,0.000,0.000,0
2026-01-31 03:54:31,139014,-8196.000,-824.000,425.000,-5.000,7.000,6.000,0.000,0.000,0
2026-01-31 03:54:31,139054,-8198.000,-821.000,421.000,-4.000,5.000,9.000,0.000,0.000,0
2026-01-31 03:54:31,139094,-8205.000,-821.000,428.000,-5.000,8.000,6.000,0.000,0.000,0
2026-01-31 03:54:32,139134,-8198.000,-819.000,428.000,-3.000,8.000,7.000,0.000,0.000,0
2026-01-31 03:54:32,139174,-8191.000,-820.000,425.000,-3.000,7.000,10.000,0.000,0.000,0
2026-01-31 03:54:32,139214,-8198.000,-822.000,425.000,-5.000,7.000,10.000,0.000,0.000,0
2026-01-31 03:54:32,139254,-8191.000,-819.000,425.000,-5.000,9.000,7.000,0.000,0.000,0
2026-01-31 03:54:32,139294,-8198.000,-826.000,416.000,-4.000,6.000,10.000,0.000,0.000,0
2026-01-31 03:54:32,139334,-8193.000,-816.000,424.000,-5.000,7.000,8.000,0.000,0.000,0
2026-01-31 03:54:32,139374,-8196.000,-819.000,422.000,-4.000,4.000,9.000,0.000,0.000,0
2026-01-31 03:54:32,139414,-8196.000,-826.000,431.000,-3.000,9.000,7.000,0.000,0.000,0
2026-01-31 03:54:32,139454,-8198.000,-814.000,429.000,-5.000,6.000,8.000,0.000,0.000,0
2026-01-31 03:54:32,139497,-8201.000,-825.000,421.000,-7.000,11.000,9.000,0.000,0.000,0
2026-01-31 03:54:32,139539,-8199.000,-824.000,423.000,-6.000,9.000,7.000,0.000,0.000,0
2026-01-31 03:54:32,139576,-8197.000,-822.000,427.000,-8.000,9.000,6.000,0.000,0.000,0
2026-01-31 03:54:32,139614,-8202.000,-818.000,431.000,-11.000,14.000,4.000,0.000,0.000,0
2026-01-31 03:54:32,139654,-8202.000,-821.000,427.000,-7.000,4.000,7.000,0.000,0.000,0
2026-01-31 03:54:32,139694,-8193.000,-817.000,428.000,-5.000,9.000,7.000,0.000,0.000,0
2026-01-31 03:54:32,139734,-8200.000,-818.000,421.000,-4.000,2.000,7.000,0.000,0.000,0
2026-01-31 03:54:32,139774,-8199.000,-823.000,423.000,-5.000,5.000,9.000,0.000,0.000,0
2026-01-31 03:54:32,139814,-8195.000,-819.000,424.000,-3.000,5.000,11.000,0.000,0.000,0
2026-01-31 03:54:32,139854,-8197.000,-823.000,423.000,-5.000,5.000,8.000,0.000,0.000,0
2026-01-31 03:54:32,139894,-8201.000,-818.000,427.000,-3.000,6.000,8.000,0.000,0.000,0
2026-01-31 03:54:32,139934,-8197.000,-826.000,423.000,-4.000,4.000,10.000,0.000,0.000,0
2026-01-31 03:54:32,139974,-8199.000,-825.000,425.000,-1.000,6.000,9.000,0.000,0.000,0
2026-01-31 03:54:32,140014,-8195.000,-822.000,425.000,-4.000,8.000,10.000,0.000,0.000,0
2026-01-31 03:54:32,140054,-8198.000,-820.000,426.000,-5.000,7.000,9.000,0.000,0.000,0
2026-01-31 03:54:32,140094,-8198.000,-819.000,421.000,-4.000,7.000,7.000,0.000,0.000,0
2026-01-31 03:54:33,140134,-8195.000,-818.000,421.000,-4.000,9.000,9.000,0.000,0.000,0
2026-01-31 03:54:33,140174,-8196.000,-821.000,422.000,-4.000,9.000,8.000,0.000,0.000,0
2026-01-31 03:54:33,140214,-8198.000,-822.000,426.000,-5.000,6.000,7.000,0.000,0.000,0
2026-01-31 03:54:33,140254,-8198.000,-820.000,430.000,-2.000,7.000,7.000,0.000,0.000,0
2026-01-31 03:54:33,140294,-8195.000,-822.000,425.000,-2.000,6.000,7.000,0.000,0.000,0
2026-01-31 03:54:33,140334,-8197.000,-823.000,425.000,-5.000,6.000,7.000,0.000,0.000,0
2026-01-31 03:54:33,140374,-8202.000,-830.000,420.000,-5.000,6.000,7.000,0.000,0.000,0
2026-01-31 03:54:33,140414,-8199.000,-826.000,424.000,-4.000,6.000,7.000,0.000,0.000,0
2026-01-31 03:54:33,140454,-8196.000,-821.000,422.000,-3.000,7.000,9.000,0.000,0.000,0
2026-01-31 03:54:33,140494,-8202.000,-820.000,429.000,-4.000,5.000,9.000,0.000,0.000,0
2026-01-31 03:54:33,140534,-8203.000,-824.000,427.000,-1.000,8.000,10.000,0.000,0.000,0
2026-01-31 03:54:33,140574,-8199.000,-816.000,428.000,-4.000,6.000,10.000,0.000,0.000,0
2026-01-31 03:54:33,140614,-8201.000,-822.000,415.000,-5.000,5.000,8.000,0.000,0.000,0
2026-01-31 03:54:33,140654,-8199.000,-825.000,422.000,-4.000,6.000,9.000,0.000,0.000,0
2026-01-31 03:54:33,140694,-8197.000,-824.000,427.000,-3.000,7.000,10.000,0.000,0.000,0
2026-01-31 03:54:33,140734,-8200.000,-817.000,425.000,-5.000,4.000,10.000,0.000,0.000,0
2026-01-31 03:54:33,140774,-8194.000,-818.000,425.000,-3.000,4.000,8.000,0.000,0.000,0
2026-01-31 03:54:33,140814,-8196.000,-821.000,419.000,-3.000,5.000,10.000,0.000,0.000,0
2026-01-31 03:54:33,140854,-8198.000,-827.000,433.000,-1.000,5.000,10.000,0.000,0.000,0
2026-01-31 03:54:33,140894,-8194.000,-822.000,421.000,-5.000,5.000,13.000,0.000,0.000,0
2026-01-31 03:54:33,140934,-8195.000,-821.000,432.000,-4.000,4.000,11.000,0.000,0.000,0
2026-01-31 03:54:33,140974,-8202.000,-823.000,423.000,-4.000,6.000,11.000,0.000,0.000,0
2026-01-31 03:54:33,141014,-8196.000,-818.000,423.000,-3.000,4.000,10.000,0.000,0.000,0
2026-01-31 03:54:33,141054,-8198.000,-818.000,424.000,-4.000,6.000,9.000,0.000,0.000,0
2026-01-31 03:54:33,141094,-8199.000,-825.000,430.000,-3.000,6.000,9.000,0.000,0.000,0
2026-01-31 03:54:34,141134,-8194.000,-825.000,421.000,-4.000,6.000,8.000,0.000,0.000,0
2026-01-31 03:54:34,141174,-8197.000,-823.000,425.000,-4.000,7.000,7.000,0.000,0.000,0
2026-01-31 03:54:34,141214,-8198.000,-817.000,416.000,-3.000,6.000,9.000,0.000,0.000,0
2026-01-31 03:54:34,141254,-8198.000,-820.000,420.000,-2.000,5.000,8.000,0.000,0.000,0
2026-01-31 03:54:34,141294,-8198.000,-822.000,423.000,-5.000,5.000,6.000,0.000,0.000,0
2026-01-31 03:54:34,141334,-8198.000,-822.000,428.000,-5.000,7.000,7.000,0.000,0.000,0
2026-01-31 03:54:34,141374,-8198.000,-822.000,423.000,-4.000,9.000,9.000,0.000,0.000,0
2026-01-31 03:54:34,141414,-8197.000,-829.000,425.000,-4.000,4.000,8.000,0.000,0.000,0
2026-01-31 03:54:34,141454,-8200.000,-819.000,428.000,-3.000,7.000,9.000,0.000,0.000,0
2026-01-31 03:54:34,141497,-8195.000,-820.000,423.000,-4.000,10.000,7.000,0.000,0.000,0
2026-01-31 03:54:34,141536,-8201.000,-818.000,424.000,-4.000,8.000,5.000,0.000,0.000,0
2026-01-31 03:54:34,141574,-8199.000,-820.000,426.000,-1.000,9.000,7.000,0.000,0.000,0
2026-01-31 03:54:34,141616,-8193.000,-822.000,422.000,-6.000,10.000,6.000,0.000,0.000,0
2026-01-31 03:54:34,141654,-8193.000,-824.000,429.000,-3.000,7.000,7.000,0.000,0.000,0
2026-01-31 03:54:34,141694,-8196.000,-823.000,425.000,-4.000,5.000,9.000,0.000,0.000,0
2026-01-31 03:54:34,141734,-8199.000,-827.000,427.000,-3.000,7.000,9.000,0.000,0.000,0
2026-01-31 03:54:34,141774,-8191.000,-821.000,425.000,-2.000,8.000,7.000,0.000,0.000,0
2026-01-31 03:54:34,141814,-8199.000,-821.000,426.000,0.000,5.000,10.000,0.000,0.000,0
2026-01-31 03:54:34,141854,-8192.000,-823.000,427.000,-3.000,3.000,12.000,0.000,0.000,0
2026-01-31 03:54:34,141894,-8193.000,-818.000,422.000,-1.000,6.000,13.000,0.000,0.000,0
2026-01-31 03:54:34,141934,-8196.000,-821.000,424.000,-1.000,4.000,9.000,0.000,0.000,0
2026-01-31 03:54:34,141974,-8200.000,-827.000,431.000,-2.000,4.000,9.000,0.000,0.000,0
2026-01-31 03:54:34,142014,-8198.000,-820.000,427.000,-4.000,5.000,10.000,0.000,0.000,0
2026-01-31 03:54:34,142054,-8195.000,-818.000,429.000,-5.000,4.000,9.000,0.000,0.000,0
2026-01-31 03:54:34,142094,-8199.000,-821.000,424.000,-4.000,6.000,9.000,0.000,0.000,0
2026-01-31 03:54:35,142134,-8199.000,-824.000,426.000,-3.000,4.000,8.000,0.000,0.000,0
2026-01-31 03:54:35,142174,-8199.000,-822.000,426.000,-3.000,5.000,8.000,0.000,0.000,0
2026-01-31 03:54:35,142214,-8197.000,-820.000,422.000,-5.000,9.000,8.000,0.000,0.000,0
2026-01-31 03:54:35,142254,-8196.000,-822.000,426.000,-6.000,6.000,9.000,0.000,0.000,0
2026-01-31 03:54:35,142294,-8200.000,-823.000,428.000,-5.000,6.000,7.000,0.000,0.000,0
2026-01-31 03:54:35,142334,-8203.000,-828.000,426.000,-2.000,6.000,12.000,0.000,0.000,0
2026-01-31 03:54:35,142374,-8200.000,-821.000,426.000,-3.000,4.000,12.000,0.000,0.000,0
2026-01-31 03:54:35,142414,-8195.000,-819.000,422.000,-2.000,3.000,13.000,0.000,0.000,0
2026-01-31 03:54:35,142454,-8197.000,-827.000,424.000,-4.000,6.000,8.000,0.000,0.000,0
2026-01-31 03:54:35,142494,-8202.000,-824.000,428.000,-1.000,8.000,8.000,0.000,0.000,0
2026-01-31 03:54:35,142534,-8199.000,-820.000,428.000,-4.000,5.000,7.000,0.000,0.000,0
2026-01-31 03:54:35,142574,-8199.000,-822.000,421.000,-5.000,7.000,9.000,0.000,0.000,0
2026-01-31 03:54:35,142614,-8196.000,-823.000,424.000,-2.000,7.000,10.000,0.000,0.000,0
2026-01-31 03:54:35,142654,-8200.000,-819.000,427.000,-4.000,6.000,7.000,0.000,0.000,0
2026-01-31 03:54:35,142694,-8201.000,-823.000,430.000,-4.000,6.000,10.000,0.000,0.000,0
2026-01-31 03:54:35,142734,-8195.000,-818.000,426.000,-3.000,6.000,9.000,0.000,0.000,0
2026-01-31 03:54:35,142774,-8200.000,-819.000,428.000,-5.000,5.000,8.000,0.000,0.000,0
2026-01-31 03:54:35,142814,-8198.000,-820.000,429.000,-2.000,4.000,10.000,0.000,0.000,0
2026-01-31 03:54:35,142854,-8198.000,-819.000,424.000,-1.000,3.000,11.000,0.000,0.000,0
2026-01-31 03:54:35,142894,-8197.000,-823.000,425.000,-2.000,5.000,12.000,0.000,0.000,0
2026-01-31 03:54:35,142934,-8199.000,-818.000,423.000,-1.000,4.000,10.000,0.000,0.000,0
2026-01-31 03:54:35,142974,-8205.000,-824.000,421.000,-2.000,3.000,11.000,0.000,0.000,0
2026-01-31 03:54:35,143014,-8200.000,-819.000,428.000,-2.000,5.000,10.000,0.000,0.000,0
2026-01-31 03:54:35,143054,-8197.000,-821.000,423.000,1.000,6.000,12.000,0.000,0.000,0
2026-01-31 03:54:35,143094,-8196.000,-825.000,423.000,-2.000,3.000,10.000,0.000,0.000,0
2026-01-31 03:54:36,143134,-8198.000,-822.000,426.000,-2.000,7.000,10.000,0.000,0.000,0
2026-01-31 03:54:36,143174,-8201.000,-821.000,426.000,0.000,4.000,12.000,0.000,0.000,0
2026-01-31 03:54:36,143214,-8200.000,-821.000,424.000,-3.000,4.000,12.000,0.000,0.000,0
2026-01-31 03:54:36,143254,-8200.000,-822.000,425.000,-1.000,4.000,11.000,0.000,0.000,0
2026-01-31 03:54:36,143294,-8198.000,-830.000,426.000,-4.000,5.000,11.000,0.000,0.000,0
2026-01-31 03:54:36,143334,-8197.000,-819.000,425.000,0.000,5.000,11.000,0.000,0.000,0
2026-01-31 03:54:36,143374,-8200.000,-821.000,427.000,-3.000,4.000,11.000,0.000,0.000,0
2026-01-31 03:54:36,143414,-8205.000,-816.000,424.000,0.000,4.000,13.000,0.000,0.000,0
2026-01-31 03:54:36,143454,-8197.000,-824.000,428.000,-3.000,7.000,11.000,0.000,0.000,0
2026-01-31 03:54:36,143497,-8198.000,-818.000,427.000,-2.000,4.000,10.000,0.000,0.000,0
2026-01-31 03:54:36,143534,-8196.000,-820.000,424.000,-2.000,8.000,12.000,0.000,0.000,0
2026-01-31 03:54:36,143574,-8201.000,-822.000,420.000,-2.000,3.000,11.000,0.000,0.000,0
2026-01-31 03:54:36,143617,-8195.000,-821.000,425.000,-1.000,4.000,8.000,0.000,0.000,0
2026-01-31 03:54:36,143654,-8200.000,-824.000,428.000,-4.000,2.000,8.000,0.000,0.000,0
2026-01-31 03:54:36,143694,-8199.000,-819.000,423.000,-2.000,9.000,8.000,0.000,0.000,0
2026-01-31 03:54:36,143734,-8200.000,-821.000,430.000,-1.000,7.000,7.000,0.000,0.000,0
2026-01-31 03:54:36,143774,-8196.000,-820.000,423.000,-2.000,6.000,10.000,0.000,0.000,0
2026-01-31 03:54:36,143814,-8197.000,-826.000,421.000,1.000,3.000,11.000,0.000,0.000,0
2026-01-31 03:54:36,143854,-8196.000,-824.000,427.000,-1.000,7.000,9.000,0.000,0.000,0
2026-01-31 03:54:36,143894,-8196.000,-819.000,429.000,-3.000,3.000,8.000,0.000,0.000,0
2026-01-31 03:54:36,143934,-8198.000,-827.000,426.000,-4.000,6.000,9.000,0.000,0.000,0
2026-01-31 03:54:36,143974,-8203.000,-823.000,428.000,-3.000,8.000,9.000,0.000,0.000,0
2026-01-31 03:54:36,144014,-8193.000,-823.000,427.000,-4.000,5.000,9.000,0.000,0.000,0
2026-01-31 03:54:36,144054,-8190.000,-821.000,423.000,-3.000,8.000,9.000,0.000,0.000,0
2026-01-31 03:54:36,144094,-8198.000,-821.000,427.000,-5.000,7.000,7.000,0.000,0.000,0
2026-01-31 03:54:37,144134,-8198.000,-820.000,430.000,-3.000,9.000,9.000,0.000,0.000,0
2026-01-31 03:54:37,144174,-8195.000,-825.000,418.000,-2.000,4.000,8.000,0.000,0.000,0
2026-01-31 03:54:37,144214,-8198.000,-821.000,420.000,-7.000,6.000,7.000,0.000,0.000,0
2026-01-31 03:54:37,144254,-8197.000,-819.000,428.000,-1.000,4.000,6.000,0.000,0.000,0
2026-01-31 03:54:37,144294,-8194.000,-819.000,427.000,-5.000,3.000,7.000,0.000,0.000,0
2026-01-31 03:54:37,144334,-8196.000,-822.000,420.000,-3.000,7.000,9.000,0.000,0.000,0
2026-01-31 03:54:37,144374,-8196.000,-817.000,418.000,-2.000,8.000,9.000,0.000,0.000,0
2026-01-31 03:54:37,144414,-8197.000,-824.000,422.000,-3.000,5.000,8.000,0.000,0.000,0
2026-01-31 03:54:37,144454,-8194.000,-817.000,427.000,-2.000,6.000,9.000,0.000,0.000,0
2026-01-31 03:54:37,144494,-8196.000,-823.000,426.000,-3.000,5.000,8.000,0.000,0.000,0
2026-01-31 03:54:37,144534,-8196.000,-820.000,419.000,-1.000,4.000,10.000,0.000,0.000,0
2026-01-31 03:54:37,144574,-8197.000,-822.000,426.000,-5.000,7.000,9.000,0.000,0.000,0
2026-01-31 03:54:37,144614,-8194.000,-825.000,423.000,-2.000,6.000,7.000,0.000,0.000,0
2026-01-31 03:54:37,144654,-8204.000,-818.000,425.000,-3.000,4.000,8.000,0.000,0.000,0
2026-01-31 03:54:37,144694,-8194.000,-821.000,426.000,-3.000,5.000,8.000,0.000,0.000,0
2026-01-31 03:54:37,144734,-8198.000,-828.000,427.000,-3.000,3.000,9.000,0.000,0.000,0
2026-01-31 03:54:37,144774,-8203.000,-821.000,421.000,-3.000,9.000,8.000,0.000,0.000,0
2026-01-31 03:54:37,144814,-8198.000,-826.000,427.000,-4.000,7.000,5.000,0.000,0.000,0
2026-01-31 03:54:37,144854,-8197.000,-822.000,425.000,-3.000,5.000,8.000,0.000,0.000,0
2026-01-31 03:54:37,144894,-8201.000,-827.000,428.000,-3.000,8.000,8.000,0.000,0.000,0
2026-01-31 03:54:37,144934,-8199.000,-826.000,423.000,-2.000,6.000,9.000,0.000,0.000,0
2026-01-31 03:54:37,144974,-8205.000,-827.000,422.000,-1.000,5.000,11.000,0.000,0.000,0
2026-01-31 03:54:37,145014,-8194.000,-823.000,426.000,-3.000,4.000,11.000,0.000,0.000,0
2026-01-31 03:54:37,145054,-8201.000,-817.000,426.000,-2.000,8.000,7.000,0.000,0.000,0
2026-01-31 03:54:37,145094,-8192.000,-826.000,424.000,-3.000,4.000,8.000,0.000,0.000,0
2026-01-31 03:54:38,145134,-8198.000,-819.000,420.000,-5.000,2.000,7.000,0.000,0.000,0
2026-01-31 03:54:38,145174,-8197.000,-826.000,423.000,-6.000,4.000,6.000,0.000,0.000,0
2026-01-31 03:54:38,145214,-8201.000,-827.000,426.000,-2.000,8.000,8.000,0.000,0.000,0
2026-01-31 03:54:38,145254,-8199.000,-827.000,431.000,-4.000,7.000,6.000,0.000,0.000,0
2026-01-31 03:54:38,145294,-8198.000,-821.000,425.000,-6.000,4.000,9.000,0.000,0.000,0
2026-01-31 03:54:38,145334,-8193.000,-820.000,424.000,-4.000,5.000,10.000,0.000,0.000,0
2026-01-31 03:54:38,145374,-8195.000,-824.000,421.000,-4.000,6.000,10.000,0.000,0.000,0
2026-01-31 03:54:38,145414,-8202.000,-822.000,425.000,-5.000,3.000,9.000,0.000,0.000,0
2026-01-31 03:54:38,145454,-8196.000,-826.000,424.000,-4.000,7.000,8.000,0.000,0.000,0
2026-01-31 03:54:38,145494,-8200.000,-820.000,422.000,-3.000,11.000,8.000,0.000,0.000,0
2026-01-31 03:54:38,145535,-8200.000,-823.000,422.000,-5.000,5.000,9.000,0.000,0.000,0
2026-01-31 03:54:38,145574,-8195.000,-824.000,419.000,-6.000,7.000,8.000,0.000,0.000,0
2026-01-31 03:54:38,145617,-8203.000,-829.000,425.000,-6.000,11.000,7.000,0.000,0.000,0
2026-01-31 03:54:38,145654,-8195.000,-824.000,423.000,-4.000,7.000,8.000,0.000,0.000,0
2026-01-31 03:54:38,145694,-8195.000,-827.000,420.000,-3.000,3.000,9.000,0.000,0.000,0
2026-01-31 03:54:38,145734,-8200.000,-830.000,420.000,-2.000,5.000,7.000,0.000,0.000,0
2026-01-31 03:54:38,145774,-8201.000,-824.000,420.000,-3.000,5.000,8.000,0.000,0.000,0
2026-01-31 03:54:38,145814,-8203.000,-823.000,432.000,-5.000,4.000,10.000,0.000,0.000,0
2026-01-31 03:54:38,145854,-8194.000,-825.000,416.000,-2.000,7.000,11.000,0.000,0.000,0
2026-01-31 03:54:38,145894,-8195.000,-826.000,428.000,-1.000,5.000,10.000,0.000,0.000,0
2026-01-31 03:54:38,145934,-8197.000,-827.000,420.000,-3.000,3.000,9.000,0.000,0.000,0
2026-01-31 03:54:38,145974,-8198.000,-822.000,425.000,-3.000,3.000,8.000,0.000,0.000,0
2026-01-31 03:54:38,146014,-8196.000,-825.000,422.000,-2.000,5.000,11.000,0.000,0.000,0
2026-01-31 03:54:38,146054,-8193.000,-828.000,422.000,0.000,4.000,12.000,0.000,0.000,0
2026-01-31 03:54:38,146094,-8202.000,-826.000,420.000,-1.000,5.000,10.000,0.000,0.000,0
2026-01-31 03:54:39,146134,-8199.000,-828.000,421.000,-2.000,3.000,13.000,0.000,0.000,0
2026-01-31 03:54:39,146174,-8194.000,-824.000,425.000,-4.000,10.000,8.000,0.000,0.000,0
2026-01-31 03:54:39,146214,-8197.000,-817.000,424.000,-3.000,3.000,6.000,0.000,0.000,0
2026-01-31 03:54:39,146254,-8197.000,-825.000,427.000,-2.000,9.000,8.000,0.000,0.000,0
2026-01-31 03:54:39,146294,-8199.000,-827.000,423.000,-2.000,8.000,8.000,0.000,0.000,0
2026-01-31 03:54:39,146334,-8199.000,-829.000,423.000,-5.000,6.000,7.000,0.000,0.000,0
2026-01-31 03:54:39,146374,-8198.000,-828.000,425.000,-4.000,2.000,8.000,0.000,0.000,0
2026-01-31 03:54:39,146414,-8200.000,-820.000,433.000,-4.000,8.000,8.000,0.000,0.000,0
2026-01-31 03:54:39,146454,-8198.000,-827.000,424.000,-4.000,6.000,8.000,0.000,0.000,0
2026-01-31 03:54:39,146494,-8200.000,-822.000,423.000,-3.000,4.000,7.000,0.000,0.000,0
2026-01-31 03:54:39,146534,-8198.000,-829.000,418.000,-3.000,7.000,10.000,0.000,0.000,0
2026-01-31 03:54:39,146574,-8199.000,-827.000,428.000,-2.000,6.000,7.000,0.000,0.000,0
2026-01-31 03:54:39,146614,-8199.000,-825.000,431.000,-4.000,6.000,7.000,0.000,0.000,0
2026-01-31 03:54:39,146654,-8198.000,-825.000,423.000,-3.000,6.000,9.000,0.000,0.000,0
2026-01-31 03:54:39,146694,-8199.000,-827.000,415.000,-5.000,11.000,7.000,0.000,0.000,0
2026-01-31 03:54:39,146734,-8200.000,-827.000,423.000,-3.000,6.000,7.000,0.000,0.000,0
2026-01-31 03:54:39,146774,-8198.000,-825.000,425.000,-4.000,1.000,9.000,0.000,0.000,0
2026-01-31 03:54:39,146814,-8203.000,-823.000,421.000,-7.000,6.000,9.000,0.000,0.000,0
2026-01-31 03:54:39,146854,-8200.000,-824.000,427.000,-1.000,6.000,9.000,0.000,0.000,0
2026-01-31 03:54:39,146894,-8198.000,-825.000,425.000,-1.000,3.000,10.000,0.000,0.000,0
2026-01-31 03:54:39,146934,-8192.000,-827.000,426.000,-2.000,4.000,9.000,0.000,0.000,0
2026-01-31 03:54:39,146974,-8195.000,-824.000,422.000,0.000,5.000,9.000,0.000,0.000,0
2026-01-31 03:54:39,147014,-8198.000,-826.000,421.000,-3.000,3.000,11.000,0.000,0.000,0
2026-01-31 03:54:39,147054,-8197.000,-830.000,426.000,-2.000,6.000,9.000,0.000,0.000,0
2026-01-31 03:54:39,147094,-8201.000,-827.000,424.000,-4.000,9.000,7.000,0.000,0.000,0
2026-01-31 03:54:40,147134,-8197.000,-832.000,426.000,-3.000,5.000,8.000,0.000,0.000,0
2026-01-31 03:54:40,147174,-8195.000,-824.000,423.000,-2.000,7.000,8.000,0.000,0.000,0
2026-01-31 03:54:40,147214,-8200.000,-830.000,421.000,-3.000,6.000,7.000,0.000,0.000,0
2026-01-31 03:54:40,147254,-8190.000,-823.000,428.000,-3.000,6.000,6.000,0.000,0.000,0
2026-01-31 03:54:40,147294,-8192.000,-829.000,423.000,-4.000,7.000,8.000,0.000,0.000,0
2026-01-31 03:54:40,147334,-8196.000,-825.000,420.000,-3.000,8.000,9.000,0.000,0.000,0
2026-01-31 03:54:40,147374,-8197.000,-829.000,429.000,0.000,8.000,10.000,0.000,0.000,0
2026-01-31 03:54:40,147414,-8201.000,-826.000,428.000,0.000,5.000,10.000,0.000,0.000,0
2026-01-31 03:54:40,147454,-8198.000,-821.000,423.000,1.000,5.000,10.000,0.000,0.000,0
2026-01-31 03:54:40,147497,-8195.000,-828.000,425.000,-4.000,12.000,8.000,0.000,0.000,0
2026-01-31 03:54:40,147537,-8195.000,-825.000,419.000,-5.000,6.000,9.000,0.000,0.000,0
2026-01-31 03:54:40,147574,-8200.000,-825.000,422.000,-4.000,8.000,9.000,0.000,0.000,0
2026-01-31 03:54:40,147614,-8199.000,-824.000,424.000,-4.000,6.000,13.000,0.000,0.000,0
2026-01-31 03:54:40,147654,-8199.000,-822.000,426.000,-2.000,3.000,10.000,0.000,0.000,0
2026-01-31 03:54:40,147694,-8203.000,-820.000,423.000,-2.000,4.000,12.000,0.000,0.000,0
2026-01-31 03:54:40,147734,-8195.000,-824.000,424.000,-3.000,4.000,9.000,0.000,0.000,0
2026-01-31 03:54:40,147774,-8192.000,-827.000,419.000,-2.000,8.000,8.000,0.000,0.000,0
2026-01-31 03:54:40,147814,-8202.000,-827.000,418.000,-2.000,7.000,9.000,0.000,0.000,0
2026-01-31 03:54:40,147854,-8198.000,-828.000,424.000,-5.000,5.000,7.000,0.000,0.000,0
2026-01-31 03:54:40,147894,-8193.000,-828.000,416.000,-3.000,5.000,9.000,0.000,0.000,0
2026-01-31 03:54:40,147934,-8203.000,-827.000,425.000,-4.000,8.000,7.000,0.000,0.000,0
2026-01-31 03:54:40,147974,-8200.000,-827.000,424.000,-6.000,7.000,8.000,0.000,0.000,0
2026-01-31 03:54:40,148014,-8199.000,-826.000,426.000,-4.000,5.000,8.000,0.000,0.000,0
2026-01-31 03:54:40,148054,-8199.000,-827.000,425.000,-3.000,3.000,8.000,0.000,0.000,0
2026-01-31 03:54:40,148094,-8197.000,-826.000,425.000,-4.000,5.000,10.000,0.000,0.000,0
2026-01-31 03:54:41,148134,-8198.000,-828.000,425.000,-3.000,3.000,7.000,0.000,0.000,0
2026-01-31 03:54:41,148174,-8199.000,-825.000,427.000,-4.000,2.000,9.000,0.000,0.000,0
2026-01-31 03:54:41,148214,-8197.000,-826.000,419.000,-3.000,6.000,8.000,0.000,0.000,0
2026-01-31 03:54:41,148254,-8199.000,-830.000,420.000,-2.000,6.000,8.000,0.000,0.000,0
2026-01-31 03:54:41,148294,-8196.000,-826.000,423.000,-3.000,5.000,9.000,0.000,0.000,0
2026-01-31 03:54:41,148334,-8198.000,-827.000,426.000,-2.000,7.000,7.000,0.000,0.000,0
2026-01-31 03:54:41,148374,-8196.000,-833.000,423.000,-3.000,8.000,8.000,0.000,0.000,0
2026-01-31 03:54:41,148414,-8195.000,-824.000,426.000,-5.000,5.000,8.000,0.000,0.000,0
2026-01-31 03:54:41,148454,-8198.000,-823.000,420.000,-6.000,3.000,9.000,0.000,0.000,0
2026-01-31 03:54:41,148494,-8194.000,-828.000,426.000,-2.000,7.000,10.000,0.000,0.000,0
2026-01-31 03:54:41,148534,-8194.000,-827.000,428.000,-4.000,6.000,6.000,0.000,0.000,0
2026-01-31 03:54:41,148574,-8194.000,-827.000,426.000,-4.000,7.000,7.000,0.000,0.000,0
2026-01-31 03:54:41,148614,-8195.000,-831.000,422.000,-5.000,7.000,10.000,0.000,0.000,0
2026-01-31 03:54:41,148654,-8196.000,-828.000,421.000,-2.000,9.000,8.000,0.000,0.000,0
2026-01-31 03:54:41,148694,-8200.000,-826.000,427.000,-4.000,4.000,11.000,0.000,0.000,0
2026-01-31 03:54:41,148734,-8198.000,-828.000,428.000,-2.000,5.000,12.000,0.000,0.000,0
2026-01-31 03:54:41,148774,-8202.000,-826.000,431.000,-5.000,5.000,9.000,0.000,0.000,0
2026-01-31 03:54:41,148814,-8198.000,-823.000,429.000,-1.000,6.000,7.000,0.000,0.000,0
2026-01-31 03:54:41,148854,-8199.000,-825.000,428.000,-5.000,6.000,8.000,0.000,0.000,0
2026-01-31 03:54:41,148894,-8192.000,-827.000,422.000,-4.000,9.000,6.000,0.000,0.000,0
2026-01-31 03:54:41,148934,-8199.000,-823.000,421.000,-3.000,6.000,7.000,0.000,0.000,0
2026-01-31 03:54:41,148974,-8195.000,-827.000,427.000,-2.000,7.000,9.000,0.000,0.000,0
2026-01-31 03:54:41,149014,-8202.000,-827.000,431.000,-3.000,6.000,9.000,0.000,0.000,0
2026-01-31 03:54:41,149054,-8198.000,-829.000,425.000,-4.000,5.000,10.000,0.000,0.000,0
2026-01-31 03:54:41,149094,-8195.000,-827.000,423.000,-5.000,4.000,9.000,0.000,0.000,0
2026-01-31 03:54:42,149134,-8201.000,-826.000,423.000,-3.000,5.000,10.000,0.000,0.000,0
2026-01-31 03:54:42,149174,-8199.000,-827.000,418.000,-3.000,5.000,9.000,0.000,0.000,0
2026-01-31 03:54:42,149214,-8200.000,-825.000,424.000,-4.000,6.000,8.000,0.000,0.000,0
2026-01-31 03:54:42,149254,-8199.000,-821.000,419.000,-1.000,5.000,14.000,0.000,0.000,0
2026-01-31 03:54:42,149294,-8201.000,-823.000,423.000,-4.000,10.000,9.000,0.000,0.000,0
2026-01-31 03:54:42,149334,-8200.000,-828.000,424.000,-2.000,5.000,8.000,0.000,0.000,0
2026-01-31 03:54:42,149374,-8196.000,-818.000,428.000,-5.000,6.000,7.000,0.000,0.000,0
2026-01-31 03:54:42,149414,-8199.000,-826.000,425.000,-3.000,7.000,10.000,0.000,0.000,0
2026-01-31 03:54:42,149454,-8191.000,-826.000,423.000,-2.000,4.000,10.000,0.000,0.000,0
2026-01-31 03:54:42,149496,-8194.000,-827.000,421.000,-6.000,7.000,7.000,0.000,0.000,0
2026-01-31 03:54:42,149536,-8194.000,-823.000,422.000,-4.000,5.000,8.000,0.000,0.000,0
2026-01-31 03:54:42,149574,-8197.000,-823.000,420.000,-5.000,9.000,7.000,0.000,0.000,0
2026-01-31 03:54:42,149617,-8195.000,-824.000,420.000,-7.000,10.000,7.000,0.000,0.000,0
2026-01-31 03:54:42,149654,-8196.000,-826.000,426.000,-5.000,4.000,7.000,0.000,0.000,0
2026-01-31 03:54:42,149694,-8201.000,-825.000,421.000,-2.000,10.000,8.000,0.000,0.000,0
2026-01-31 03:54:42,149734,-8198.000,-829.000,419.000,-3.000,6.000,8.000,0.000,0.000,0
2026-01-31 03:54:42,149774,-8197.000,-824.000,420.000,-4.000,4.000,10.000,0.000,0.000,0
2026-01-31 03:54:42,149814,-8195.000,-829.000,417.000,-2.000,6.000,11.000,0.000,0.000,0
2026-01-31 03:54:42,149854,-8192.000,-828.000,428.000,-4.000,5.000,7.000,0.000,0.000,0
2026-01-31 03:54:42,149894,-8203.000,-826.000,431.000,-1.000,5.000,9.000,0.000,0.000,0
2026-01-31 03:54:42,149934,-8201.000,-829.000,431.000,-5.000,4.000,7.000,0.000,0.000,0
2026-01-31 03:54:42,149974,-8199.000,-827.000,419.000,-3.000,6.000,9.000,0.000,0.000,0
2026-01-31 03:54:42,150014,-8191.000,-822.000,420.000,-2.000,4.000,10.000,0.000,0.000,0
2026-01-31 03:54:42,150054,-8200.000,-825.000,424.000,-2.000,6.000,8.000,0.000,0.000,0
2026-01-31 03:54:42,150094,-8202.000,-816.000,422.000,-4.000,6.000,8.000,0.000,0.000,0
2026-01-31 03:54:43,150134,-8197.000,-827.000,426.000,-2.000,6.000,10.000,0.000,0.000,0
2026-01-31 03:54:43,150174,-8196.000,-829.000,419.000,-2.000,5.000,11.000,0.000,0.000,0
2026-01-31 03:54:43,150214,-8194.000,-825.000,423.000,-3.000,4.000,13.000,0.000,0.000,0
2026-01-31 03:54:43,150254,-8197.000,-823.000,421.000,-2.000,4.000,11.000,0.000,0.000,0
2026-01-31 03:54:43,150294,-8198.000,-825.000,427.000,-3.000,5.000,11.000,0.000,0.000,0
2026-01-31 03:54:43,150334,-8193.000,-826.000,418.000,-3.000,3.000,10.000,0.000,0.000,0
2026-01-31 03:54:43,150374,-8199.000,-824.000,422.000,-2.000,8.000,10.000,0.000,0.000,0
2026-01-31 03:54:43,150414,-8197.000,-822.000,426.000,-2.000,3.000,10.000,0.000,0.000,0
2026-01-31 03:54:43,150454,-8204.000,-828.000,420.000,-2.000,6.000,8.000,0.000,0.000,0
2026-01-31 03:54:43,150494,-8199.000,-829.000,425.000,-3.000,4.000,9.000,0.000,0.000,0
2026-01-31 03:54:43,150534,-8196.000,-829.000,423.000,-4.000,8.000,7.000,0.000,0.000,0
2026-01-31 03:54:43,150574,-8197.000,-829.000,423.000,-2.000,7.000,8.000,0.000,0.000,0
2026-01-31 03:54:43,150614,-8199.000,-827.000,423.000,-2.000,6.000,9.000,0.000,0.000,0
2026-01-31 03:54:43,150654,-8197.000,-825.000,418.000,-4.000,5.000,8.000,0.000,0.000,0
2026-01-31 03:54:43,150694,-8197.000,-827.000,427.000,-3.000,8.000,10.000,0.000,0.000,0
2026-01-31 03:54:43,150734,-8200.000,-822.000,424.000,-3.000,6.000,9.000,0.000,0.000,0
2026-01-31 03:54:43,150774,-8201.000,-829.000,421.000,-3.000,7.000,8.000,0.000,0.000,0
2026-01-31 03:54:43,150814,-8200.000,-830.000,424.000,-2.000,9.000,9.000,0.000,0.000,0
2026-01-31 03:54:43,150854,-8197.000,-828.000,420.000,-2.000,6.000,10.000,0.000,0.000,0
2026-01-31 03:54:43,150894,-8194.000,-821.000,426.000,-5.000,7.000,7.000,0.000,0.000,0
2026-01-31 03:54:43,150934,-8197.000,-825.000,419.000,-4.000,8.000,8.000,0.000,0.000,0
2026-01-31 03:54:43,150974,-8200.000,-828.000,424.000,-2.000,7.000,10.000,0.000,0.000,0
2026-01-31 03:54:43,151014,-8191.000,-826.000,423.000,-3.000,5.000,10.000,0.000,0.000,0
2026-01-31 03:54:43,151054,-8199.000,-822.000,421.000,-4.000,6.000,7.000,0.000,0.000,0
2026-01-31 03:54:43,151094,-8199.000,-826.000,425.000,-3.000,5.000,9.000,0.000,0.000,0
2026-01-31 03:54:44,151134,-8198.000,-824.000,420.000,-3.000,4.000,9.000,0.000,0.000,0
2026-01-31 03:54:44,151174,-8198.000,-827.000,422.000,-4.000,2.000,9.000,0.000,0.000,0
2026-01-31 03:54:44,151214,-8195.000,-826.000,422.000,-4.000,9.000,8.000,0.000,0.000,0
2026-01-31 03:54:44,151254,-8200.000,-829.000,431.000,-5.000,6.000,7.000,0.000,0.000,0
2026-01-31 03:54:44,151294,-8198.000,-828.000,419.000,-4.000,4.000,11.000,0.000,0.000,0
2026-01-31 03:54:44,151334,-8194.000,-826.000,427.000,-1.000,7.000,9.000,0.000,0.000,0
2026-01-31 03:54:44,151374,-8196.000,-823.000,413.000,-3.000,6.000,10.000,0.000,0.000,0
2026-01-31 03:54:44,151414,-8198.000,-828.000,424.000,-5.000,7.000,6.000,0.000,0.000,0
2026-01-31 03:54:44,151454,-8199.000,-829.000,431.000,-4.000,4.000,9.000,0.000,0.000,0
2026-01-31 03:54:44,151497,-8194.000,-827.000,420.000,-4.000,8.000,8.000,0.000,0.000,0
2026-01-31 03:54:44,151537,-8195.000,-829.000,428.000,-3.000,8.000,7.000,0.000,0.000,0
2026-01-31 03:54:44,151574,-8193.000,-830.000,417.000,-6.000,9.000,8.000,0.000,0.000,0
2026-01-31 03:54:44,151617,-8196.000,-828.000,423.000,-3.000,8.000,7.000,0.000,0.000,0
2026-01-31 03:54:44,151654,-8196.000,-831.000,420.000,-1.000,5.000,9.000,0.000,0.000,0
2026-01-31 03:54:44,151694,-8198.000,-821.000,421.000,-5.000,3.000,8.000,0.000,0.000,0
2026-01-31 03:54:44,151734,-8197.000,-831.000,417.000,-4.000,8.000,7.000,0.000,0.000,0
2026-01-31 03:54:44,151774,-8194.000,-827.000,424.000,-4.000,8.000,8.000,0.000,0.000,0
2026-01-31 03:54:44,151814,-8200.000,-828.000,417.000,-4.000,7.000,8.000,0.000,0.000,0
2026-01-31 03:54:44,151854,-8198.000,-826.000,426.000,-5.000,4.000,9.000,0.000,0.000,0
2026-01-31 03:54:44,151894,-8195.000,-829.000,429.000,-4.000,8.000,7.000,0.000,0.000,0
2026-01-31 03:54:44,151934,-8201.000,-824.000,426.000,-3.000,4.000,8.000,0.000,0.000,0
2026-01-31 03:54:44,151974,-8201.000,-826.000,424.000,-3.000,7.000,9.000,0.000,0.000,0
2026-01-31 03:54:44,152014,-8202.000,-826.000,423.000,-2.000,9.000,7.000,0.000,0.000,0
2026-01-31 03:54:44,152054,-8199.000,-823.000,414.000,-4.000,5.000,7.000,0.000,0.000,0
2026-01-31 03:54:44,152094,-8193.000,-829.000,422.000,-4.000,5.000,8.000,0.000,0.000,0
2026-01-31 03:54:45,152134,-8199.000,-827.000,425.000,-5.000,7.000,8.000,0.000,0.000,0
2026-01-31 03:54:45,152174,-8201.000,-826.000,420.000,-3.000,7.000,9.000,0.000,0.000,0
2026-01-31 03:54:45,152214,-8192.000,-830.000,423.000,-3.000,8.000,8.000,0.000,0.000,0
2026-01-31 03:54:45,152254,-8199.000,-820.000,424.000,-3.000,4.000,10.000,0.000,0.000,0
2026-01-31 03:54:45,152294,-8203.000,-829.000,418.000,-3.000,8.000,8.000,0.000,0.000,0
2026-01-31 03:54:45,152334,-8194.000,-824.000,425.000,-4.000,8.000,10.000,0.000,0.000,0
2026-01-31 03:54:45,152374,-8200.000,-830.000,421.000,-3.000,6.000,8.000,0.000,0.000,0
2026-01-31 03:54:45,152414,-8192.000,-829.000,422.000,-1.000,7.000,9.000,0.000,0.000,0
2026-01-31 03:54:45,152454,-8198.000,-825.000,429.000,-4.000,6.000,10.000,0.000,0.000,0
2026-01-31 03:54:45,152494,-8197.000,-828.000,419.000,-2.000,8.000,8.000,0.000,0.000,0
2026-01-31 03:54:45,152534,-8200.000,-827.000,414.000,-6.000,5.000,8.000,0.000,0.000,0
2026-01-31 03:54:45,152574,-8197.000,-828.000,417.000,-1.000,5.000,9.000,0.000,0.000,0
2026-01-31 03:54:45,152614,-8199.000,-829.000,420.000,-1.000,6.000,10.000,0.000,0.000,0
2026-01-31 03:54:45,152654,-8201.000,-832.000,422.000,-3.000,6.000,8.000,0.000,0.000,0
2026-01-31 03:54:45,152694,-8200.000,-831.000,421.000,-2.000,7.000,10.000,0.000,0.000,0
2026-01-31 03:54:45,152734,-8195.000,-827.000,418.000,-2.000,6.000,7.000,0.000,0.000,0
2026-01-31 03:54:45,152774,-8196.000,-819.000,424.000,-3.000,6.000,8.000,0.000,0.000,0
2026-01-31 03:54:45,152814,-8193.000,-832.000,429.000,-1.000,4.000,13.000,0.000,0.000,0
2026-01-31 03:54:45,152854,-8194.000,-825.000,427.000,-3.000,5.000,9.000,0.000,0.000,0
2026-01-31 03:54:45,152894,-8196.000,-827.000,424.000,-2.000,2.000,11.000,0.000,0.000,0
2026-01-31 03:54:45,152934,-8196.000,-827.000,422.000,-2.000,4.000,11.000,0.000,0.000,0
2026-01-31 03:54:45,152974,-8196.000,-827.000,422.000,0.000,5.000,9.000,0.000,0.000,0
2026-01-31 03:54:45,153014,-8197.000,-833.000,428.000,-3.000,6.000,10.000,0.000,0.000,0
2026-01-31 03:54:45,153054,-8195.000,-827.000,426.000,0.000,5.000,11.000,0.000,0.000,0
2026-01-31 03:54:45,153094,-8197.000,-826.000,420.000,-2.000,8.000,8.000,0.000,0.000,0
2026-01-31 03:54:46,153134,-8199.000,-828.000,427.000,-3.000,9.000,10.000,0.000,0.000,0
2026-01-31 03:54:46,153174,-8196.000,-827.000,423.000,-3.000,5.000,10.000,0.000,0.000,0
2026-01-31 03:54:46,153214,-8202.000,-831.000,414.000,-3.000,6.000,10.000,0.000,0.000,0
2026-01-31 03:54:46,153254,-8199.000,-823.000,426.000,-2.000,3.000,11.000,0.000,0.000,0
2026-01-31 03:54:46,153294,-8195.000,-829.000,427.000,-5.000,3.000,12.000,0.000,0.000,0
2026-01-31 03:54:46,153334,-8201.000,-822.000,421.000,-1.000,4.000,11.000,0.000,0.000,0
2026-01-31 03:54:46,153374,-8203.000,-830.000,421.000,-4.000,6.000,10.000,0.000,0.000,0
2026-01-31 03:54:46,153414,-8198.000,-823.000,421.000,-1.000,4.000,11.000,0.000,0.000,0
2026-01-31 03:54:46,153454,-8194.000,-827.000,425.000,-1.000,4.000,11.000,0.000,0.000,0
2026-01-31 03:54:46,153494,-8199.000,-829.000,417.000,-5.000,8.000,11.000,0.000,0.000,0
2026-01-31 03:54:46,153535,-8196.000,-827.000,422.000,-2.000,6.000,11.000,0.000,0.000,0
2026-01-31 03:54:46,153574,-8202.000,-828.000,426.000,-3.000,7.000,7.000,0.000,0.000,0
2026-01-31 03:54:46,153614,-8195.000,-827.000,428.000,-2.000,2.000,8.000,0.000,0.000,0
2026-01-31 03:54:46,153654,-8195.000,-826.000,424.000,-3.000,5.000,9.000,0.000,0.000,0
2026-01-31 03:54:46,153694,-8193.000,-823.000,424.000,-3.000,6.000,7.000,0.000,0.000,0
2026-01-31 03:54:46,153734,-8199.000,-824.000,424.000,-5.000,5.000,6.000,0.000,0.000,0
2026-01-31 03:54:46,153774,-8193.000,-831.000,424.000,-4.000,5.000,8.000,0.000,0.000,0
2026-01-31 03:54:46,153814,-8193.000,-824.000,423.000,0.000,5.000,9.000,0.000,0.000,0
2026-01-31 03:54:46,153854,-8195.000,-826.000,420.000,-4.000,6.000,7.000,0.000,0.000,0
2026-01-31 03:54:46,153894,-8198.000,-824.000,420.000,-4.000,5.000,10.000,0.000,0.000,0
2026-01-31 03:54:46,153934,-8199.000,-828.000,422.000,-3.000,6.000,10.000,0.000,0.000,0
2026-01-31 03:54:46,153974,-8197.000,-829.000,423.000,-6.000,6.000,7.000,0.000,0.000,0
2026-01-31 03:54:46,154014,-8200.000,-836.000,423.000,-4.000,5.000,6.000,0.000,0.000,0
2026-01-31 03:54:46,154054,-8191.000,-828.000,422.000,-3.000,6.000,9.000,0.000,0.000,0
2026-01-31 03:54:46,154094,-8201.000,-826.000,429.000,-3.000,5.000,9.000,0.000,0.000,0
2026-01-31 03:54:47,154134,-8195.000,-826.000,427.000,-4.000,5.000,9.000,0.000,0.000,0
2026-01-31 03:54:47,154174,-8199.000,-823.000,422.000,-4.000,7.000,7.000,0.000,0.000,0
2026-01-31 03:54:47,154214,-8196.000,-826.000,429.000,-1.000,7.000,8.000,0.000,0.000,0
2026-01-31 03:54:47,154254,-8198.000,-826.000,424.000,-5.000,7.000,9.000,0.000,0.000,0
2026-01-31 03:54:47,154294,-8198.000,-831.000,422.000,-5.000,7.000,9.000,0.000,0.000,0
2026-01-31 03:54:47,154334,-8199.000,-826.000,423.000,-2.000,8.000,9.000,0.000,0.000,0
2026-01-31 03:54:47,154374,-8199.000,-829.000,425.000,-3.000,4.000,8.000,0.000,0.000,0
2026-01-31 03:54:47,154414,-8194.000,-828.000,420.000,-3.000,4.000,10.000,0.000,0.000,0
2026-01-31 03:54:47,154454,-8197.000,-826.000,430.000,-3.000,5.000,8.000,0.000,0.000,0
2026-01-31 03:54:47,154494,-8193.000,-826.000,430.000,-3.000,7.000,9.000,0.000,0.000,0
2026-01-31 03:54:47,154534,-8202.000,-828.000,419.000,-1.000,4.000,9.000,0.000,0.000,0
2026-01-31 03:54:47,154574,-8198.000,-827.000,418.000,-4.000,8.000,10.000,0.000,0.000,0
2026-01-31 03:54:47,154614,-8194.000,-825.000,430.000,-3.000,6.000,9.000,0.000,0.000,0
2026-01-31 03:54:47,154654,-8196.000,-829.000,424.000,-5.000,7.000,8.000,0.000,0.000,0
2026-01-31 03:54:47,154694,-8195.000,-822.000,426.000,-4.000,4.000,11.000,0.000,0.000,0
2026-01-31 03:54:47,154734,-8198.000,-833.000,422.000,-1.000,8.000,10.000,0.000,0.000,0
2026-01-31 03:54:47,154774,-8201.000,-827.000,424.000,0.000,2.000,13.000,0.000,0.000,0
2026-01-31 03:54:47,154814,-8196.000,-824.000,421.000,-3.000,2.000,10.000,0.000,0.000,0
2026-01-31 03:54:47,154854,-8198.000,-830.000,418.000,-5.000,5.000,10.000,0.000,0.000,0
2026-01-31 03:54:47,154894,-8198.000,-823.000,423.000,-4.000,7.000,10.000,0.000,0.000,0
2026-01-31 03:54:47,154934,-8195.000,-823.000,426.000,-3.000,3.000,10.000,0.000,0.000,0
2026-01-31 03:54:47,154974,-8198.000,-828.000,426.000,-4.000,7.000,7.000,0.000,0.000,0
2026-01-31 03:54:47,155014,-8198.000,-824.000,422.000,0.000,9.000,10.000,0.000,0.000,0
2026-01-31 03:54:47,155054,-8202.000,-825.000,424.000,-4.000,5.000,7.000,0.000,0.000,0
2026-01-31 03:54:47,155094,-8195.000,-827.000,419.000,-3.000,6.000,9.000,0.000,0.000,0
2026-01-31 03:54:48,155134,-8197.000,-829.000,425.000,-5.000,7.000,8.000,0.000,0.000,0
2026-01-31 03:54:48,155174,-8199.000,-826.000,430.000,-1.000,9.000,9.000,0.000,0.000,0
2026-01-31 03:54:48,155214,-8195.000,-831.000,425.000,-5.000,7.000,8.000,0.000,0.000,0
2026-01-31 03:54:48,155254,-8199.000,-826.000,422.000,-3.000,6.000,8.000,0.000,0.000,0
2026-01-31 03:54:48,155294,-8197.000,-825.000,422.000,-1.000,7.000,9.000,0.000,0.000,0
2026-01-31 03:54:48,155334,-8193.000,-828.000,419.000,-4.000,4.000,8.000,0.000,0.000,0
2026-01-31 03:54:48,155374,-8202.000,-823.000,421.000,-4.000,5.000,10.000,0.000,0.000,0
2026-01-31 03:54:48,155414,-8197.000,-826.000,422.000,-2.000,9.000,10.000,0.000,0.000,0
2026-01-31 03:54:48,155454,-8201.000,-828.000,420.000,-4.000,4.000,12.000,0.000,0.000,0
2026-01-31 03:54:48,155507,-8195.000,-824.000,421.000,-4.000,6.000,10.000,0.000,0.000,0
2026-01-31 03:54:48,155534,-8191.000,-825.000,421.000,-4.000,8.000,11.000,0.000,0.000,0
2026-01-31 03:54:48,155574,-8195.000,-824.000,423.000,-2.000,5.000,9.000,0.000,0.000,0
2026-01-31 03:54:48,155616,-8195.000,-828.000,413.000,-2.000,7.000,12.000,0.000,0.000,0
2026-01-31 03:54:48,155654,-8203.000,-834.000,425.000,-3.000,4.000,11.000,0.000,0.000,0
2026-01-31 03:54:48,155695,-8197.000,-820.000,427.000,-4.000,5.000,11.000,0.000,0.000,0
2026-01-31 03:54:48,155734,-8196.000,-825.000,425.000,0.000,2.000,14.000,0.000,0.000,0
2026-01-31 03:54:48,155774,-8199.000,-826.000,426.000,-2.000,2.000,11.000,0.000,0.000,0
2026-01-31 03:54:48,155814,-8200.000,-829.000,425.000,-3.000,5.000,12.000,0.000,0.000,0
2026-01-31 03:54:48,155854,-8196.000,-822.000,417.000,-1.000,4.000,11.000,0.000,0.000,0
2026-01-31 03:54:48,155894,-8200.000,-822.000,424.000,-3.000,3.000,12.000,0.000,0.000,0
2026-01-31 03:54:48,155934,-8196.000,-831.000,426.000,-6.000,6.000,10.000,0.000,0.000,0
2026-01-31 03:54:48,155974,-8203.000,-823.000,424.000,-4.000,3.000,10.000,0.000,0.000,0
2026-01-31 03:54:48,156014,-8198.000,-826.000,426.000,-4.000,7.000,8.000,0.000,0.000,0
2026-01-31 03:54:48,156054,-8202.000,-829.000,425.000,-4.000,9.000,10.000,0.000,0.000,0
2026-01-31 03:54:48,156094,-8201.000,-827.000,422.000,-5.000,8.000,9.000,0.000,0.000,0
2026-01-31 03:54:49,156134,-8196.000,-828.000,426.000,-1.000,6.000,8.000,0.000,0.000,0
2026-01-31 03:54:49,156174,-8197.000,-832.000,427.000,-3.000,9.000,9.000,0.000,0.000,0
2026-01-31 03:54:49,156214,-8201.000,-828.000,424.000,-5.000,6.000,7.000,0.000,0.000,0
2026-01-31 03:54:49,156254,-8200.000,-830.000,420.000,-4.000,7.000,9.000,0.000,0.000,0
2026-01-31 03:54:49,156294,-8195.000,-827.000,424.000,-2.000,9.000,7.000,0.000,0.000,0
2026-01-31 03:54:49,156334,-8200.000,-829.000,426.000,-2.000,3.000,10.000,0.000,0.000,0
2026-01-31 03:54:49,156374,-8194.000,-820.000,427.000,-1.000,5.000,10.000,0.000,0.000,0
2026-01-31 03:54:49,156414,-8195.000,-826.000,422.000,-3.000,6.000,8.000,0.000,0.000,0
2026-01-31 03:54:49,156454,-8203.000,-829.000,431.000,-3.000,6.000,7.000,0.000,0.000,0
2026-01-31 03:54:49,156494,-8194.000,-832.000,417.000,-4.000,6.000,8.000,0.000,0.000,0
2026-01-31 03:54:49,156534,-8198.000,-832.000,419.000,-2.000,8.000,7.000,0.000,0.000,0
2026-01-31 03:54:49,156574,-8197.000,-823.000,427.000,-6.000,6.000,9.000,0.000,0.000,0
2026-01-31 03:54:49,156614,-8196.000,-832.000,425.000,-4.000,5.000,7.000,0.000,0.000,0
2026-01-31 03:54:49,156654,-8202.000,-825.000,426.000,-5.000,8.000,9.000,0.000,0.000,0
2026-01-31 03:54:49,156694,-8199.000,-823.000,425.000,-3.000,7.000,10.000,0.000,0.000,0
2026-01-31 03:54:49,156734,-8198.000,-828.000,426.000,-3.000,4.000,9.000,0.000,0.000,0
2026-01-31 03:54:49,156774,-8193.000,-831.000,428.000,-2.000,6.000,9.000,0.000,0.000,0
2026-01-31 03:54:49,156814,-8196.000,-822.000,421.000,-4.000,8.000,7.000,0.000,0.000,0
2026-01-31 03:54:49,156854,-8197.000,-827.000,421.000,-4.000,3.000,9.000,0.000,0.000,0
2026-01-31 03:54:49,156894,-8199.000,-830.000,420.000,-2.000,5.000,12.000,0.000,0.000,0
2026-01-31 03:54:49,156934,-8194.000,-827.000,427.000,-3.000,5.000,11.000,0.000,0.000,0
2026-01-31 03:54:49,156974,-8198.000,-828.000,427.000,-2.000,4.000,9.000,0.000,0.000,0
2026-01-31 03:54:49,157014,-8194.000,-825.000,422.000,-3.000,5.000,8.000,0.000,0.000,0
2026-01-31 03:54:49,157054,-8199.000,-830.000,418.000,-2.000,7.000,8.000,0.000,0.000,0
2026-01-31 03:54:49,157094,-8197.000,-826.000,426.000,-3.000,7.000,11.000,0.000,0.000,0
2026-01-31 03:54:50,157134,-8193.000,-829.000,423.000,-2.000,7.000,8.000,0.000,0.000,0
2026-01-31 03:54:50,157174,-8202.000,-827.000,420.000,-5.000,3.000,8.000,0.000,0.000,0
2026-01-31 03:54:50,157214,-8197.000,-824.000,418.000,-4.000,6.000,8.000,0.000,0.000,0
2026-01-31 03:54:50,157254,-8195.000,-824.000,423.000,-7.000,4.000,8.000,0.000,0.000,0
2026-01-31 03:54:50,157294,-8197.000,-824.000,429.000,-5.000,5.000,10.000,0.000,0.000,0
2026-01-31 03:54:50,157334,-8197.000,-826.000,416.000,-4.000,11.000,7.000,0.000,0.000,0
2026-01-31 03:54:50,157374,-8197.000,-830.000,426.000,-4.000,6.000,8.000,0.000,0.000,0
2026-01-31 03:54:50,157414,-8202.000,-828.000,426.000,-4.000,5.000,9.000,0.000,0.000,0
2026-01-31 03:54:50,157454,-8200.000,-830.000,425.000,-3.000,7.000,10.000,0.000,0.000,0
2026-01-31 03:54:50,157497,-8194.000,-833.000,423.000,-6.000,10.000,8.000,0.000,0.000,0
2026-01-31 03:54:50,157536,-8199.000,-829.000,422.000,-3.000,4.000,10.000,0.000,0.000,0
2026-01-31 03:54:50,157574,-8202.000,-826.000,423.000,-4.000,7.000,10.000,0.000,0.000,0
2026-01-31 03:54:50,157616,-8203.000,-828.000,422.000,-2.000,8.000,8.000,0.000,0.000,0
2026-01-31 03:54:50,157654,-8199.000,-828.000,424.000,0.000,4.000,11.000,0.000,0.000,0
2026-01-31 03:54:50,157694,-8203.000,-831.000,417.000,-2.000,5.000,10.000,0.000,0.000,0
2026-01-31 03:54:50,157734,-8198.000,-827.000,424.000,-3.000,6.000,9.000,0.000,0.000,0
2026-01-31 03:54:50,157774,-8197.000,-827.000,422.000,-2.000,3.000,12.000,0.000,0.000,0
2026-01-31 03:54:50,157814,-8199.000,-827.000,428.000,-1.000,3.000,13.000,0.000,0.000,0
2026-01-31 03:54:50,157854,-8196.000,-827.000,425.000,-1.000,3.000,14.000,0.000,0.000,0
2026-01-31 03:54:50,157894,-8199.000,-830.000,424.000,-1.000,7.000,12.000,0.000,0.000,0
2026-01-31 03:54:50,157934,-8196.000,-828.000,422.000,-2.000,3.000,10.000,0.000,0.000,0
2026-01-31 03:54:50,157974,-8196.000,-829.000,428.000,-3.000,3.000,13.000,0.000,0.000,0
2026-01-31 03:54:50,158014,-8198.000,-831.000,423.000,-2.000,9.000,9.000,0.000,0.000,0
2026-01-31 03:54:50,158054,-8193.000,-826.000,420.000,-4.000,4.000,8.000,0.000,0.000,0
2026-01-31 03:54:50,158094,-8203.000,-826.000,425.000,-5.000,5.000,10.000,0.000,0.000,0
2026-01-31 03:54:51,158134,-8200.000,-831.000,417.000,-2.000,5.000,12.000,0.000,0.000,0
2026-01-31 03:54:51,158174,-8198.000,-826.000,419.000,-3.000,3.000,11.000,0.000,0.000,0
2026-01-31 03:54:51,158214,-8200.000,-828.000,422.000,-1.000,5.000,11.000,0.000,0.000,0
2026-01-31 03:54:51,158254,-8201.000,-832.000,427.000,-2.000,6.000,10.000,0.000,0.000,0
2026-01-31 03:54:51,158294,-8197.000,-823.000,425.000,-3.000,6.000,10.000,0.000,0.000,0
2026-01-31 03:54:51,158334,-8199.000,-829.000,425.000,-1.000,5.000,12.000,0.000,0.000,0
2026-01-31 03:54:51,158374,-8196.000,-827.000,425.000,-1.000,5.000,11.000,0.000,0.000,0
2026-01-31 03:54:51,158414,-8192.000,-828.000,423.000,-3.000,7.000,11.000,0.000,0.000,0
2026-01-31 03:54:51,158454,-8193.000,-827.000,424.000,-4.000,3.000,9.000,0.000,0.000,0
2026-01-31 03:54:51,158494,-8200.000,-827.000,425.000,-2.000,5.000,8.000,0.000,0.000,0
2026-01-31 03:54:51,158534,-8199.000,-827.000,429.000,-3.000,5.000,9.000,0.000,0.000,0
2026-01-31 03:54:51,158574,-8195.000,-831.000,423.000,-2.000,6.000,11.000,0.000,0.000,0
2026-01-31 03:54:51,158614,-8195.000,-828.000,421.000,-4.000,4.000,9.000,0.000,0.000,0
2026-01-31 03:54:51,158654,-8199.000,-826.000,422.000,-4.000,6.000,9.000,0.000,0.000,0
2026-01-31 03:54:51,158694,-8194.000,-828.000,423.000,0.000,5.000,8.000,0.000,0.000,0
2026-01-31 03:54:51,158734,-8196.000,-830.000,426.000,-5.000,4.000,9.000,0.000,0.000,0
2026-01-31 03:54:51,158774,-8197.000,-828.000,421.000,-3.000,7.000,9.000,0.000,0.000,0
2026-01-31 03:54:51,158814,-8196.000,-830.000,425.000,-5.000,5.000,6.000,0.000,0.000,0
2026-01-31 03:54:51,158854,-8197.000,-825.000,428.000,-2.000,5.000,9.000,0.000,0.000,0
2026-01-31 03:54:51,158894,-8193.000,-831.000,421.000,-1.000,4.000,8.000,0.000,0.000,0
2026-01-31 03:54:51,158934,-8194.000,-828.000,426.000,-1.000,5.000,12.000,0.000,0.000,0
2026-01-31 03:54:51,158974,-8197.000,-829.000,422.000,-1.000,5.000,12.000,0.000,0.000,0
2026-01-31 03:54:51,159014,-8197.000,-828.000,422.000,-3.000,3.000,12.000,0.000,0.000,0
2026-01-31 03:54:51,159054,-8203.000,-823.000,424.000,1.000,4.000,13.000,0.000,0.000,0
2026-01-31 03:54:51,159094,-8194.000,-827.000,418.000,2.000,5.000,13.000,0.000,0.000,0
2026-01-31 03:54:52,159134,-8200.000,-825.000,421.000,-2.000,6.000,12.000,0.000,0.000,0
2026-01-31 03:54:52,159174,-8202.000,-832.000,422.000,-2.000,8.000,9.000,0.000,0.000,0
2026-01-31 03:54:52,159214,-8195.000,-829.000,418.000,-6.000,5.000,9.000,0.000,0.000,0
2026-01-31 03:54:52,159254,-8195.000,-832.000,423.000,-2.000,6.000,9.000,0.000,0.000,0
2026-01-31 03:54:52,159294,-8201.000,-829.000,426.000,-2.000,5.000,12.000,0.000,0.000,0
2026-01-31 03:54:52,159334,-8194.000,-828.000,425.000,-5.000,2.000,11.000,0.000,0.000,0
2026-01-31 03:54:52,159374,-8196.000,-830.000,422.000,-4.000,3.000,10.000,0.000,0.000,0
2026-01-31 03:54:52,159414,-8193.000,-827.000,420.000,-2.000,6.000,12.000,0.000,0.000,0
2026-01-31 03:54:52,159454,-8200.000,-833.000,427.000,-2.000,4.000,12.000,0.000,0.000,0
2026-01-31 03:54:52,159497,-8192.000,-828.000,422.000,-6.000,8.000,12.000,0.000,0.000,0
2026-01-31 03:54:52,159537,-8201.000,-830.000,425.000,-3.000,3.000,9.000,0.000,0.000,0
2026-01-31 03:54:52,159574,-8200.000,-830.000,428.000,-2.000,4.000,8.000,0.000,0.000,0
2026-01-31 03:54:52,159614,-8197.000,-829.000,422.000,-2.000,3.000,12.000,0.000,0.000,0
2026-01-31 03:54:52,159654,-8197.000,-826.000,423.000,-3.000,7.000,9.000,0.000,0.000,0
2026-01-31 03:54:52,159694,-8192.000,-830.000,426.000,-4.000,7.000,7.000,0.000,0.000,0
2026-01-31 03:54:52,159734,-8192.000,-828.000,418.000,-4.000,8.000,9.000,0.000,0.000,0
2026-01-31 03:54:52,159774,-8196.000,-830.000,425.000,-4.000,6.000,10.000,0.000,0.000,0
2026-01-31 03:54:52,159814,-8195.000,-831.000,423.000,-4.000,5.000,8.000,0.000,0.000,0
2026-01-31 03:54:52,159854,-8198.000,-826.000,424.000,-3.000,8.000,8.000,0.000,0.000,0
2026-01-31 03:54:52,159894,-8193.000,-828.000,422.000,2.000,5.000,11.000,0.000,0.000,0
2026-01-31 03:54:52,159934,-8196.000,-829.000,422.000,-4.000,8.000,8.000,0.000,0.000,0
2026-01-31 03:54:52,159974,-8198.000,-827.000,423.000,-3.000,4.000,10.000,0.000,0.000,0
2026-01-31 03:54:52,160014,-8194.000,-827.000,424.000,-2.000,5.000,12.000,0.000,0.000,0
2026-01-31 03:54:52,160054,-8192.000,-834.000,421.000,-1.000,2.000,11.000,0.000,0.000,0
2026-01-31 03:54:52,160094,-8194.000,-827.000,419.000,-4.000,5.000,9.000,0.000,0.000,0
2026-01-31 03:54:53,160134,-8198.000,-831.000,426.000,-4.000,4.000,8.000,0.000,0.000,0
2026-01-31 03:54:53,160174,-8196.000,-828.000,423.000,-4.000,4.000,9.000,0.000,0.000,0
2026-01-31 03:54:53,160214,-8201.000,-829.000,426.000,-2.000,7.000,9.000,0.000,0.000,0
2026-01-31 03:54:53,160254,-8194.000,-832.000,421.000,-2.000,5.000,9.000,0.000,0.000,0
2026-01-31 03:54:53,160294,-8200.000,-825.000,426.000,-2.000,5.000,8.000,0.000,0.000,0
2026-01-31 03:54:53,160334,-8194.000,-831.000,428.000,-3.000,7.000,10.000,0.000,0.000,0
2026-01-31 03:54:53,160374,-8195.000,-831.000,416.000,-4.000,6.000,10.000,0.000,0.000,0
2026-01-31 03:54:53,160414,-8198.000,-828.000,421.000,-3.000,3.000,9.000,0.000,0.000,0
2026-01-31 03:54:53,160454,-8196.000,-824.000,420.000,-1.000,8.000,8.000,0.000,0.000,0
2026-01-31 03:54:53,160494,-8198.000,-829.000,425.000,-1.000,7.000,9.000,0.000,0.000,0
2026-01-31 03:54:53,160534,-8197.000,-827.000,424.000,-3.000,4.000,11.000,0.000,0.000,0
2026-01-31 03:54:53,160574,-8201.000,-825.000,421.000,-6.000,5.000,10.000,0.000,0.000,0
2026-01-31 03:54:53,160614,-8196.000,-824.000,419.000,-5.000,5.000,7.000,0.000,0.000,0
2026-01-31 03:54:53,160654,-8197.000,-821.000,434.000,0.000,8.000,5.000,0.000,0.000,0
2026-01-31 03:54:53,160694,-8202.000,-827.000,428.000,0.000,7.000,8.000,0.000,0.000,0
2026-01-31 03:54:53,160734,-8201.000,-827.000,421.000,-4.000,7.000,11.000,0.000,0.000,0
2026-01-31 03:54:53,160774,-8197.000,-832.000,420.000,-3.000,6.000,9.000,0.000,0.000,0
2026-01-31 03:54:53,160814,-8197.000,-827.000,420.000,-4.000,2.000,8.000,0.000,0.000,0
2026-01-31 03:54:53,160854,-8197.000,-830.000,426.000,-2.000,5.000,10.000,0.000,0.000,0
2026-01-31 03:54:53,160894,-8201.000,-831.000,428.000,-4.000,7.000,7.000,0.000,0.000,0
2026-01-31 03:54:53,160934,-8202.000,-831.000,422.000,-5.000,5.000,9.000,0.000,0.000,0
2026-01-31 03:54:53,160974,-8193.000,-826.000,419.000,-5.000,7.000,6.000,0.000,0.000,0
2026-01-31 03:54:53,161014,-8199.000,-829.000,417.000,-4.000,7.000,9.000,0.000,0.000,0
2026-01-31 03:54:53,161054,-8198.000,-834.000,428.000,-1.000,7.000,7.000,0.000,0.000,0
2026-01-31 03:54:53,161094,-8201.000,-832.000,418.000,-5.000,6.000,8.000,0.000,0.000,0
2026-01-31 03:54:54,161134,-8195.000,-823.000,423.000,-6.000,6.000,8.000,0.000,0.000,0
2026-01-31 03:54:54,161174,-8202.000,-828.000,417.000,-6.000,4.000,7.000,0.000,0.000,0
2026-01-31 03:54:54,161214,-8197.000,-828.000,427.000,-8.000,3.000,9.000,0.000,0.000,0
2026-01-31 03:54:54,161254,-8194.000,-829.000,421.000,-7.000,5.000,9.000,0.000,0.000,0
2026-01-31 03:54:54,161294,-8203.000,-826.000,426.000,-5.000,2.000,11.000,0.000,0.000,0
2026-01-31 03:54:54,161334,-8198.000,-826.000,424.000,-5.000,3.000,8.000,0.000,0.000,0
2026-01-31 03:54:54,161374,-8197.000,-825.000,425.000,-7.000,4.000,10.000,0.000,0.000,0
2026-01-31 03:54:54,161414,-8199.000,-827.000,420.000,-6.000,5.000,9.000,0.000,0.000,0
2026-01-31 03:54:54,161454,-8205.000,-830.000,427.000,-4.000,5.000,9.000,0.000,0.000,0
2026-01-31 03:54:54,161497,-8202.000,-836.000,423.000,-3.000,8.000,9.000,0.000,0.000,0
2026-01-31 03:54:54,161536,-8199.000,-825.000,422.000,-4.000,7.000,7.000,0.000,0.000,0
2026-01-31 03:54:54,161574,-8200.000,-828.000,421.000,-3.000,6.000,7.000,0.000,0.000,0
2026-01-31 03:54:54,161617,-8196.000,-827.000,423.000,-4.000,9.000,8.000,0.000,0.000,0
2026-01-31 03:54:54,161654,-8196.000,-824.000,436.000,-5.000,6.000,9.000,0.000,0.000,0
2026-01-31 03:54:54,161694,-8199.000,-828.000,428.000,-10.000,5.000,8.000,0.000,0.000,0
2026-01-31 03:54:54,161734,-8199.000,-827.000,419.000,-8.000,4.000,8.000,0.000,0.000,0
2026-01-31 03:54:54,161774,-8194.000,-833.000,433.000,-2.000,8.000,9.000,0.000,0.000,0
2026-01-31 03:54:54,161814,-8200.000,-826.000,431.000,3.000,9.000,10.000,0.000,0.000,0
2026-01-31 03:54:54,161854,-8199.000,-825.000,427.000,-2.000,6.000,9.000,0.000,0.000,0
2026-01-31 03:54:54,161894,-8197.000,-829.000,423.000,-6.000,5.000,10.000,0.000,0.000,0
2026-01-31 03:54:54,161934,-8196.000,-828.000,427.000,-4.000,8.000,9.000,0.000,0.000,0
2026-01-31 03:54:54,161974,-8197.000,-830.000,426.000,0.000,6.000,8.000,0.000,0.000,0
2026-01-31 03:54:54,162014,-8202.000,-834.000,423.000,-3.000,5.000,9.000,0.000,0.000,0
2026-01-31 03:54:54,162054,-8201.000,-830.000,422.000,-1.000,6.000,8.000,0.000,0.000,0
2026-01-31 03:54:54,162094,-8197.000,-828.000,427.000,-2.000,8.000,9.000,0.000,0.000,0
2026-01-31 03:54:55,162134,-8191.000,-826.000,432.000,-3.000,7.000,10.000,0.000,0.000,0
2026-01-31 03:54:55,162174,-8197.000,-827.000,430.000,-5.000,3.000,9.000,0.000,0.000,0
2026-01-31 03:54:55,162214,-8198.000,-823.000,427.000,-2.000,9.000,9.000,0.000,0.000,0
2026-01-31 03:54:55,162254,-8198.000,-834.000,427.000,-4.000,4.000,10.000,0.000,0.000,0
2026-01-31 03:54:55,162294,-8197.000,-828.000,423.000,-6.000,4.000,9.000,0.000,0.000,0
2026-01-31 03:54:55,162334,-8199.000,-829.000,421.000,-5.000,6.000,9.000,0.000,0.000,0
2026-01-31 03:54:55,162374,-8202.000,-826.000,423.000,0.000,7.000,9.000,0.000,0.000,0
2026-01-31 03:54:55,162414,-8197.000,-823.000,426.000,0.000,7.000,10.000,0.000,0.000,0
2026-01-31 03:54:55,162454,-8202.000,-826.000,425.000,-2.000,7.000,9.000,0.000,0.000,0
2026-01-31 03:54:55,162494,-8199.000,-824.000,428.000,-5.000,5.000,9.000,0.000,0.000,0
2026-01-31 03:54:55,162534,-8199.000,-832.000,430.000,-2.000,7.000,10.000,0.000,0.000,0
2026-01-31 03:54:55,162574,-8197.000,-825.000,428.000,-5.000,3.000,10.000,0.000,0.000,0
2026-01-31 03:54:55,162614,-8195.000,-835.000,429.000,-5.000,6.000,8.000,0.000,0.000,0
2026-01-31 03:54:55,162654,-8196.000,-831.000,427.000,-6.000,4.000,9.000,0.000,0.000,0
2026-01-31 03:54:55,162694,-8202.000,-828.000,430.000,-4.000,4.000,10.000,0.000,0.000,0
2026-01-31 03:54:55,162734,-8195.000,-832.000,426.000,-4.000,6.000,9.000,0.000,0.000,0
2026-01-31 03:54:55,162774,-8195.000,-822.000,432.000,-1.000,5.000,12.000,0.000,0.000,0
2026-01-31 03:54:55,162814,-8197.000,-832.000,432.000,-3.000,5.000,10.000,0.000,0.000,0
2026-01-31 03:54:55,162854,-8189.000,-829.000,427.000,0.000,3.000,11.000,0.000,0.000,0
2026-01-31 03:54:55,162894,-8199.000,-828.000,436.000,1.000,8.000,9.000,0.000,0.000,0
2026-01-31 03:54:55,162934,-8191.000,-830.000,432.000,-2.000,4.000,8.000,0.000,0.000,0
2026-01-31 03:54:55,162974,-8198.000,-834.000,427.000,-8.000,4.000,7.000,0.000,0.000,0
2026-01-31 03:54:55,163014,-8194.000,-829.000,430.000,-2.000,10.000,9.000,0.000,0.000,0
2026-01-31 03:54:55,163054,-8196.000,-829.000,433.000,2.000,4.000,8.000,0.000,0.000,0
2026-01-31 03:54:55,163094,-8200.000,-827.000,428.000,2.000,6.000,10.000,0.000,0.000,0
2026-01-31 03:54:56,163134,-8199.000,-828.000,426.000,-6.000,4.000,11.000,0.000,0.000,0
2026-01-31 03:54:56,163174,-8196.000,-828.000,429.000,-6.000,6.000,9.000,0.000,0.000,0
2026-01-31 03:54:56,163214,-8200.000,-827.000,425.000,-2.000,8.000,8.000,0.000,0.000,0
2026-01-31 03:54:56,163254,-8196.000,-831.000,432.000,2.000,6.000,7.000,0.000,0.000,0
2026-01-31 03:54:56,163294,-8195.000,-829.000,435.000,-1.000,6.000,10.000,0.000,0.000,0
2026-01-31 03:54:56,163334,-8199.000,-825.000,431.000,-5.000,6.000,9.000,0.000,0.000,0
2026-01-31 03:54:56,163374,-8198.000,-823.000,432.000,-4.000,6.000,7.000,0.000,0.000,0
2026-01-31 03:54:56,163414,-8194.000,-825.000,430.000,0.000,7.000,7.000,0.000,0.000,0
2026-01-31 03:54:56,163454,-8194.000,-825.000,425.000,-2.000,9.000,7.000,0.000,0.000,0
2026-01-31 03:54:56,163494,-8195.000,-829.000,434.000,-3.000,9.000,8.000,0.000,0.000,0
2026-01-31 03:54:56,163534,-8200.000,-828.000,434.000,-4.000,10.000,8.000,0.000,0.000,0
2026-01-31 03:54:56,163574,-8194.000,-830.000,426.000,-4.000,9.000,8.000,0.000,0.000,0
2026-01-31 03:54:56,163614,-8196.000,-828.000,434.000,-1.000,1.000,14.000,0.000,0.000,0
2026-01-31 03:54:56,163654,-8194.000,-829.000,430.000,-3.000,7.000,11.000,0.000,0.000,0
2026-01-31 03:54:56,163694,-8200.000,-828.000,426.000,0.000,6.000,12.000,0.000,0.000,0
2026-01-31 03:54:56,163734,-8193.000,-830.000,426.000,2.000,7.000,11.000,0.000,0.000,0
2026-01-31 03:54:56,163774,-8197.000,-823.000,432.000,-2.000,5.000,13.000,0.000,0.000,0
2026-01-31 03:54:56,163814,-8200.000,-830.000,428.000,-3.000,5.000,10.000,0.000,0.000,0
2026-01-31 03:54:56,163854,-8191.000,-828.000,425.000,-4.000,2.000,12.000,0.000,0.000,0
2026-01-31 03:54:56,163894,-8195.000,-829.000,426.000,-5.000,3.000,9.000,0.000,0.000,0
2026-01-31 03:54:56,163934,-8196.000,-824.000,420.000,-1.000,3.000,10.000,0.000,0.000,0
2026-01-31 03:54:56,163974,-8194.000,-824.000,427.000,-2.000,5.000,12.000,0.000,0.000,0
2026-01-31 03:54:56,164014,-8197.000,-826.000,428.000,-3.000,5.000,12.000,0.000,0.000,0
2026-01-31 03:54:56,164054,-8194.000,-825.000,416.000,-3.000,5.000,12.000,0.000,0.000,0
2026-01-31 03:54:56,164094,-8193.000,-827.000,426.000,0.000,7.000,8.000,0.000,0.000,0
