datetime_local,uptime_ms,acc_x,acc_y,acc_z,gyro_x,gyro_y,gyro_z,speed_mps,turn_rate_deg_s,gps_valid
2026-01-29 21:06:54,900888,1193.000,-1479.000,7134.000,779.000,-342.000,-1664.000,0.000,0.000,0
2026-01-29 21:06:54,900928,1948.000,-942.000,6361.000,1028.000,-1538.000,-1135.000,0.000,0.000,0
2026-01-29 21:06:54,900968,1633.000,-1352.000,5747.000,-902.000,-531.000,-820.000,0.000,0.000,0
2026-01-29 21:06:54,901008,960.000,-2309.000,6172.000,-903.000,-97.000,-776.000,0.000,0.000,0
2026-01-29 21:06:54,901048,1256.000,-1792.000,6749.000,668.000,-1025.000,-764.000,0.000,0.000,0
2026-01-29 21:06:54,901088,1655.000,-1242.000,7668.000,903.000,-1481.000,-413.000,0.000,0.000,0
2026-01-29 21:06:54,901128,2153.000,-1383.000,8353.000,100.000,-1757.000,210.000,0.000,0.000,0
2026-01-29 21:06:54,901168,2278.000,-1908.000,8404.000,-215.000,-1493.000,830.000,0.000,0.000,0
2026-01-29 21:06:54,901208,2566.000,-2457.000,8968.000,-273.000,-1131.000,887.000,0.000,0.000,0
2026-01-29 21:06:54,901248,3514.000,-2438.000,9266.000,436.000,-1179.000,247.000,0.000,0.000,0
2026-01-29 21:06:54,901288,5905.000,-43.000,9231.000,2031.000,-2007.000,836.000,0.000,0.000,0
2026-01-29 21:06:54,901328,5751.000,-28.000,7568.000,2519.000,-1793.000,2399.000,0.000,0.000,0
2026-01-29 21:06:54,901368,4506.000,-683.000,5717.000,2179.000,-111.000,2406.000,0.000,0.000,0
2026-01-29 21:06:54,901408,2754.000,-1631.000,4097.000,3508.000,694.000,2795.000,0.000,0.000,0
2026-01-29 21:06:54,901448,2754.000,-2908.000,2944.000,6010.000,421.000,1690.000,0.000,0.000,0
2026-01-29 21:06:54,901488,1046.000,-3358.000,2871.000,12297.000,-126.000,2837.000,0.000,0.000,0
2026-01-29 21:06:54,901528,1512.000,-199.000,2897.000,12963.000,1405.000,1470.000,0.000,0.000,0
2026-01-29 21:06:54,901568,2389.000,968.000,3941.000,13027.000,-1276.000,2405.000,0.000,0.000,0
2026-01-29 21:06:54,901608,2899.000,1837.000,4763.000,10191.000,-3216.000,5315.000,0.000,0.000,0
2026-01-29 21:06:54,901648,4006.000,2195.000,4478.000,8218.000,-4437.000,7227.000,0.000,0.000,0
2026-01-29 21:06:54,901688,6336.000,7280.000,7703.000,6828.000,-4383.000,7404.000,0.000,0.000,0
2026-01-29 21:06:54,901728,6712.000,6511.000,9988.000,2240.000,-4652.000,7132.000,0.000,0.000,0
2026-01-29 21:06:55,901768,8641.000,12997.000,11744.000,152.000,-4550.000,6345.000,0.000,0.000,0
2026-01-29 21:06:55,901808,7273.000,-3733.000,8138.000,-6073.000,-1711.000,2309.000,0.000,0.000,0
2026-01-29 21:06:55,901848,6711.000,2486.000,8758.000,9016.000,1576.000,-3591.000,0.000,0.000,0
2026-01-29 21:06:55,901888,6540.000,6935.000,7981.000,9398.000,1454.000,-3589.000,0.000,0.000,0
2026-01-29 21:06:55,901928,6413.000,4934.000,5339.000,1819.000,1295.000,-1114.000,0.000,0.000,0
2026-01-29 21:06:55,901968,6203.000,2225.000,3682.000,814.000,1142.000,474.000,0.000,0.000,0
2026-01-29 21:06:55,902008,6177.000,1639.000,2704.000,4640.000,36.000,502.000,0.000,0.000,0
2026-01-29 21:06:55,902048,5355.000,2150.000,1973.000,8339.000,-590.000,192.000,0.000,0.000,0
2026-01-29 21:06:55,902088,4520.000,2436.000,1742.000,8499.000,-909.000,164.000,0.000,0.000,0
2026-01-29 21:06:55,902128,4098.000,2367.000,1608.000,6298.000,-1412.000,813.000,0.000,0.000,0
2026-01-29 21:06:55,902168,4541.000,2026.000,1384.000,3962.000,-2072.000,2229.000,0.000,0.000,0
2026-01-29 21:06:55,902208,5997.000,3126.000,1610.000,4401.000,-3260.000,4083.000,0.000,0.000,0
2026-01-29 21:06:55,902248,7773.000,2359.000,-482.000,1819.000,-2931.000,5539.000,0.000,0.000,0
2026-01-29 21:06:55,902288,9267.000,2976.000,-1065.000,4623.000,-90.000,6037.000,0.000,0.000,0
2026-01-29 21:06:55,902328,9441.000,3838.000,680.000,7464.000,915.000,6625.000,0.000,0.000,0
2026-01-29 21:06:55,902368,12969.000,3058.000,-1412.000,7809.000,-783.000,6842.000,0.000,0.000,0
2026-01-29 21:06:55,902408,11417.000,4315.000,267.000,10047.000,-1013.000,7449.000,0.000,0.000,0
2026-01-29 21:06:55,902448,8793.000,3706.000,1279.000,8380.000,-3177.000,7342.000,0.000,0.000,0
2026-01-29 21:06:55,902488,10179.000,2667.000,-65.000,5121.000,-4212.000,4409.000,0.000,0.000,0
2026-01-29 21:06:55,902528,8547.000,2800.000,231.000,4456.000,-2814.000,1168.000,0.000,0.000,0
2026-01-29 21:06:55,902568,5356.000,1233.000,188.000,3673.000,-192.000,-221.000,0.000,0.000,0
2026-01-29 21:06:55,902608,4688.000,857.000,422.000,5211.000,801.000,-1838.000,0.000,0.000,0
2026-01-29 21:06:55,902648,4493.000,2437.000,179.000,6283.000,897.000,-1846.000,0.000,0.000,0
2026-01-29 21:06:55,902688,4809.000,1449.000,-325.000,5733.000,908.000,-1278.000,0.000,0.000,0
2026-01-29 21:06:55,902728,5372.000,1249.000,-394.000,6540.000,615.000,-519.000,0.000,0.000,0
2026-01-29 21:06:56,902768,7404.000,2369.000,-840.000,15658.000,-1437.000,-1062.000,0.000,0.000,0
2026-01-29 21:06:56,902808,8263.000,3462.000,-1269.000,15775.000,-624.000,-565.000,0.000,0.000,0
2026-01-29 21:06:56,902848,8550.000,5262.000,-1147.000,12162.000,572.000,-346.000,0.000,0.000,0
2026-01-29 21:06:56,902888,12552.000,4384.000,-1685.000,5831.000,573.000,352.000,0.000,0.000,0
2026-01-29 21:06:56,902928,13867.000,5506.000,-1101.000,728.000,1194.000,957.000,0.000,0.000,0
2026-01-29 21:06:56,902968,10436.000,4944.000,-1359.000,-4822.000,901.000,1280.000,0.000,0.000,0
2026-01-29 21:06:56,903008,12268.000,4587.000,-1613.000,-10911.000,713.000,-24.000,0.000,0.000,0
2026-01-29 21:06:56,903048,11207.000,2779.000,-1893.000,-17141.000,1093.000,-1602.000,0.000,0.000,0
2026-01-29 21:06:56,903088,8058.000,1499.000,-1507.000,-17404.000,1709.000,-3059.000,0.000,0.000,0
2026-01-29 21:06:56,903129,5914.000,749.000,-817.000,-14663.000,1800.000,-4321.000,0.000,0.000,0
2026-01-29 21:06:56,903168,5080.000,784.000,-641.000,-10918.000,1826.000,-4992.000,0.000,0.000,0
2026-01-29 21:06:56,903208,5260.000,1016.000,-658.000,-7601.000,2052.000,-4728.000,0.000,0.000,0
2026-01-29 21:06:56,903248,5582.000,861.000,-1098.000,-6123.000,2556.000,-3815.000,0.000,0.000,0
2026-01-29 21:06:56,903288,5879.000,234.000,-1660.000,-3898.000,3508.000,-2700.000,0.000,0.000,0
2026-01-29 21:06:56,903328,6952.000,282.000,-1811.000,115.000,4149.000,-1299.000,0.000,0.000,0
2026-01-29 21:06:56,903368,8014.000,734.000,-2417.000,4274.000,4094.000,113.000,0.000,0.000,0
2026-01-29 21:06:56,903408,7864.000,1610.000,-714.000,7652.000,3773.000,1073.000,0.000,0.000,0
2026-01-29 21:06:56,903448,11556.000,1036.000,-1282.000,8005.000,726.000,1514.000,0.000,0.000,0
2026-01-29 21:06:56,903488,10184.000,1830.000,-709.000,9300.000,574.000,2184.000,0.000,0.000,0
2026-01-29 21:06:56,903528,7270.000,3518.000,3475.000,6580.000,-1752.000,3885.000,0.000,0.000,0
2026-01-29 21:06:56,903568,9019.000,4007.000,3159.000,-3184.000,-6585.000,5621.000,0.000,0.000,0
2026-01-29 21:06:56,903608,9804.000,1257.000,720.000,-7837.000,-7432.000,5857.000,0.000,0.000,0
2026-01-29 21:06:56,903648,7877.000,-416.000,479.000,-1107.000,-4107.000,4702.000,0.000,0.000,0
2026-01-29 21:06:56,903688,5963.000,924.000,708.000,3125.000,-2247.000,2910.000,0.000,0.000,0
2026-01-29 21:06:56,903728,4915.000,2144.000,-236.000,9546.000,-110.000,1265.000,0.000,0.000,0
2026-01-29 21:06:57,903768,5461.000,2602.000,-31.000,9065.000,324.000,1075.000,0.000,0.000,0
2026-01-29 21:06:57,903808,6210.000,3228.000,102.000,6986.000,69.000,1449.000,0.000,0.000,0
2026-01-29 21:06:57,903848,6505.000,3176.000,-32.000,4117.000,-579.000,2400.000,0.000,0.000,0
2026-01-29 21:06:57,903888,8151.000,3023.000,-91.000,2047.000,-1586.000,2952.000,0.000,0.000,0
2026-01-29 21:06:57,903928,8393.000,3159.000,550.000,590.000,-2283.000,2793.000,0.000,0.000,0
2026-01-29 21:06:57,903968,8707.000,2963.000,-48.000,-131.000,-2835.000,1909.000,0.000,0.000,0
2026-01-29 21:06:57,904008,13509.000,4233.000,-855.000,-404.000,-1853.000,950.000,0.000,0.000,0
2026-01-29 21:06:57,904048,11567.000,4363.000,-331.000,-2950.000,114.000,552.000,0.000,0.000,0
2026-01-29 21:06:57,904088,11094.000,4057.000,-112.000,-5752.000,383.000,-401.000,0.000,0.000,0
2026-01-29 21:06:57,904128,13332.000,3628.000,-1296.000,-9498.000,1114.000,-1821.000,0.000,0.000,0
2026-01-29 21:06:57,904168,13243.000,2282.000,-2388.000,-11713.000,3572.000,-3261.000,0.000,0.000,0
2026-01-29 21:06:57,904208,10159.000,860.000,-1815.000,-11287.000,5954.000,-5184.000,0.000,0.000,0
2026-01-29 21:06:57,904248,7440.000,411.000,-1043.000,-10098.000,6106.000,-7350.000,0.000,0.000,0
2026-01-29 21:06:57,904288,6632.000,477.000,-1001.000,-8041.000,4900.000,-8350.000,0.000,0.000,0
2026-01-29 21:06:57,904328,6208.000,722.000,-1108.000,-5261.000,4091.000,-8425.000,0.000,0.000,0
2026-01-29 21:06:57,904368,5622.000,890.000,-1159.000,-3754.000,3968.000,-7388.000,0.000,0.000,0
2026-01-29 21:06:57,904408,5963.000,383.000,-1410.000,-3074.000,3753.000,-5873.000,0.000,0.000,0
2026-01-29 21:06:57,904448,7029.000,421.000,-1464.000,-877.000,3759.000,-3470.000,0.000,0.000,0
2026-01-29 21:06:57,904488,6985.000,687.000,-2011.000,2079.000,3647.000,-752.000,0.000,0.000,0
2026-01-29 21:06:57,904528,6004.000,375.000,-1844.000,5229.000,3496.000,812.000,0.000,0.000,0
2026-01-29 21:06:57,904568,6489.000,764.000,-669.000,7429.000,1888.000,2113.000,0.000,0.000,0
2026-01-29 21:06:57,904608,8847.000,1310.000,-174.000,8377.000,-372.000,4960.000,0.000,0.000,0
2026-01-29 21:06:57,904648,9792.000,3232.000,479.000,8399.000,-1150.000,6969.000,0.000,0.000,0
2026-01-29 21:06:57,904688,10891.000,3392.000,3135.000,1551.000,-7137.000,15143.000,0.000,0.000,0
2026-01-29 21:06:57,904728,12564.000,2964.000,1695.000,-4835.000,-10760.000,14466.000,0.000,0.000,0
2026-01-29 21:06:58,904768,9549.000,2052.000,98.000,-8372.000,-7070.000,8788.000,0.000,0.000,0
2026-01-29 21:06:58,904808,7445.000,1028.000,238.000,-3300.000,-2195.000,4037.000,0.000,0.000,0
2026-01-29 21:06:58,904848,5779.000,-315.000,673.000,5131.000,1632.000,-342.000,0.000,0.000,0
2026-01-29 21:06:58,904888,5624.000,1594.000,171.000,13681.000,2468.000,-2304.000,0.000,0.000,0
2026-01-29 21:06:58,904928,5869.000,3062.000,335.000,15406.000,1860.000,-1636.000,0.000,0.000,0
2026-01-29 21:06:58,904968,5877.000,3907.000,377.000,11901.000,952.000,289.000,0.000,0.000,0
2026-01-29 21:06:58,905008,6919.000,4246.000,545.000,5619.000,14.000,2565.000,0.000,0.000,0
2026-01-29 21:06:58,905048,8170.000,4671.000,1218.000,-81.000,-1106.000,3878.000,0.000,0.000,0
2026-01-29 21:06:58,905088,7617.000,4734.000,1240.000,-3190.000,-2159.000,3411.000,0.000,0.000,0
2026-01-29 21:06:58,905128,9012.000,4008.000,664.000,-5159.000,-2559.000,687.000,0.000,0.000,0
2026-01-29 21:06:58,905168,13258.000,4357.000,187.000,-5259.000,-1693.000,-1984.000,0.000,0.000,0
2026-01-29 21:06:58,905208,12745.000,3848.000,-316.000,-5980.000,161.000,-2813.000,0.000,0.000,0
2026-01-29 21:06:58,905248,14316.000,3827.000,-785.000,-7142.000,1638.000,-3896.000,0.000,0.000,0
2026-01-29 21:06:58,905288,15742.000,2562.000,-1523.000,-10026.000,3037.000,-5451.000,0.000,0.000,0
2026-01-29 21:06:58,905328,12735.000,405.000,-2160.000,-12157.000,5369.000,-6572.000,0.000,0.000,0
2026-01-29 21:06:58,905368,9214.000,594.000,-1464.000,-10269.000,7182.000,-8649.000,0.000,0.000,0
2026-01-29 21:06:58,905408,6831.000,191.000,-862.000,-7647.000,6870.000,-9712.000,0.000,0.000,0
2026-01-29 21:06:58,905448,6200.000,1604.000,-809.000,-5577.000,5249.000,-9362.000,0.000,0.000,0
2026-01-29 21:06:58,905488,6132.000,944.000,-1092.000,-5853.000,4456.000,-8418.000,0.000,0.000,0
2026-01-29 21:06:58,905528,5631.000,205.000,-1408.000,-4983.000,4694.000,-6884.000,0.000,0.000,0
2026-01-29 21:06:58,905568,5643.000,-541.000,-1870.000,-2087.000,4694.000,-5081.000,0.000,0.000,0
2026-01-29 21:06:58,905608,5880.000,-216.000,-2045.000,148.000,4402.000,-3012.000,0.000,0.000,0
2026-01-29 21:06:58,905648,5696.000,1093.000,-1563.000,7806.000,3069.000,1505.000,0.000,0.000,0
2026-01-29 21:06:58,905688,7885.000,1497.000,-276.000,8015.000,387.000,5493.000,0.000,0.000,0
2026-01-29 21:06:58,905728,10019.000,2211.000,-189.000,6551.000,-2621.000,10311.000,0.000,0.000,0
2026-01-29 21:06:59,905768,11340.000,4013.000,3250.000,1478.000,-4771.000,13710.000,0.000,0.000,0
2026-01-29 21:06:59,905808,11556.000,5351.000,5034.000,-6255.000,-10653.000,15487.000,0.000,0.000,0
2026-01-29 21:06:59,905848,11787.000,3495.000,2342.000,-10914.000,-16434.000,15236.000,0.000,0.000,0
2026-01-29 21:06:59,905888,9378.000,177.000,425.000,-5731.000,-13995.000,11050.000,0.000,0.000,0
2026-01-29 21:06:59,905928,7622.000,-883.000,-1097.000,-300.000,-6913.000,5260.000,0.000,0.000,0
2026-01-29 21:06:59,905968,5741.000,-1235.000,-605.000,5946.000,-1541.000,-684.000,0.000,0.000,0
2026-01-29 21:06:59,906008,6755.000,189.000,-1072.000,12880.000,1067.000,-4274.000,0.000,0.000,0
2026-01-29 21:06:59,906048,6087.000,2740.000,-179.000,17350.000,2803.000,-4925.000,0.000,0.000,0
2026-01-29 21:06:59,906088,6195.000,4049.000,354.000,14533.000,2153.000,-2352.000,0.000,0.000,0
2026-01-29 21:06:59,906128,7129.000,4881.000,879.000,7868.000,804.000,1159.000,0.000,0.000,0
2026-01-29 21:06:59,906168,8429.000,5107.000,1644.000,-539.000,-898.000,3288.000,0.000,0.000,0
2026-01-29 21:06:59,906208,9143.000,4181.000,1298.000,-6657.000,-2674.000,3306.000,0.000,0.000,0
2026-01-29 21:06:59,906248,10501.000,2483.000,309.000,-7588.000,-2594.000,912.000,0.000,0.000,0
2026-01-29 21:06:59,906288,12619.000,2991.000,-17.000,-4607.000,-467.000,-1565.000,0.000,0.000,0
2026-01-29 21:06:59,906328,11805.000,3447.000,351.000,-3880.000,1844.000,-2609.000,0.000,0.000,0
2026-01-29 21:06:59,906368,13715.000,3356.000,-1045.000,-6244.000,3173.000,-3218.000,0.000,0.000,0
2026-01-29 21:06:59,906408,14161.000,2069.000,-1828.000,-8305.000,5245.000,-4676.000,0.000,0.000,0
2026-01-29 21:06:59,906448,12259.000,1236.000,-1402.000,-9620.000,6636.000,-5946.000,0.000,0.000,0
2026-01-29 21:06:59,906488,9881.000,1115.000,643.000,-10536.000,5981.000,-8094.000,0.000,0.000,0
2026-01-29 21:06:59,906528,9855.000,1345.000,-418.000,-11357.000,4411.000,-9514.000,0.000,0.000,0
2026-01-29 21:06:59,906568,8985.000,799.000,-2173.000,-11118.000,4530.000,-9537.000,0.000,0.000,0
2026-01-29 21:06:59,906608,5152.000,-822.000,-1708.000,-6518.000,8386.000,-7096.000,0.000,0.000,0
2026-01-29 21:06:59,906648,4283.000,-1114.000,-1483.000,-2068.000,8557.000,-5614.000,0.000,0.000,0
2026-01-29 21:06:59,906688,4056.000,-576.000,-1151.000,2879.000,7284.000,-3547.000,0.000,0.000,0
2026-01-29 21:06:59,906728,4991.000,320.000,-1787.000,6809.000,5931.000,-568.000,0.000,0.000,0
2026-01-29 21:07:00,906768,4970.000,759.000,-2057.000,9525.000,5109.000,2361.000,0.000,0.000,0
2026-01-29 21:07:00,906808,5786.000,1856.000,-2249.000,9672.000,2117.000,5471.000,0.000,0.000,0
2026-01-29 21:07:00,906848,7320.000,2425.000,-619.000,8789.000,-2536.000,9465.000,0.000,0.000,0
2026-01-29 21:07:00,906888,9522.000,4016.000,2115.000,4665.000,-9399.000,14584.000,0.000,0.000,0
2026-01-29 21:07:00,906928,14428.000,3703.000,22.000,-3902.000,-15920.000,18620.000,0.000,0.000,0
2026-01-29 21:07:00,906968,13347.000,3943.000,-1058.000,-10701.000,-15177.000,18614.000,0.000,0.000,0
2026-01-29 21:07:00,907008,11109.000,-1782.000,-2141.000,-11037.000,-13025.000,14293.000,0.000,0.000,0
2026-01-29 21:07:00,907048,7833.000,-4302.000,-768.000,-766.000,-7934.000,5821.000,0.000,0.000,0
2026-01-29 21:07:00,907088,4618.000,-4396.000,-801.000,12018.000,-5991.000,-1602.000,0.000,0.000,0
2026-01-29 21:07:00,907128,7410.000,981.000,-1390.000,21887.000,-6759.000,-6186.000,0.000,0.000,0
2026-01-29 21:07:00,907168,8153.000,5253.000,-840.000,20711.000,-4802.000,-5352.000,0.000,0.000,0
2026-01-29 21:07:00,907208,7808.000,7502.000,218.000,11423.000,-2009.000,-509.000,0.000,0.000,0
2026-01-29 21:07:00,907248,10372.000,7037.000,56.000,-696.000,-445.000,3737.000,0.000,0.000,0
2026-01-29 21:07:00,907288,9626.000,3951.000,248.000,-9437.000,482.000,4744.000,0.000,0.000,0
2026-01-29 21:07:00,907328,8470.000,59.000,-837.000,-9821.000,-729.000,2531.000,0.000,0.000,0
2026-01-29 21:07:00,907368,12081.000,-1804.000,-3885.000,-2604.000,203.000,-2238.000,0.000,0.000,0
2026-01-29 21:07:00,907408,11868.000,1747.000,-2934.000,3901.000,5761.000,-7083.000,0.000,0.000,0
2026-01-29 21:07:00,907448,11307.000,3422.000,-1569.000,3096.000,6183.000,-8758.000,0.000,0.000,0
2026-01-29 21:07:00,907488,15853.000,3554.000,-3971.000,-2275.000,4494.000,-9310.000,0.000,0.000,0
2026-01-29 21:07:00,907528,13134.000,1360.000,-3874.000,-8386.000,5744.000,-9453.000,0.000,0.000,0
2026-01-29 21:07:00,907568,9876.000,830.000,-2751.000,-12408.000,6399.000,-9816.000,0.000,0.000,0
2026-01-29 21:07:00,907608,7742.000,-27.000,-2473.000,-11788.000,6138.000,-9323.000,0.000,0.000,0
2026-01-29 21:07:00,907648,5911.000,-322.000,-1809.000,-9198.000,5431.000,-8502.000,0.000,0.000,0
2026-01-29 21:07:00,907688,5486.000,-81.000,-1869.000,-6545.000,4621.000,-7429.000,0.000,0.000,0
2026-01-29 21:07:00,907728,4428.000,140.000,-1638.000,-4582.000,4384.000,-5356.000,0.000,0.000,0
2026-01-29 21:07:01,907768,3562.000,-506.000,-1876.000,-3423.000,3569.000,-3296.000,0.000,0.000,0
2026-01-29 21:07:01,907808,3726.000,-764.000,-2215.000,-175.000,2121.000,-1046.000,0.000,0.000,0
2026-01-29 21:07:01,907848,3923.000,162.000,-2079.000,3749.000,849.000,1764.000,0.000,0.000,0
2026-01-29 21:07:01,907888,6474.000,1257.000,-2386.000,6017.000,-1529.000,5051.000,0.000,0.000,0
2026-01-29 21:07:01,907928,12126.000,2402.000,-41.000,5672.000,-4696.000,8419.000,0.000,0.000,0
2026-01-29 21:07:01,907968,14285.000,5525.000,2926.000,1805.000,-10937.000,13827.000,0.000,0.000,0
2026-01-29 21:07:01,908008,13477.000,3526.000,665.000,-8374.000,-17586.000,17448.000,0.000,0.000,0
2026-01-29 21:07:01,908048,10690.000,-1366.000,-12.000,-9293.000,-16428.000,13547.000,0.000,0.000,0
2026-01-29 21:07:01,908088,10490.000,-2016.000,-3051.000,-306.000,-8305.000,7901.000,0.000,0.000,0
2026-01-29 21:07:01,908128,7842.000,295.000,-1434.000,5815.000,-1587.000,3335.000,0.000,0.000,0
2026-01-29 21:07:01,908168,5611.000,1303.000,-811.000,10553.000,101.000,1148.000,0.000,0.000,0
2026-01-29 21:07:01,908208,5136.000,1186.000,-824.000,13254.000,-1752.000,-894.000,0.000,0.000,0
2026-01-29 21:07:01,908248,5270.000,3416.000,-761.000,15346.000,-3486.000,-1474.000,0.000,0.000,0
2026-01-29 21:07:01,908288,5955.000,4095.000,64.000,11400.000,-3433.000,-629.000,0.000,0.000,0
2026-01-29 21:07:01,908328,7943.000,5286.000,-227.000,4214.000,-2769.000,944.000,0.000,0.000,0
2026-01-29 21:07:01,908368,9601.000,4414.000,309.000,-2842.000,-1426.000,2000.000,0.000,0.000,0
2026-01-29 21:07:01,908408,9726.000,3443.000,1192.000,-7297.000,-1276.000,939.000,0.000,0.000,0
2026-01-29 21:07:01,908448,11671.000,1325.000,-436.000,-8793.000,-1527.000,-1031.000,0.000,0.000,0
2026-01-29 21:07:01,908488,15203.000,1022.000,-1639.000,-4697.000,3425.000,-4568.000,0.000,0.000,0
2026-01-29 21:07:01,908528,13735.000,1322.000,-1139.000,-3396.000,6492.000,-5623.000,0.000,0.000,0
2026-01-29 21:07:01,908568,15124.000,1263.000,-2325.000,-4811.000,8489.000,-6797.000,0.000,0.000,0
2026-01-29 21:07:01,908608,12852.000,296.000,-2264.000,-6388.000,10719.000,-8211.000,0.000,0.000,0
2026-01-29 21:07:01,908648,8175.000,844.000,-1217.000,-7006.000,10529.000,-7870.000,0.000,0.000,0
2026-01-29 21:07:01,908688,5858.000,448.000,-1098.000,-7535.000,8552.000,-6994.000,0.000,0.000,0
2026-01-29 21:07:01,908728,4761.000,393.000,-596.000,-5986.000,5949.000,-5752.000,0.000,0.000,0
2026-01-29 21:07:02,908768,5343.000,362.000,-416.000,-2922.000,3988.000,-4330.000,0.000,0.000,0
2026-01-29 21:07:02,908808,6143.000,534.000,-846.000,-383.000,3079.000,-3105.000,0.000,0.000,0
2026-01-29 21:07:02,908848,6500.000,197.000,-2932.000,1747.000,3985.000,-2417.000,0.000,0.000,0
2026-01-29 21:07:02,908888,6743.000,-6366.000,-6172.000,7295.000,6366.000,-1971.000,0.000,0.000,0
2026-01-29 21:07:02,908928,6992.000,1876.000,-3563.000,16395.000,8819.000,-3148.000,0.000,0.000,0
2026-01-29 21:07:02,908968,6535.000,6980.000,2187.000,10273.000,5287.000,5284.000,0.000,0.000,0
2026-01-29 21:07:02,909008,8093.000,2166.000,2784.000,-414.000,-2825.000,11226.000,0.000,0.000,0
2026-01-29 21:07:02,909048,10827.000,1961.000,1445.000,-7090.000,-10270.000,11166.000,0.000,0.000,0
2026-01-29 21:07:02,909088,12036.000,2524.000,287.000,-10233.000,-14056.000,10583.000,0.000,0.000,0
2026-01-29 21:07:02,909128,11289.000,309.000,-38.000,-9639.000,-13543.000,9992.000,0.000,0.000,0
2026-01-29 21:07:02,909168,10771.000,-1788.000,-945.000,522.000,-10962.000,7296.000,0.000,0.000,0
2026-01-29 21:07:02,909208,8434.000,-161.000,-700.000,10408.000,-6341.000,3526.000,0.000,0.000,0
2026-01-29 21:07:02,909248,5963.000,1278.000,299.000,12207.000,-2405.000,162.000,0.000,0.000,0
2026-01-29 21:07:02,909288,6205.000,1958.000,592.000,10767.000,-2405.000,-1379.000,0.000,0.000,0
2026-01-29 21:07:02,909328,6214.000,2969.000,277.000,8781.000,-1586.000,-324.000,0.000,0.000,0
2026-01-29 21:07:02,909368,7140.000,3713.000,860.000,4878.000,-724.000,2458.000,0.000,0.000,0
2026-01-29 21:07:02,909408,8025.000,3348.000,1321.000,-416.000,-702.000,4422.000,0.000,0.000,0
2026-01-29 21:07:02,909448,9330.000,2988.000,1527.000,-3854.000,-1663.000,4581.000,0.000,0.000,0
2026-01-29 21:07:02,909488,8748.000,2055.000,453.000,-6205.000,-2061.000,2657.000,0.000,0.000,0
2026-01-29 21:07:02,909528,11483.000,175.000,-2198.000,-4780.000,-922.000,107.000,0.000,0.000,0
2026-01-29 21:07:02,909568,14865.000,1696.000,-1661.000,-1137.000,3164.000,-2352.000,0.000,0.000,0
2026-01-29 21:07:02,909608,11999.000,1985.000,-893.000,-1801.000,6178.000,-3682.000,0.000,0.000,0
2026-01-29 21:07:02,909648,12981.000,1470.000,-2355.000,-2911.000,5566.000,-4919.000,0.000,0.000,0
2026-01-29 21:07:02,909688,13401.000,836.000,-2918.000,-5173.000,6960.000,-6596.000,0.000,0.000,0
2026-01-29 21:07:02,909728,10988.000,346.000,-1973.000,-5496.000,8172.000,-7923.000,0.000,0.000,0
2026-01-29 21:07:03,909769,8176.000,994.000,-153.000,-5557.000,6236.000,-8408.000,0.000,0.000,0
2026-01-29 21:07:03,909808,7268.000,2063.000,-1638.000,-8770.000,2182.000,-7646.000,0.000,0.000,0
2026-01-29 21:07:03,909848,7878.000,693.000,-3343.000,-10670.000,2290.000,-5872.000,0.000,0.000,0
2026-01-29 21:07:03,909888,6581.000,-802.000,-3044.000,-7326.000,6062.000,-4730.000,0.000,0.000,0
2026-01-29 21:07:03,909928,4460.000,-1280.000,-2072.000,-4569.000,7284.000,-5119.000,0.000,0.000,0
2026-01-29 21:07:03,909968,3918.000,-1769.000,-2402.000,-1138.000,5542.000,-3833.000,0.000,0.000,0
2026-01-29 21:07:03,910008,4115.000,-527.000,-2443.000,4434.000,3797.000,-2518.000,0.000,0.000,0
2026-01-29 21:07:03,910048,4118.000,673.000,-2455.000,7610.000,1746.000,-232.000,0.000,0.000,0
2026-01-29 21:07:03,910088,7852.000,1045.000,-2155.000,8015.000,-1548.000,2870.000,0.000,0.000,0
2026-01-29 21:07:03,910128,11418.000,1216.000,-1664.000,6132.000,-1199.000,5912.000,0.000,0.000,0
2026-01-29 21:07:03,910168,12580.000,1910.000,206.000,4726.000,-1756.000,10049.000,0.000,0.000,0
2026-01-29 21:07:03,910208,14102.000,2011.000,1210.000,3534.000,-4530.000,13535.000,0.000,0.000,0
2026-01-29 21:07:03,910248,12587.000,180.000,2426.000,2750.000,-9794.000,13587.000,0.000,0.000,0
2026-01-29 21:07:03,910288,10373.000,2013.000,857.000,4800.000,-11200.000,10371.000,0.000,0.000,0
2026-01-29 21:07:03,910328,7445.000,1427.000,-1004.000,2368.000,-8739.000,8204.000,0.000,0.000,0
2026-01-29 21:07:03,910368,4955.000,2246.000,-196.000,917.000,-2855.000,3971.000,0.000,0.000,0
2026-01-29 21:07:03,910408,7116.000,266.000,-1220.000,1513.000,-3481.000,2180.000,0.000,0.000,0
2026-01-29 21:07:03,910448,6521.000,2047.000,-556.000,9091.000,-1107.000,-226.000,0.000,0.000,0
2026-01-29 21:07:03,910488,7641.000,3454.000,1219.000,7707.000,-1368.000,-1005.000,0.000,0.000,0
2026-01-29 21:07:03,910528,8372.000,3609.000,1879.000,3917.000,-2900.000,-332.000,0.000,0.000,0
2026-01-29 21:07:03,910568,8727.000,3327.000,1186.000,-346.000,-3427.000,-218.000,0.000,0.000,0
2026-01-29 21:07:03,910608,9293.000,1561.000,88.000,-3612.000,-2454.000,-784.000,0.000,0.000,0
2026-01-29 21:07:03,910648,11821.000,913.000,-1392.000,-3208.000,-642.000,-1853.000,0.000,0.000,0
2026-01-29 21:07:03,910688,14620.000,2505.000,-1548.000,-2167.000,2776.000,-1986.000,0.000,0.000,0
2026-01-29 21:07:03,910728,11994.000,2803.000,742.000,-4702.000,3822.000,-2196.000,0.000,0.000,0
2026-01-29 21:07:04,910768,12469.000,2128.000,-912.000,-7941.000,2399.000,-3038.000,0.000,0.000,0
2026-01-29 21:07:04,910808,13660.000,1021.000,-3118.000,-10559.000,4688.000,-4698.000,0.000,0.000,0
2026-01-29 21:07:04,910848,11343.000,-975.000,-3160.000,-10547.000,8904.000,-6377.000,0.000,0.000,0
2026-01-29 21:07:04,910888,7841.000,-47.000,-1581.000,-8611.000,10895.000,-6688.000,0.000,0.000,0
2026-01-29 21:07:04,910928,6092.000,-425.000,-853.000,-5828.000,9686.000,-6911.000,0.000,0.000,0
2026-01-29 21:07:04,910968,4956.000,131.000,1041.000,-3037.000,6482.000,-6836.000,0.000,0.000,0
2026-01-29 21:07:04,911008,6130.000,646.000,-944.000,-1413.000,2329.000,-5906.000,0.000,0.000,0
2026-01-29 21:07:04,911048,6118.000,1268.000,-1937.000,-1221.000,1781.000,-3540.000,0.000,0.000,0
2026-01-29 21:07:04,911088,5938.000,1464.000,-2473.000,-589.000,1760.000,-693.000,0.000,0.000,0
2026-01-29 21:07:04,911128,5504.000,651.000,-2505.000,-635.000,2548.000,956.000,0.000,0.000,0
2026-01-29 21:07:04,911168,5112.000,721.000,-2715.000,1201.000,1301.000,2022.000,0.000,0.000,0
2026-01-29 21:07:04,911208,5625.000,824.000,-2118.000,3816.000,-762.000,3141.000,0.000,0.000,0
2026-01-29 21:07:04,911248,10228.000,488.000,-2556.000,6511.000,-3375.000,5045.000,0.000,0.000,0
2026-01-29 21:07:04,911288,12315.000,1953.000,425.000,8433.000,-4620.000,7802.000,0.000,0.000,0
2026-01-29 21:07:04,911328,12305.000,2487.000,170.000,6684.000,-7023.000,10919.000,0.000,0.000,0
2026-01-29 21:07:04,911368,10562.000,-91.000,2620.000,5480.000,-7783.000,10581.000,0.000,0.000,0
2026-01-29 21:07:04,911408,9452.000,396.000,218.000,4259.000,-8838.000,3062.000,0.000,0.000,0
2026-01-29 21:07:04,911448,7270.000,-360.000,-943.000,6225.000,-3188.000,-713.000,0.000,0.000,0
2026-01-29 21:07:04,911488,5758.000,330.000,-315.000,9064.000,-198.000,-2230.000,0.000,0.000,0
2026-01-29 21:07:04,911528,5582.000,2674.000,210.000,11246.000,1365.000,-1871.000,0.000,0.000,0
2026-01-29 21:07:04,911568,6051.000,3886.000,810.000,9195.000,2429.000,554.000,0.000,0.000,0
2026-01-29 21:07:04,911608,6526.000,4222.000,922.000,3610.000,1961.000,3018.000,0.000,0.000,0
2026-01-29 21:07:04,911648,8580.000,3803.000,880.000,-1689.000,51.000,4466.000,0.000,0.000,0
2026-01-29 21:07:04,911688,9203.000,3330.000,56.000,-4778.000,-1704.000,2925.000,0.000,0.000,0
2026-01-29 21:07:04,911728,9242.000,1928.000,-601.000,-3833.000,-1595.000,-326.000,0.000,0.000,0
2026-01-29 21:07:05,911768,10648.000,1592.000,-765.000,-709.000,-827.000,-2844.000,0.000,0.000,0
2026-01-29 21:07:05,911808,12077.000,3046.000,-614.000,1600.000,235.000,-3453.000,0.000,0.000,0
2026-01-29 21:07:05,911848,11847.000,4213.000,368.000,-1223.000,856.000,-2333.000,0.000,0.000,0
2026-01-29 21:07:05,911888,13442.000,4069.000,-121.000,-8026.000,967.000,-1268.000,0.000,0.000,0
2026-01-29 21:07:05,911928,13450.000,2347.000,-1240.000,-12915.000,2249.000,-2018.000,0.000,0.000,0
2026-01-29 21:07:05,911968,10607.000,520.000,-1616.000,-14883.000,4525.000,-4225.000,0.000,0.000,0
2026-01-29 21:07:05,912008,8713.000,88.000,-1231.000,-11610.000,6336.000,-6084.000,0.000,0.000,0
2026-01-29 21:07:05,912048,7100.000,-206.000,-793.000,-8020.000,7537.000,-7711.000,0.000,0.000,0
2026-01-29 21:07:05,912088,6414.000,252.000,-1081.000,-4276.000,7348.000,-8532.000,0.000,0.000,0
2026-01-29 21:07:05,912128,6071.000,640.000,-1150.000,-2662.000,7070.000,-8166.000,0.000,0.000,0
2026-01-29 21:07:05,912168,5554.000,-574.000,-1847.000,-2093.000,7169.000,-6197.000,0.000,0.000,0
2026-01-29 21:07:05,912208,4726.000,-2742.000,-2775.000,947.000,8034.000,-2274.000,0.000,0.000,0
2026-01-29 21:07:05,912248,4682.000,-430.000,-419.000,3531.000,7771.000,2947.000,0.000,0.000,0
2026-01-29 21:07:05,912288,6631.000,207.000,-882.000,4251.000,2642.000,7694.000,0.000,0.000,0
2026-01-29 21:07:05,912328,12897.000,732.000,-1285.000,5417.000,-2429.000,10668.000,0.000,0.000,0
2026-01-29 21:07:05,912368,12544.000,2266.000,2346.000,5872.000,-8339.000,12386.000,0.000,0.000,0
2026-01-29 21:07:05,912408,11430.000,3697.000,5572.000,-2014.000,-15051.000,12718.000,0.000,0.000,0
2026-01-29 21:07:05,912448,12229.000,966.000,-2213.000,-9091.000,-16582.000,8758.000,0.000,0.000,0
2026-01-29 21:07:05,912488,7811.000,443.000,-1383.000,-3131.000,-8577.000,3096.000,0.000,0.000,0
2026-01-29 21:07:05,912528,6560.000,-1423.000,-426.000,1922.000,-2737.000,-1389.000,0.000,0.000,0
2026-01-29 21:07:05,912568,6209.000,-1209.000,-516.000,9659.000,-755.000,-3807.000,0.000,0.000,0
2026-01-29 21:07:05,912608,5835.000,1421.000,-494.000,15273.000,865.000,-4013.000,0.000,0.000,0
2026-01-29 21:07:05,912648,5307.000,3889.000,418.000,15487.000,1236.000,-1634.000,0.000,0.000,0
2026-01-29 21:07:05,912688,5550.000,4480.000,1435.000,9082.000,-92.000,2652.000,0.000,0.000,0
2026-01-29 21:07:05,912728,6504.000,4883.000,1511.000,886.000,-1973.000,6368.000,0.000,0.000,0
2026-01-29 21:07:06,912768,8147.000,4425.000,428.000,-6137.000,-3670.000,8085.000,0.000,0.000,0
2026-01-29 21:07:06,912808,10088.000,3089.000,-465.000,-9557.000,-3611.000,6790.000,0.000,0.000,0
2026-01-29 21:07:06,912848,9480.000,1095.000,-1232.000,-8606.000,-1772.000,2837.000,0.000,0.000,0
2026-01-29 21:07:06,912888,14932.000,254.000,-1833.000,-5467.000,-323.000,-893.000,0.000,0.000,0
2026-01-29 21:07:06,912928,13369.000,2176.000,-1103.000,-1841.000,4087.000,-3868.000,0.000,0.000,0
2026-01-29 21:07:06,912968,14530.000,1949.000,-2263.000,-2429.000,5876.000,-5051.000,0.000,0.000,0
2026-01-29 21:07:06,913008,15012.000,847.000,-2211.000,-5287.000,8262.000,-7522.000,0.000,0.000,0
2026-01-29 21:07:06,913048,12167.000,379.000,-1787.000,-7744.000,9404.000,-9174.000,0.000,0.000,0
2026-01-29 21:07:06,913088,8532.000,523.000,-1113.000,-7409.000,8785.000,-9342.000,0.000,0.000,0
2026-01-29 21:07:06,913128,6600.000,505.000,-937.000,-6103.000,7619.000,-8674.000,0.000,0.000,0
2026-01-29 21:07:06,913168,6248.000,518.000,-530.000,-4636.000,5953.000,-8223.000,0.000,0.000,0
2026-01-29 21:07:06,913208,5951.000,652.000,-778.000,-3791.000,5116.000,-7296.000,0.000,0.000,0
2026-01-29 21:07:06,913248,5054.000,454.000,-1160.000,-3987.000,5200.000,-5974.000,0.000,0.000,0
2026-01-29 21:07:06,913288,5390.000,-482.000,-2106.000,-2773.000,4258.000,-3282.000,0.000,0.000,0
2026-01-29 21:07:06,913328,5344.000,-207.000,-2266.000,1557.000,4290.000,-469.000,0.000,0.000,0
2026-01-29 21:07:06,913368,5581.000,2813.000,-1135.000,3473.000,2863.000,3572.000,0.000,0.000,0
2026-01-29 21:07:06,913408,8773.000,3495.000,-491.000,-347.000,-771.000,8301.000,0.000,0.000,0
2026-01-29 21:07:06,913448,9116.000,2374.000,1521.000,-2649.000,-6320.000,10958.000,0.000,0.000,0
2026-01-29 21:07:06,913488,10545.000,40.000,1655.000,-2191.000,-12488.000,9901.000,0.000,0.000,0
2026-01-29 21:07:06,913528,12816.000,-1932.000,3579.000,33.000,-15948.000,5533.000,0.000,0.000,0
2026-01-29 21:07:06,913568,14453.000,3290.000,-1009.000,4645.000,-15204.000,2661.000,0.000,0.000,0
2026-01-29 21:07:06,913608,7354.000,638.000,1473.000,6971.000,-6247.000,2034.000,0.000,0.000,0
2026-01-29 21:07:06,913648,7718.000,347.000,55.000,7197.000,-5300.000,1982.000,0.000,0.000,0
2026-01-29 21:07:06,913688,6358.000,1079.000,265.000,11571.000,-1062.000,411.000,0.000,0.000,0
2026-01-29 21:07:06,913728,6316.000,3242.000,1503.000,13284.000,414.000,372.000,0.000,0.000,0
2026-01-29 21:07:07,913768,6232.000,4233.000,2028.000,8310.000,-401.000,2238.000,0.000,0.000,0
2026-01-29 21:07:07,913808,7626.000,4408.000,1725.000,924.000,-1980.000,4656.000,0.000,0.000,0
2026-01-29 21:07:07,913848,9954.000,3788.000,1018.000,-5078.000,-2918.000,6154.000,0.000,0.000,0
2026-01-29 21:07:07,913888,8745.000,3115.000,610.000,-7447.000,-2067.000,5220.000,0.000,0.000,0
2026-01-29 21:07:07,913928,10973.000,951.000,-1423.000,-7190.000,-1770.000,3115.000,0.000,0.000,0
2026-01-29 21:07:07,913968,12741.000,1750.000,-1568.000,-3979.000,1670.000,219.000,0.000,0.000,0
2026-01-29 21:07:07,914008,12166.000,2612.000,-900.000,-2544.000,4165.000,-1634.000,0.000,0.000,0
2026-01-29 21:07:07,914048,14237.000,2365.000,-2523.000,-4680.000,5313.000,-3267.000,0.000,0.000,0
2026-01-29 21:07:07,914088,14200.000,875.000,-3462.000,-5429.000,8408.000,-5309.000,0.000,0.000,0
2026-01-29 21:07:07,914128,11564.000,-52.000,-1944.000,-4731.000,10445.000,-7625.000,0.000,0.000,0
2026-01-29 21:07:07,914168,8502.000,661.000,-212.000,-4895.000,9302.000,-9372.000,0.000,0.000,0
2026-01-29 21:07:07,914208,6849.000,1115.000,-50.000,-6283.000,7431.000,-9932.000,0.000,0.000,0
2026-01-29 21:07:07,914248,7082.000,1721.000,-1535.000,-8584.000,6114.000,-8212.000,0.000,0.000,0
2026-01-29 21:07:07,914288,6215.000,966.000,-2354.000,-15257.000,8126.000,-5409.000,0.000,0.000,0
2026-01-29 21:07:07,914328,4303.000,-3894.000,-3942.000,-12716.000,9324.000,-1992.000,0.000,0.000,0
2026-01-29 21:07:07,914368,4249.000,-2384.000,-2365.000,3444.000,6970.000,-68.000,0.000,0.000,0
2026-01-29 21:07:07,914408,5146.000,1992.000,-95.000,8667.000,1780.000,3638.000,0.000,0.000,0
2026-01-29 21:07:07,914448,6650.000,948.000,-517.000,5112.000,-3175.000,6149.000,0.000,0.000,0
2026-01-29 21:07:07,914488,9960.000,-891.000,-1069.000,4906.000,-7256.000,6936.000,0.000,0.000,0
2026-01-29 21:07:07,914528,12204.000,-199.000,-451.000,8751.000,-10286.000,7599.000,0.000,0.000,0
2026-01-29 21:07:07,914568,13850.000,1675.000,3590.000,9705.000,-14339.000,9154.000,0.000,0.000,0
2026-01-29 21:07:07,914608,14735.000,3000.000,1232.000,4504.000,-17382.000,10376.000,0.000,0.000,0
2026-01-29 21:07:07,914648,10272.000,1389.000,196.000,320.000,-13758.000,9069.000,0.000,0.000,0
2026-01-29 21:07:07,914688,6847.000,-382.000,-764.000,-106.000,-7546.000,5377.000,0.000,0.000,0
2026-01-29 21:07:07,914728,4902.000,-1371.000,-314.000,3756.000,-3937.000,1621.000,0.000,0.000,0
2026-01-29 21:07:08,914768,6466.000,1046.000,-466.000,9859.000,-1603.000,-1814.000,0.000,0.000,0
2026-01-29 21:07:08,914808,6584.000,3040.000,534.000,9484.000,877.000,-1614.000,0.000,0.000,0
2026-01-29 21:07:08,914848,5891.000,4464.000,2219.000,5689.000,1089.000,1473.000,0.000,0.000,0
2026-01-29 21:07:08,914888,7225.000,3135.000,1864.000,1047.000,-1788.000,4139.000,0.000,0.000,0
2026-01-29 21:07:08,914928,10373.000,2626.000,624.000,-1222.000,-3767.000,4160.000,0.000,0.000,0
2026-01-29 21:07:08,914968,10238.000,2430.000,-45.000,-2762.000,-2593.000,1967.000,0.000,0.000,0
2026-01-29 21:07:08,915008,11131.000,768.000,-980.000,-4130.000,-1370.000,-129.000,0.000,0.000,0
2026-01-29 21:07:08,915048,12782.000,1139.000,-1304.000,-2247.000,1448.000,-2482.000,0.000,0.000,0
2026-01-29 21:07:08,915088,12872.000,1843.000,-1520.000,-2137.000,4535.000,-4038.000,0.000,0.000,0
2026-01-29 21:07:08,915128,14408.000,1533.000,-2559.000,-3991.000,6840.000,-5585.000,0.000,0.000,0
2026-01-29 21:07:08,915168,15245.000,504.000,-3048.000,-5585.000,9518.000,-7501.000,0.000,0.000,0
2026-01-29 21:07:08,915208,11091.000,-395.000,-1052.000,-7803.000,11018.000,-9174.000,0.000,0.000,0
2026-01-29 21:07:08,915248,9187.000,227.000,-750.000,-7661.000,9520.000,-9436.000,0.000,0.000,0
2026-01-29 21:07:08,915288,6277.000,925.000,-904.000,-3358.000,7368.000,-8933.000,0.000,0.000,0
2026-01-29 21:07:08,915328,5351.000,-82.000,-1230.000,-4433.000,6840.000,-8201.000,0.000,0.000,0
2026-01-29 21:07:08,915368,4432.000,-249.000,-1265.000,-3201.000,6487.000,-7442.000,0.000,0.000,0
2026-01-29 21:07:08,915408,4335.000,-772.000,-1473.000,-769.000,5304.000,-6042.000,0.000,0.000,0
2026-01-29 21:07:08,915448,5226.000,-270.000,-2321.000,2457.000,4144.000,-3857.000,0.000,0.000,0
2026-01-29 21:07:08,915488,4788.000,776.000,-2137.000,6598.000,3208.000,-460.000,0.000,0.000,0
2026-01-29 21:07:08,915528,5201.000,1551.000,-769.000,7852.000,818.000,3199.000,0.000,0.000,0
2026-01-29 21:07:08,915568,7841.000,1514.000,-1201.000,4865.000,-2119.000,6655.000,0.000,0.000,0
2026-01-29 21:07:08,915608,10826.000,1761.000,-1045.000,3526.000,-3878.000,10976.000,0.000,0.000,0
2026-01-29 21:07:08,915648,13044.000,3839.000,2692.000,1496.000,-7622.000,15750.000,0.000,0.000,0
2026-01-29 21:07:08,915688,13692.000,3619.000,2880.000,-6028.000,-15003.000,18077.000,0.000,0.000,0
2026-01-29 21:07:08,915728,12805.000,-415.000,125.000,-10359.000,-16450.000,14988.000,0.000,0.000,0
2026-01-29 21:07:09,915768,9456.000,-1284.000,-2226.000,-4671.000,-13679.000,7053.000,0.000,0.000,0
2026-01-29 21:07:09,915808,5728.000,-130.000,-839.000,426.000,-4093.000,2264.000,0.000,0.000,0
2026-01-29 21:07:09,915848,6604.000,-558.000,-450.000,4229.000,-2968.000,-93.000,0.000,0.000,0
2026-01-29 21:07:09,915888,7288.000,252.000,-348.000,9017.000,-285.000,-1837.000,0.000,0.000,0
2026-01-29 21:07:09,915928,6195.000,2435.000,761.000,13330.000,587.000,-2313.000,0.000,0.000,0
2026-01-29 21:07:09,915968,7308.000,4003.000,869.000,11959.000,-1245.000,-793.000,0.000,0.000,0
2026-01-29 21:07:09,916008,8844.000,4427.000,1108.000,4908.000,-2366.000,758.000,0.000,0.000,0
2026-01-29 21:07:09,916048,9803.000,3580.000,1192.000,-2796.000,-2790.000,1258.000,0.000,0.000,0
2026-01-29 21:07:09,916088,10281.000,1545.000,333.000,-6836.000,-2373.000,550.000,0.000,0.000,0
2026-01-29 21:07:09,916128,13753.000,1130.000,-764.000,-6792.000,-916.000,-241.000,0.000,0.000,0
2026-01-29 21:07:09,916168,11701.000,1387.000,-970.000,-4979.000,2571.000,-880.000,0.000,0.000,0
2026-01-29 21:07:09,916208,12403.000,1219.000,-1608.000,-4327.000,4878.000,-1893.000,0.000,0.000,0
2026-01-29 21:07:09,916248,13878.000,154.000,-3508.000,-3760.000,9617.000,-5373.000,0.000,0.000,0
2026-01-29 21:07:09,916288,11713.000,269.000,-3062.000,-2024.000,12314.000,-7446.000,0.000,0.000,0
2026-01-29 21:07:09,916328,8129.000,-20.000,-3761.000,-472.000,12774.000,-9040.000,0.000,0.000,0
2026-01-29 21:07:09,916368,4968.000,8.000,-802.000,1278.000,10706.000,-10638.000,0.000,0.000,0
2026-01-29 21:07:09,916408,5152.000,1795.000,273.000,1704.000,5729.000,-10978.000,0.000,0.000,0
2026-01-29 21:07:09,916448,6357.000,1464.000,-1649.000,-38.000,2142.000,-9228.000,0.000,0.000,0
2026-01-29 21:07:09,916488,5572.000,367.000,-2345.000,-2660.000,2727.000,-7522.000,0.000,0.000,0
2026-01-29 21:07:09,916528,5039.000,-760.000,-2172.000,-1927.000,3311.000,-5668.000,0.000,0.000,0
2026-01-29 21:07:09,916568,4789.000,-632.000,-1957.000,657.000,2750.000,-3362.000,0.000,0.000,0
2026-01-29 21:07:09,916608,4550.000,196.000,-635.000,3168.000,1690.000,-107.000,0.000,0.000,0
2026-01-29 21:07:09,916649,7091.000,1461.000,1620.000,3785.000,-1691.000,4891.000,0.000,0.000,0
2026-01-29 21:07:09,916688,11186.000,1139.000,-544.000,2399.000,-4845.000,10446.000,0.000,0.000,0
2026-01-29 21:07:09,916728,14061.000,3800.000,1325.000,3494.000,-6142.000,16054.000,0.000,0.000,0
2026-01-29 21:07:10,916768,15810.000,3699.000,4482.000,-2040.000,-11763.000,20119.000,0.000,0.000,0
2026-01-29 21:07:10,916808,15974.000,619.000,173.000,-6252.000,-17910.000,17223.000,0.000,0.000,0
2026-01-29 21:07:10,916848,7129.000,739.000,17.000,-5091.000,-12400.000,9764.000,0.000,0.000,0
2026-01-29 21:07:10,916888,6951.000,-2748.000,-2272.000,-1746.000,-7112.000,4752.000,0.000,0.000,0
2026-01-29 21:07:10,916928,4585.000,458.000,-1211.000,4785.000,-749.000,1337.000,0.000,0.000,0
2026-01-29 21:07:10,916968,5710.000,-57.000,-1976.000,8906.000,2850.000,-1648.000,0.000,0.000,0
2026-01-29 21:07:10,917008,5578.000,2362.000,-425.000,12957.000,6035.000,-3538.000,0.000,0.000,0
2026-01-29 21:07:10,917048,5315.000,4277.000,620.000,13450.000,4984.000,-2445.000,0.000,0.000,0
2026-01-29 21:07:10,917088,7141.000,4936.000,703.000,9606.000,1481.000,604.000,0.000,0.000,0
2026-01-29 21:07:10,917128,8247.000,4372.000,1151.000,1948.000,-1767.000,2302.000,0.000,0.000,0
2026-01-29 21:07:10,917168,8826.000,4163.000,1150.000,-2317.000,-4579.000,2146.000,0.000,0.000,0
2026-01-29 21:07:10,917208,11396.000,1967.000,-1604.000,-14050.000,-5264.000,-560.000,0.000,0.000,0
2026-01-29 21:07:10,917248,15637.000,317.000,-2336.000,-12711.000,-1490.000,-1726.000,0.000,0.000,0
2026-01-29 21:07:10,917288,13524.000,725.000,-903.000,-8684.000,4063.000,-2571.000,0.000,0.000,0
2026-01-29 21:07:10,917328,14806.000,-264.000,-1974.000,-7076.000,6350.000,-3951.000,0.000,0.000,0
2026-01-29 21:07:10,917368,15368.000,-707.000,-3210.000,-7171.000,10049.000,-6366.000,0.000,0.000,0
2026-01-29 21:07:10,917408,11379.000,-900.000,-2150.000,-3646.000,12073.000,-7887.000,0.000,0.000,0
2026-01-29 21:07:10,917448,7381.000,-177.000,-941.000,-693.000,11507.000,-8437.000,0.000,0.000,0
2026-01-29 21:07:10,917488,5955.000,630.000,-434.000,1084.000,9171.000,-9080.000,0.000,0.000,0
2026-01-29 21:07:10,917528,5464.000,612.000,-696.000,496.000,6639.000,-8875.000,0.000,0.000,0
2026-01-29 21:07:10,917568,4864.000,407.000,-1184.000,143.000,5757.000,-7163.000,0.000,0.000,0
2026-01-29 21:07:10,917608,4261.000,128.000,-1497.000,1360.000,5069.000,-5423.000,0.000,0.000,0
2026-01-29 21:07:10,917648,4101.000,-547.000,-2806.000,2940.000,4769.000,-3358.000,0.000,0.000,0
2026-01-29 21:07:10,917688,3877.000,-90.000,-2491.000,5820.000,4637.000,-1314.000,0.000,0.000,0
2026-01-29 21:07:10,917728,4477.000,1486.000,-950.000,7379.000,3002.000,2025.000,0.000,0.000,0
2026-01-29 21:07:11,917768,8368.000,1661.000,-1196.000,5819.000,-86.000,7045.000,0.000,0.000,0
2026-01-29 21:07:11,917808,11989.000,3383.000,409.000,4252.000,-2507.000,12985.000,0.000,0.000,0
2026-01-29 21:07:11,917848,14063.000,6477.000,4790.000,-1479.000,-8128.000,19490.000,0.000,0.000,0
2026-01-29 21:07:11,917888,11758.000,5808.000,4150.000,-16465.000,-19568.000,21879.000,0.000,0.000,0
2026-01-29 21:07:11,917928,12606.000,-4375.000,-2009.000,-21350.000,-20444.000,14795.000,0.000,0.000,0
2026-01-29 21:07:11,917968,8669.000,-3984.000,-2764.000,-1050.000,-11047.000,5040.000,0.000,0.000,0
2026-01-29 21:07:11,918008,5061.000,-2714.000,-1673.000,3388.000,-2192.000,530.000,0.000,0.000,0
2026-01-29 21:07:11,918048,4823.000,-1873.000,-2050.000,8119.000,683.000,-2375.000,0.000,0.000,0
2026-01-29 21:07:11,918088,6592.000,2760.000,-435.000,14397.000,4878.000,-5218.000,0.000,0.000,0
2026-01-29 21:07:11,918128,5460.000,4706.000,654.000,17483.000,6936.000,-4624.000,0.000,0.000,0
2026-01-29 21:07:11,918168,7863.000,6112.000,292.000,13338.000,2354.000,2379.000,0.000,0.000,0
2026-01-29 21:07:11,918208,8433.000,5486.000,1539.000,1795.000,-650.000,4628.000,0.000,0.000,0
2026-01-29 21:07:11,918248,9899.000,4227.000,805.000,-7814.000,-4940.000,4217.000,0.000,0.000,0
2026-01-29 21:07:11,918288,12687.000,2615.000,-962.000,-12854.000,-6538.000,1822.000,0.000,0.000,0
2026-01-29 21:07:11,918328,13302.000,229.000,-1807.000,-10432.000,-2480.000,-1420.000,0.000,0.000,0
2026-01-29 21:07:11,918368,14890.000,-41.000,-2862.000,-6556.000,1831.000,-3376.000,0.000,0.000,0
2026-01-29 21:07:11,918408,14107.000,-102.000,-2241.000,-4255.000,8014.000,-6838.000,0.000,0.000,0
2026-01-29 21:07:11,918448,13616.000,-605.000,-1658.000,-4117.000,10957.000,-9400.000,0.000,0.000,0
2026-01-29 21:07:11,918488,10635.000,262.000,-134.000,-5277.000,11001.000,-10819.000,0.000,0.000,0
2026-01-29 21:07:11,918528,7983.000,632.000,-48.000,-6669.000,8896.000,-10283.000,0.000,0.000,0
2026-01-29 21:07:11,918568,6485.000,-381.000,-662.000,-7003.000,7033.000,-8923.000,0.000,0.000,0
2026-01-29 21:07:11,918608,5595.000,-753.000,-975.000,-5602.000,6680.000,-7757.000,0.000,0.000,0
2026-01-29 21:07:11,918648,4642.000,-1108.000,-1679.000,-2635.000,6970.000,-6117.000,0.000,0.000,0
2026-01-29 21:07:11,918688,3167.000,-908.000,-2095.000,1538.000,7172.000,-3942.000,0.000,0.000,0
2026-01-29 21:07:11,918728,3521.000,413.000,-1916.000,4409.000,6650.000,-1282.000,0.000,0.000,0
2026-01-29 21:07:12,918768,4141.000,1063.000,-1948.000,5342.000,5424.000,2345.000,0.000,0.000,0
2026-01-29 21:07:12,918808,5916.000,1290.000,-1929.000,6165.000,3638.000,5636.000,0.000,0.000,0
2026-01-29 21:07:12,918848,10175.000,1240.000,-1994.000,6897.000,1036.000,8937.000,0.000,0.000,0
2026-01-29 21:07:12,918888,13557.000,3117.000,1312.000,7999.000,-3320.000,13089.000,0.000,0.000,0
2026-01-29 21:07:12,918928,13926.000,4632.000,7747.000,3470.000,-12705.000,16995.000,0.000,0.000,0
2026-01-29 21:07:12,918968,13623.000,3356.000,736.000,-9927.000,-25794.000,17339.000,0.000,0.000,0
2026-01-29 21:07:12,919008,8559.000,-1904.000,156.000,-12024.000,-16428.000,11927.000,0.000,0.000,0
2026-01-29 21:07:12,919048,8058.000,-2218.000,-1733.000,-586.000,-11083.000,6126.000,0.000,0.000,0
2026-01-29 21:07:12,919088,5697.000,-1608.000,-1820.000,5517.000,-3917.000,2472.000,0.000,0.000,0
2026-01-29 21:07:12,919128,6788.000,530.000,132.000,10576.000,793.000,-2422.000,0.000,0.000,0
2026-01-29 21:07:12,919168,6920.000,4408.000,1873.000,12939.000,2572.000,-3152.000,0.000,0.000,0
2026-01-29 21:07:12,919208,8055.000,5502.000,1319.000,8507.000,1800.000,183.000,0.000,0.000,0
2026-01-29 21:07:12,919248,10301.000,5160.000,2047.000,-590.000,-41.000,3113.000,0.000,0.000,0
2026-01-29 21:07:12,919288,9316.000,2033.000,1065.000,-8046.000,-1776.000,2947.000,0.000,0.000,0
2026-01-29 21:07:12,919328,9988.000,1319.000,-726.000,-5814.000,-1799.000,173.000,0.000,0.000,0
2026-01-29 21:07:12,919368,14500.000,823.000,-1322.000,-4878.000,-47.000,-1164.000,0.000,0.000,0
2026-01-29 21:07:12,919408,13895.000,1879.000,-1960.000,-3472.000,4525.000,-2618.000,0.000,0.000,0
2026-01-29 21:07:12,919448,15130.000,1143.000,-2827.000,-4589.000,7958.000,-4684.000,0.000,0.000,0
2026-01-29 21:07:12,919488,16222.000,-451.000,-3220.000,-6087.000,11002.000,-8091.000,0.000,0.000,0
2026-01-29 21:07:12,919528,13306.000,-841.000,-2012.000,-4650.000,13059.000,-11383.000,0.000,0.000,0
2026-01-29 21:07:12,919568,9705.000,51.000,-661.000,-3216.000,11737.000,-13120.000,0.000,0.000,0
2026-01-29 21:07:12,919608,8716.000,1051.000,-586.000,-3375.000,9165.000,-13286.000,0.000,0.000,0
2026-01-29 21:07:12,919648,7082.000,163.000,-1007.000,-6797.000,8185.000,-12103.000,0.000,0.000,0
2026-01-29 21:07:12,919688,5795.000,-1173.000,-1864.000,-5305.000,6790.000,-9405.000,0.000,0.000,0
2026-01-29 21:07:12,919728,4249.000,-1582.000,-1976.000,-679.000,7934.000,-8329.000,0.000,0.000,0
2026-01-29 21:07:13,919768,3020.000,-2243.000,-2259.000,3123.000,7345.000,-6650.000,0.000,0.000,0
2026-01-29 21:07:13,919808,2191.000,-817.000,-1644.000,6958.000,6493.000,-4179.000,0.000,0.000,0
2026-01-29 21:07:13,919848,2429.000,962.000,-318.000,8601.000,4045.000,1873.000,0.000,0.000,0
2026-01-29 21:07:13,919888,5121.000,1202.000,-389.000,10558.000,-1562.000,10102.000,0.000,0.000,0
2026-01-29 21:07:13,919928,9995.000,3035.000,-961.000,8122.000,-5668.000,17261.000,0.000,0.000,0
2026-01-29 21:07:13,919968,16371.000,5929.000,1370.000,1854.000,-10041.000,24055.000,0.000,0.000,0
2026-01-29 21:07:13,920008,23280.000,3398.000,-602.000,-7753.000,-15073.000,26175.000,0.000,0.000,0
2026-01-29 21:07:13,920048,12139.000,-5018.000,-1486.000,-9047.000,-13731.000,19212.000,0.000,0.000,0
2026-01-29 21:07:13,920088,8056.000,-4242.000,-2720.000,10795.000,-8887.000,1978.000,0.000,0.000,0
2026-01-29 21:07:13,920128,7941.000,77.000,-2282.000,20429.000,-4582.000,-1771.000,0.000,0.000,0
2026-01-29 21:07:13,920168,9747.000,5149.000,-4603.000,25256.000,224.000,-1148.000,0.000,0.000,0
2026-01-29 21:07:13,920208,6746.000,8754.000,-1418.000,20289.000,7272.000,2558.000,0.000,0.000,0
2026-01-29 21:07:13,920248,6730.000,10204.000,1466.000,5154.000,6773.000,6741.000,0.000,0.000,0
2026-01-29 21:07:13,920288,6061.000,7195.000,2081.000,-7545.000,2126.000,7909.000,0.000,0.000,0
2026-01-29 21:07:13,920328,8221.000,3259.000,9.000,-11679.000,-3785.000,4628.000,0.000,0.000,0
2026-01-29 21:07:13,920368,9720.000,6.000,-2424.000,-8828.000,-2458.000,-1409.000,0.000,0.000,0
2026-01-29 21:07:13,920408,10181.000,1646.000,-1907.000,-2678.000,912.000,-6105.000,0.000,0.000,0
2026-01-29 21:07:13,920448,12978.000,1797.000,-2398.000,-20.000,3825.000,-8930.000,0.000,0.000,0
2026-01-29 21:07:13,920488,12828.000,3173.000,-812.000,-1235.000,4847.000,-9949.000,0.000,0.000,0
2026-01-29 21:07:13,920528,15283.000,3425.000,-695.000,-6856.000,3177.000,-9227.000,0.000,0.000,0
2026-01-29 21:07:13,920568,17350.000,1874.000,-1492.000,-13656.000,2436.000,-9392.000,0.000,0.000,0
2026-01-29 21:07:13,920608,15292.000,-255.000,-2919.000,-15497.000,3726.000,-10773.000,0.000,0.000,0
2026-01-29 21:07:13,920648,11130.000,-531.000,-2401.000,-12470.000,5966.000,-12347.000,0.000,0.000,0
2026-01-29 21:07:13,920688,7678.000,-607.000,-1795.000,-9969.000,7166.000,-12722.000,0.000,0.000,0
2026-01-29 21:07:13,920728,6995.000,939.000,-1220.000,-5848.000,6757.000,-12114.000,0.000,0.000,0
2026-01-29 21:07:14,920768,5708.000,-40.000,-1124.000,-5595.000,5494.000,-11046.000,0.000,0.000,0
2026-01-29 21:07:14,920808,6465.000,-890.000,-2215.000,-3145.000,4596.000,-8303.000,0.000,0.000,0
2026-01-29 21:07:14,920848,5409.000,-1023.000,-2008.000,1233.000,5674.000,-6053.000,0.000,0.000,0
2026-01-29 21:07:14,920888,4941.000,-199.000,-2090.000,4916.000,5128.000,-3129.000,0.000,0.000,0
2026-01-29 21:07:14,920928,4469.000,721.000,-2232.000,7439.000,3974.000,976.000,0.000,0.000,0
2026-01-29 21:07:14,920968,5950.000,1698.000,-1641.000,7696.000,1238.000,5959.000,0.000,0.000,0
2026-01-29 21:07:14,921008,9452.000,3002.000,-533.000,7024.000,-748.000,11766.000,0.000,0.000,0
2026-01-29 21:07:14,921048,13642.000,4731.000,2917.000,-4437.000,-11270.000,21455.000,0.000,0.000,0
2026-01-29 21:07:14,921088,16663.000,1727.000,-669.000,-11818.000,-18570.000,22985.000,0.000,0.000,0
2026-01-29 21:07:14,921128,13159.000,-1826.000,-994.000,-7285.000,-18442.000,16721.000,0.000,0.000,0
2026-01-29 21:07:14,921168,9125.000,-2110.000,-1941.000,4841.000,-12092.000,9406.000,0.000,0.000,0
2026-01-29 21:07:14,921208,4685.000,1144.000,-1040.000,8867.000,-4801.000,3450.000,0.000,0.000,0
2026-01-29 21:07:14,921248,7332.000,171.000,-1497.000,11066.000,-3031.000,-754.000,0.000,0.000,0
2026-01-29 21:07:14,921288,7767.000,2187.000,-1221.000,15862.000,-797.000,-3496.000,0.000,0.000,0
2026-01-29 21:07:14,921328,7795.000,4229.000,-997.000,15149.000,1063.000,-3318.000,0.000,0.000,0
2026-01-29 21:07:14,921368,9132.000,6394.000,30.000,11267.000,1985.000,-735.000,0.000,0.000,0
2026-01-29 21:07:14,921408,8719.000,7963.000,2451.000,2690.000,1322.000,3005.000,0.000,0.000,0
2026-01-29 21:07:14,921448,8152.000,5898.000,1710.000,-5937.000,-2352.000,4516.000,0.000,0.000,0
2026-01-29 21:07:14,921488,10229.000,4076.000,-128.000,-4656.000,-3424.000,529.000,0.000,0.000,0
2026-01-29 21:07:14,921528,14070.000,652.000,-2734.000,-4995.000,-1824.000,-4681.000,0.000,0.000,0
2026-01-29 21:07:14,921568,13611.000,3079.000,-1622.000,-2122.000,3804.000,-9787.000,0.000,0.000,0
2026-01-29 21:07:14,921608,15808.000,1848.000,-3583.000,-3788.000,6704.000,-12112.000,0.000,0.000,0
2026-01-29 21:07:14,921648,16544.000,86.000,-2404.000,-6012.000,9979.000,-14751.000,0.000,0.000,0
2026-01-29 21:07:14,921688,13341.000,480.000,-244.000,-7542.000,9592.000,-15599.000,0.000,0.000,0
2026-01-29 21:07:14,921728,9571.000,1849.000,170.000,-9817.000,6205.000,-13923.000,0.000,0.000,0
2026-01-29 21:07:15,921768,7303.000,1081.000,-930.000,-10620.000,3319.000,-11855.000,0.000,0.000,0
2026-01-29 21:07:15,921808,6272.000,131.000,-1280.000,-9486.000,3149.000,-9990.000,0.000,0.000,0
2026-01-29 21:07:15,921848,6280.000,-562.000,-2166.000,-5746.000,3608.000,-8484.000,0.000,0.000,0
2026-01-29 21:07:15,921888,4128.000,-96.000,-1059.000,-2449.000,3606.000,-7019.000,0.000,0.000,0
2026-01-29 21:07:15,921928,4685.000,-142.000,-1026.000,-872.000,3077.000,-3865.000,0.000,0.000,0
2026-01-29 21:07:15,921968,4675.000,235.000,-1252.000,113.000,3149.000,-232.000,0.000,0.000,0
2026-01-29 21:07:15,922008,5112.000,426.000,-1174.000,5165.000,1652.000,4977.000,0.000,0.000,0
2026-01-29 21:07:15,922048,7276.000,1555.000,920.000,6395.000,-730.000,8611.000,0.000,0.000,0
2026-01-29 21:07:15,922088,11031.000,5510.000,3550.000,11435.000,-5892.000,13500.000,0.000,0.000,0
2026-01-29 21:07:15,922128,16565.000,3571.000,-2859.000,29038.000,-6686.000,15282.000,0.000,0.000,0
2026-01-29 21:07:15,922168,13411.000,9186.000,-31.000,30287.000,3340.000,8698.000,0.000,0.000,0
2026-01-29 21:07:15,922208,9816.000,10246.000,-3086.000,16804.000,5097.000,-157.000,0.000,0.000,0
2026-01-29 21:07:15,922248,6105.000,6423.000,-3330.000,8617.000,5239.000,-2270.000,0.000,0.000,0
2026-01-29 21:07:15,922288,3609.000,5049.000,-343.000,1071.000,5478.000,-2413.000,0.000,0.000,0
2026-01-29 21:07:15,922328,3533.000,2895.000,-142.000,-3209.000,1512.000,-962.000,0.000,0.000,0
2026-01-29 21:07:15,922368,3198.000,2211.000,-1003.000,-4621.000,-740.000,587.000,0.000,0.000,0
2026-01-29 21:07:15,922408,3591.000,1637.000,-2010.000,-3607.000,-867.000,2576.000,0.000,0.000,0
2026-01-29 21:07:15,922448,4800.000,2258.000,-1228.000,3115.000,-264.000,4217.000,0.000,0.000,0
2026-01-29 21:07:15,922488,8567.000,4963.000,-780.000,7041.000,-851.000,5482.000,0.000,0.000,0
2026-01-29 21:07:15,922528,9519.000,6168.000,-2506.000,3194.000,-868.000,7825.000,0.000,0.000,0
2026-01-29 21:07:15,922568,8950.000,6534.000,-1842.000,-4823.000,446.000,8534.000,0.000,0.000,0
2026-01-29 21:07:15,922608,9294.000,5764.000,-1865.000,-12529.000,-1560.000,8278.000,0.000,0.000,0
2026-01-29 21:07:15,922648,11967.000,5189.000,-2553.000,-17845.000,-3015.000,7594.000,0.000,0.000,0
2026-01-29 21:07:15,922688,12029.000,3988.000,-1731.000,-20989.000,-1858.000,6144.000,0.000,0.000,0
2026-01-29 21:07:15,922728,13098.000,1384.000,-2200.000,-21761.000,-1090.000,2837.000,0.000,0.000,0
2026-01-29 21:07:16,922768,13422.000,-127.000,-3178.000,-18568.000,2596.000,-1032.000,0.000,0.000,0
2026-01-29 21:07:16,922808,11059.000,-2350.000,-2373.000,-14446.000,8503.000,-4868.000,0.000,0.000,0
2026-01-29 21:07:16,922848,7427.000,-1917.000,-349.000,-6876.000,10817.000,-8128.000,0.000,0.000,0
2026-01-29 21:07:16,922888,5615.000,-647.000,272.000,-2475.000,9801.000,-9910.000,0.000,0.000,0
2026-01-29 21:07:16,922928,5399.000,267.000,-15.000,-949.000,8567.000,-9970.000,0.000,0.000,0
2026-01-29 21:07:16,922968,4492.000,491.000,-674.000,911.000,4797.000,-7338.000,0.000,0.000,0
2026-01-29 21:07:16,923008,4894.000,459.000,-937.000,326.000,3759.000,-4630.000,0.000,0.000,0
2026-01-29 21:07:16,923048,5782.000,427.000,-1422.000,878.000,3187.000,-1227.000,0.000,0.000,0
2026-01-29 21:07:16,923088,6531.000,554.000,-1728.000,3021.000,2839.000,2242.000,0.000,0.000,0
2026-01-29 21:07:16,923128,7768.000,1177.000,-668.000,4691.000,1797.000,5310.000,0.000,0.000,0
2026-01-29 21:07:16,923168,10549.000,1398.000,-1040.000,5005.000,-287.000,8510.000,0.000,0.000,0
2026-01-29 21:07:16,923208,10280.000,2907.000,1770.000,4251.000,-2571.000,10924.000,0.000,0.000,0
2026-01-29 21:07:16,923248,10977.000,2545.000,3374.000,-2441.000,-7832.000,11533.000,0.000,0.000,0
2026-01-29 21:07:16,923288,12111.000,187.000,1203.000,-7215.000,-9790.000,9143.000,0.000,0.000,0
2026-01-29 21:07:16,923328,9330.000,-2016.000,530.000,-801.000,-9560.000,4437.000,0.000,0.000,0
2026-01-29 21:07:16,923368,7534.000,-960.000,362.000,9050.000,-5485.000,1641.000,0.000,0.000,0
2026-01-29 21:07:16,923408,5063.000,-1168.000,1009.000,11921.000,-1682.000,-744.000,0.000,0.000,0
2026-01-29 21:07:16,923448,5599.000,1402.000,-282.000,15713.000,-2230.000,-1249.000,0.000,0.000,0
2026-01-29 21:07:16,923488,6625.000,3491.000,-839.000,15001.000,1111.000,-1738.000,0.000,0.000,0
2026-01-29 21:07:16,923528,6514.000,4199.000,301.000,10142.000,3276.000,445.000,0.000,0.000,0
2026-01-29 21:07:16,923568,7579.000,4303.000,950.000,4677.000,2814.000,3714.000,0.000,0.000,0
2026-01-29 21:07:16,923608,10050.000,4758.000,765.000,1359.000,607.000,5806.000,0.000,0.000,0
2026-01-29 21:07:16,923648,10014.000,4319.000,681.000,-2430.000,-1391.000,5413.000,0.000,0.000,0
2026-01-29 21:07:16,923688,8484.000,2203.000,446.000,-4739.000,-2692.000,2275.000,0.000,0.000,0
2026-01-29 21:07:16,923728,9849.000,1253.000,93.000,-5498.000,-3624.000,-1324.000,0.000,0.000,0
2026-01-29 21:07:17,923768,11837.000,2211.000,-1003.000,-1442.000,-1676.000,-3439.000,0.000,0.000,0
2026-01-29 21:07:17,923808,11105.000,3385.000,-871.000,-645.000,1824.000,-3787.000,0.000,0.000,0
2026-01-29 21:07:17,923848,12450.000,4103.000,-909.000,-6458.000,2973.000,-3332.000,0.000,0.000,0
2026-01-29 21:07:17,923888,14070.000,2027.000,-1620.000,-10910.000,3236.000,-3257.000,0.000,0.000,0
2026-01-29 21:07:17,923928,10113.000,-1301.000,-847.000,-16413.000,6053.000,-5328.000,0.000,0.000,0
2026-01-29 21:07:17,923968,7847.000,-1569.000,-979.000,-10320.000,6084.000,-7129.000,0.000,0.000,0
2026-01-29 21:07:17,924008,6226.000,-920.000,-1599.000,-5337.000,6819.000,-8103.000,0.000,0.000,0
2026-01-29 21:07:17,924048,4740.000,-572.000,-1113.000,-1030.000,7472.000,-7638.000,0.000,0.000,0
2026-01-29 21:07:17,924088,3691.000,-201.000,-917.000,1566.000,6542.000,-6882.000,0.000,0.000,0
2026-01-29 21:07:17,924128,2572.000,76.000,-442.000,3178.000,4998.000,-5346.000,0.000,0.000,0
2026-01-29 21:07:17,924168,3951.000,936.000,-81.000,4266.000,1912.000,-2301.000,0.000,0.000,0
2026-01-29 21:07:17,924208,5786.000,1454.000,-37.000,3951.000,-475.000,1678.000,0.000,0.000,0
2026-01-29 21:07:17,924248,8420.000,1100.000,-427.000,3019.000,-2043.000,5616.000,0.000,0.000,0
2026-01-29 21:07:17,924288,12877.000,1017.000,-2197.000,4258.000,-2906.000,9391.000,0.000,0.000,0
2026-01-29 21:07:17,924328,10837.000,2796.000,1060.000,6260.000,-2157.000,11994.000,0.000,0.000,0
2026-01-29 21:07:17,924368,9422.000,4486.000,4972.000,1890.000,-7935.000,12989.000,0.000,0.000,0
2026-01-29 21:07:17,924408,11808.000,634.000,-448.000,-8350.000,-13683.000,12016.000,0.000,0.000,0
2026-01-29 21:07:17,924448,9232.000,-176.000,-1854.000,-5019.000,-10262.000,6385.000,0.000,0.000,0
2026-01-29 21:07:17,924488,6749.000,-1830.000,-1442.000,893.000,-3743.000,1776.000,0.000,0.000,0
2026-01-29 21:07:17,924528,5128.000,-1598.000,-252.000,5361.000,-803.000,-2171.000,0.000,0.000,0
2026-01-29 21:07:17,924568,5133.000,783.000,-251.000,11155.000,-338.000,-4549.000,0.000,0.000,0
2026-01-29 21:07:17,924608,5826.000,2001.000,-821.000,12292.000,412.000,-5398.000,0.000,0.000,0
2026-01-29 21:07:17,924648,7090.000,2938.000,-883.000,10026.000,1214.000,-4049.000,0.000,0.000,0
2026-01-29 21:07:17,924688,8617.000,3220.000,-228.000,6701.000,1701.000,-1169.000,0.000,0.000,0
2026-01-29 21:07:17,924728,9349.000,3446.000,1860.000,2330.000,8.000,2041.000,0.000,0.000,0
2026-01-29 21:07:18,924768,9440.000,3287.000,1218.000,-2149.000,-3484.000,4225.000,0.000,0.000,0
2026-01-29 21:07:18,924808,9827.000,2804.000,-171.000,-4677.000,-4243.000,4635.000,0.000,0.000,0
2026-01-29 21:07:18,924848,11902.000,1844.000,-1633.000,-5449.000,-3563.000,4255.000,0.000,0.000,0
2026-01-29 21:07:18,924888,10573.000,1296.000,-999.000,-2991.000,1974.000,15.000,0.000,0.000,0
2026-01-29 21:07:18,924928,10579.000,1160.000,-866.000,-1559.000,2795.000,-2594.000,0.000,0.000,0
2026-01-29 21:07:18,924968,11699.000,2197.000,-1386.000,-2169.000,3389.000,-3356.000,0.000,0.000,0
2026-01-29 21:07:18,925008,10248.000,2398.000,-1640.000,-4742.000,5280.000,-2803.000,0.000,0.000,0
2026-01-29 21:07:18,925048,7456.000,1396.000,-1357.000,-9395.000,5818.000,-2595.000,0.000,0.000,0
2026-01-29 21:07:18,925088,6074.000,537.000,-696.000,-10050.000,5173.000,-3014.000,0.000,0.000,0
2026-01-29 21:07:18,925128,5449.000,-290.000,-229.000,-8239.000,4683.000,-3893.000,0.000,0.000,0
2026-01-29 21:07:18,925168,5711.000,396.000,-561.000,-4007.000,4164.000,-4817.000,0.000,0.000,0
2026-01-29 21:07:18,925208,6047.000,454.000,-1526.000,-1836.000,4107.000,-4518.000,0.000,0.000,0
2026-01-29 21:07:18,925248,7302.000,485.000,-2499.000,1048.000,4673.000,-3996.000,0.000,0.000,0
2026-01-29 21:07:18,925288,8192.000,656.000,-2408.000,3188.000,5072.000,-3497.000,0.000,0.000,0
2026-01-29 21:07:18,925328,7292.000,1460.000,-1598.000,4517.000,3446.000,-2139.000,0.000,0.000,0
2026-01-29 21:07:18,925368,8694.000,329.000,-2366.000,3868.000,-227.000,-871.000,0.000,0.000,0
2026-01-29 21:07:18,925408,9265.000,3801.000,-1126.000,596.000,-1874.000,1804.000,0.000,0.000,0
2026-01-29 21:07:18,925448,7355.000,616.000,1556.000,-4970.000,-5131.000,5314.000,0.000,0.000,0
2026-01-29 21:07:18,925488,10251.000,-2541.000,1016.000,-3140.000,-8488.000,4134.000,0.000,0.000,0
2026-01-29 21:07:18,925528,12641.000,564.000,-509.000,2073.000,-5382.000,4449.000,0.000,0.000,0
2026-01-29 21:07:18,925568,8600.000,396.000,795.000,1386.000,-1580.000,4334.000,0.000,0.000,0
2026-01-29 21:07:18,925608,6046.000,1835.000,2256.000,626.000,-1707.000,2138.000,0.000,0.000,0
2026-01-29 21:07:18,925648,5090.000,158.000,1792.000,-450.000,-3386.000,2146.000,0.000,0.000,0
2026-01-29 21:07:18,925688,5345.000,-504.000,248.000,4287.000,-3993.000,1787.000,0.000,0.000,0
2026-01-29 21:07:18,925728,5431.000,-55.000,-372.000,8771.000,-1783.000,748.000,0.000,0.000,0
2026-01-29 21:07:19,925768,6271.000,-754.000,-1050.000,16920.000,-893.000,-30.000,0.000,0.000,0
2026-01-29 21:07:19,925808,9854.000,3610.000,-1769.000,21505.000,-1107.000,-488.000,0.000,0.000,0
2026-01-29 21:07:19,925848,10444.000,7160.000,-853.000,13813.000,3225.000,1595.000,0.000,0.000,0
2026-01-29 21:07:19,925888,8775.000,4899.000,701.000,5440.000,1955.000,1439.000,0.000,0.000,0
2026-01-29 21:07:19,925928,11469.000,4301.000,-513.000,172.000,-1672.000,-691.000,0.000,0.000,0
2026-01-29 21:07:19,925968,10332.000,5000.000,-395.000,-4561.000,-1659.000,-1089.000,0.000,0.000,0
2026-01-29 21:07:19,926008,9719.000,3947.000,-1043.000,-9916.000,-1061.000,-872.000,0.000,0.000,0
2026-01-29 21:07:19,926048,11364.000,2070.000,-1597.000,-12754.000,108.000,-1928.000,0.000,0.000,0
2026-01-29 21:07:19,926088,11632.000,-731.000,-1431.000,-8465.000,778.000,-3275.000,0.000,0.000,0
2026-01-29 21:07:19,926128,8338.000,-1586.000,-1235.000,7102.000,-13.000,-6327.000,0.000,0.000,0
2026-01-29 21:07:19,926168,5885.000,4168.000,-987.000,9124.000,-1622.000,-9043.000,0.000,0.000,0
2026-01-29 21:07:19,926208,5829.000,3328.000,-1797.000,-2281.000,-1648.000,-8546.000,0.000,0.000,0
2026-01-29 21:07:19,926248,6454.000,3651.000,-2527.000,-12338.000,-138.000,-6317.000,0.000,0.000,0
2026-01-29 21:07:19,926288,5868.000,672.000,-2781.000,-19894.000,3140.000,-3880.000,0.000,0.000,0
2026-01-29 21:07:19,926328,6064.000,-867.000,-3273.000,-20377.000,4175.000,-2353.000,0.000,0.000,0
2026-01-29 21:07:19,926368,7379.000,-1168.000,-2724.000,-14536.000,4325.000,-598.000,0.000,0.000,0
2026-01-29 21:07:19,926408,7339.000,-411.000,-992.000,-6818.000,2535.000,1628.000,0.000,0.000,0
2026-01-29 21:07:19,926448,7322.000,434.000,446.000,-424.000,-1417.000,3050.000,0.000,0.000,0
2026-01-29 21:07:19,926488,9602.000,109.000,-1228.000,3177.000,-3967.000,3887.000,0.000,0.000,0
2026-01-29 21:07:19,926528,8786.000,976.000,402.000,5854.000,-3438.000,4313.000,0.000,0.000,0
2026-01-29 21:07:19,926568,9241.000,1652.000,2066.000,3801.000,-5699.000,4918.000,0.000,0.000,0
2026-01-29 21:07:19,926608,11696.000,1196.000,1107.000,442.000,-7118.000,5404.000,0.000,0.000,0
2026-01-29 21:07:19,926648,9918.000,-926.000,565.000,1244.000,-5743.000,3901.000,0.000,0.000,0
2026-01-29 21:07:19,926688,7436.000,-127.000,842.000,7939.000,-3371.000,124.000,0.000,0.000,0
2026-01-29 21:07:19,926728,5913.000,1398.000,1552.000,10535.000,-1149.000,-1039.000,0.000,0.000,0
2026-01-29 21:07:20,926768,4512.000,2415.000,620.000,10263.000,2044.000,415.000,0.000,0.000,0
2026-01-29 21:07:20,926808,5355.000,2471.000,382.000,7150.000,2573.000,941.000,0.000,0.000,0
2026-01-29 21:07:20,926848,6457.000,2463.000,318.000,5400.000,2127.000,1931.000,0.000,0.000,0
2026-01-29 21:07:20,926888,8547.000,2431.000,265.000,4435.000,577.000,3442.000,0.000,0.000,0
2026-01-29 21:07:20,926928,9901.000,2962.000,115.000,3848.000,-1125.000,4367.000,0.000,0.000,0
2026-01-29 21:07:20,926968,9302.000,3003.000,413.000,2637.000,-1922.000,3901.000,0.000,0.000,0
2026-01-29 21:07:20,927008,10143.000,2926.000,152.000,2806.000,-2615.000,1738.000,0.000,0.000,0
2026-01-29 21:07:20,927048,10905.000,3474.000,170.000,2937.000,-1886.000,-930.000,0.000,0.000,0
2026-01-29 21:07:20,927088,10438.000,4110.000,364.000,1123.000,-953.000,-2149.000,0.000,0.000,0
2026-01-29 21:07:20,927128,11712.000,3862.000,127.000,-4024.000,-12.000,-2678.000,0.000,0.000,0
2026-01-29 21:07:20,927168,13276.000,2605.000,-1075.000,-9386.000,1156.000,-3156.000,0.000,0.000,0
2026-01-29 21:07:20,927208,11532.000,1251.000,-746.000,-12171.000,2812.000,-3868.000,0.000,0.000,0
2026-01-29 21:07:20,927248,7972.000,444.000,63.000,-12493.000,3125.000,-5025.000,0.000,0.000,0
2026-01-29 21:07:20,927288,6245.000,-106.000,44.000,-9811.000,2847.000,-5919.000,0.000,0.000,0
2026-01-29 21:07:20,927328,5693.000,85.000,-293.000,-6166.000,2985.000,-6352.000,0.000,0.000,0
2026-01-29 21:07:20,927368,5493.000,575.000,-968.000,-4231.000,3790.000,-5624.000,0.000,0.000,0
2026-01-29 21:07:20,927408,5083.000,951.000,-1632.000,-3409.000,5022.000,-4224.000,0.000,0.000,0
2026-01-29 21:07:20,927448,5209.000,-645.000,-1335.000,-2418.000,5476.000,-3267.000,0.000,0.000,0
2026-01-29 21:07:20,927488,6827.000,-33.000,-1136.000,1710.000,4758.000,-1087.000,0.000,0.000,0
2026-01-29 21:07:20,927528,7747.000,1054.000,-807.000,5450.000,3010.000,1518.000,0.000,0.000,0
2026-01-29 21:07:20,927568,9428.000,1485.000,-630.000,6702.000,803.000,4094.000,0.000,0.000,0
2026-01-29 21:07:20,927608,9577.000,2051.000,-500.000,7324.000,-766.000,6798.000,0.000,0.000,0
2026-01-29 21:07:20,927648,9269.000,2963.000,1790.000,5745.000,-2979.000,8622.000,0.000,0.000,0
2026-01-29 21:07:20,927688,11745.000,3619.000,2509.000,-455.000,-7560.000,8769.000,0.000,0.000,0
2026-01-29 21:07:20,927728,9055.000,-649.000,47.000,-6354.000,-8706.000,4787.000,0.000,0.000,0
2026-01-29 21:07:21,927768,6593.000,-2432.000,38.000,279.000,-4493.000,652.000,0.000,0.000,0
2026-01-29 21:07:21,927808,4714.000,-850.000,34.000,9416.000,-1113.000,-2111.000,0.000,0.000,0
2026-01-29 21:07:21,927848,4022.000,525.000,-276.000,13767.000,317.000,-2235.000,0.000,0.000,0
2026-01-29 21:07:21,927888,4903.000,2301.000,-886.000,14108.000,1437.000,-1213.000,0.000,0.000,0
2026-01-29 21:07:21,927928,6165.000,3094.000,-1249.000,11512.000,2984.000,690.000,0.000,0.000,0
2026-01-29 21:07:21,927968,8239.000,3781.000,-226.000,8238.000,3613.000,3222.000,0.000,0.000,0
2026-01-29 21:07:21,928008,10339.000,4222.000,1150.000,5230.000,2083.000,6002.000,0.000,0.000,0
2026-01-29 21:07:21,928048,9737.000,4515.000,1773.000,1192.000,-1211.000,7008.000,0.000,0.000,0
2026-01-29 21:07:21,928088,8695.000,3441.000,1501.000,-2798.000,-3942.000,5313.000,0.000,0.000,0
2026-01-29 21:07:21,928128,12466.000,2528.000,-648.000,-3798.000,-4842.000,1880.000,0.000,0.000,0
2026-01-29 21:07:21,928168,12337.000,4543.000,-168.000,-3050.000,-2045.000,-410.000,0.000,0.000,0
2026-01-29 21:07:21,928208,12942.000,3137.000,-1460.000,-5069.000,251.000,-1219.000,0.000,0.000,0
2026-01-29 21:07:21,928248,13589.000,2258.000,-1836.000,-8133.000,2990.000,-3133.000,0.000,0.000,0
2026-01-29 21:07:21,928288,11107.000,882.000,-1189.000,-10461.000,5147.000,-5033.000,0.000,0.000,0
2026-01-29 21:07:21,928328,7295.000,-29.000,-425.000,-9902.000,5688.000,-6824.000,0.000,0.000,0
2026-01-29 21:07:21,928368,5727.000,491.000,110.000,-7860.000,4903.000,-7890.000,0.000,0.000,0
2026-01-29 21:07:21,928408,5700.000,378.000,-298.000,-7414.000,4508.000,-8167.000,0.000,0.000,0
2026-01-29 21:07:21,928448,6310.000,769.000,-1120.000,-6520.000,4453.000,-7760.000,0.000,0.000,0
2026-01-29 21:07:21,928488,7073.000,1298.000,-1903.000,-5373.000,5796.000,-6210.000,0.000,0.000,0
2026-01-29 21:07:21,928528,7359.000,-2203.000,-2570.000,-4008.000,6676.000,-4127.000,0.000,0.000,0
2026-01-29 21:07:21,928568,7635.000,-283.000,-2721.000,1989.000,6278.000,-1838.000,0.000,0.000,0
2026-01-29 21:07:21,928608,6514.000,845.000,-1566.000,7000.000,4654.000,306.000,0.000,0.000,0
2026-01-29 21:07:21,928648,7505.000,2093.000,568.000,5690.000,995.000,3267.000,0.000,0.000,0
2026-01-29 21:07:21,928688,9652.000,1472.000,314.000,2236.000,-4260.000,7783.000,0.000,0.000,0
2026-01-29 21:07:21,928728,10341.000,1581.000,1789.000,-209.000,-6213.000,8281.000,0.000,0.000,0
2026-01-29 21:07:22,928768,11158.000,711.000,1832.000,-3426.000,-7949.000,6691.000,0.000,0.000,0
2026-01-29 21:07:22,928808,9359.000,-922.000,-147.000,-1591.000,-6121.000,4028.000,0.000,0.000,0
2026-01-29 21:07:22,928848,6485.000,-942.000,1809.000,6623.000,-3334.000,1693.000,0.000,0.000,0
2026-01-29 21:07:22,928888,5295.000,117.000,1338.000,10902.000,-2762.000,733.000,0.000,0.000,0
2026-01-29 21:07:22,928928,4995.000,1576.000,845.000,12728.000,-2190.000,868.000,0.000,0.000,0
2026-01-29 21:07:22,928969,5840.000,2776.000,743.000,10662.000,-1678.000,1855.000,0.000,0.000,0
2026-01-29 21:07:22,929008,6859.000,2870.000,592.000,7136.000,-859.000,3750.000,0.000,0.000,0
2026-01-29 21:07:22,929048,8867.000,3212.000,313.000,4869.000,-439.000,5379.000,0.000,0.000,0
2026-01-29 21:07:22,929088,10343.000,3936.000,316.000,2048.000,-323.000,5966.000,0.000,0.000,0
2026-01-29 21:07:22,929128,9187.000,3630.000,409.000,-1214.000,-740.000,5054.000,0.000,0.000,0
2026-01-29 21:07:22,929168,9020.000,2338.000,-63.000,-2909.000,-1933.000,2645.000,0.000,0.000,0
2026-01-29 21:07:22,929208,13131.000,2190.000,-1241.000,-1785.000,-2255.000,-373.000,0.000,0.000,0
2026-01-29 21:07:22,929248,11995.000,3338.000,-627.000,-981.000,376.000,-2054.000,0.000,0.000,0
2026-01-29 21:07:22,929288,11589.000,2731.000,-849.000,-4703.000,1768.000,-2944.000,0.000,0.000,0
2026-01-29 21:07:22,929328,12344.000,1657.000,-1093.000,-9029.000,3000.000,-4138.000,0.000,0.000,0
2026-01-29 21:07:22,929368,11310.000,214.000,-1267.000,-11851.000,4913.000,-5400.000,0.000,0.000,0
2026-01-29 21:07:22,929408,8076.000,-401.000,-543.000,-12529.000,5702.000,-6470.000,0.000,0.000,0
2026-01-29 21:07:22,929448,6895.000,-947.000,-434.000,-8342.000,4905.000,-7531.000,0.000,0.000,0
2026-01-29 21:07:22,929488,6271.000,-621.000,-419.000,-3832.000,4907.000,-8339.000,0.000,0.000,0
2026-01-29 21:07:22,929528,5983.000,283.000,-857.000,-926.000,4737.000,-8352.000,0.000,0.000,0
2026-01-29 21:07:22,929568,6122.000,-165.000,-1135.000,-1948.000,5410.000,-6304.000,0.000,0.000,0
2026-01-29 21:07:22,929608,6411.000,664.000,-1263.000,-795.000,4732.000,-4466.000,0.000,0.000,0
2026-01-29 21:07:22,929648,6439.000,527.000,-1535.000,795.000,4616.000,413.000,0.000,0.000,0
2026-01-29 21:07:22,929688,6386.000,905.000,-812.000,5369.000,2707.000,3254.000,0.000,0.000,0
2026-01-29 21:07:22,929728,8671.000,1294.000,-18.000,6525.000,-285.000,5992.000,0.000,0.000,0
2026-01-29 21:07:23,929768,10290.000,2197.000,-386.000,5872.000,-2504.000,8882.000,0.000,0.000,0
2026-01-29 21:07:23,929808,12351.000,2730.000,377.000,3996.000,-4107.000,10930.000,0.000,0.000,0
2026-01-29 21:07:23,929848,12230.000,3061.000,2430.000,-741.000,-6990.000,10524.000,0.000,0.000,0
2026-01-29 21:07:23,929888,9555.000,132.000,1183.000,-6062.000,-8375.000,7012.000,0.000,0.000,0
2026-01-29 21:07:23,929928,6585.000,-1163.000,508.000,-1286.000,-6880.000,2362.000,0.000,0.000,0
2026-01-29 21:07:23,929968,5724.000,-1194.000,-690.000,6908.000,-2952.000,-140.000,0.000,0.000,0
2026-01-29 21:07:23,930008,4324.000,798.000,-95.000,11829.000,-414.000,-1039.000,0.000,0.000,0
2026-01-29 21:07:23,930048,6147.000,2507.000,-167.000,12685.000,923.000,-522.000,0.000,0.000,0
2026-01-29 21:07:23,930088,6607.000,4005.000,1214.000,8936.000,1694.000,1397.000,0.000,0.000,0
2026-01-29 21:07:23,930128,7518.000,3877.000,1886.000,1755.000,-190.000,3895.000,0.000,0.000,0
2026-01-29 21:07:23,930168,8780.000,2340.000,786.000,-3625.000,-2406.000,5592.000,0.000,0.000,0
2026-01-29 21:07:23,930208,9822.000,1817.000,30.000,-4478.000,-3281.000,5421.000,0.000,0.000,0
2026-01-29 21:07:23,930248,9836.000,1527.000,-440.000,-3246.000,-2579.000,3548.000,0.000,0.000,0
2026-01-29 21:07:23,930288,10422.000,1117.000,-791.000,-1375.000,-1787.000,1033.000,0.000,0.000,0
2026-01-29 21:07:23,930328,11687.000,1544.000,-691.000,593.000,-659.000,-1512.000,0.000,0.000,0
2026-01-29 21:07:23,930368,11855.000,3118.000,-25.000,75.000,202.000,-2710.000,0.000,0.000,0
2026-01-29 21:07:23,930408,12538.000,3271.000,-1153.000,-4410.000,1020.000,-2693.000,0.000,0.000,0
2026-01-29 21:07:23,930448,13164.000,2081.000,-2118.000,-9727.000,3160.000,-3025.000,0.000,0.000,0
2026-01-29 21:07:23,930488,11614.000,447.000,-2248.000,-12081.000,6351.000,-4638.000,0.000,0.000,0
2026-01-29 21:07:23,930528,8580.000,-552.000,-1538.000,-10693.000,7974.000,-6647.000,0.000,0.000,0
2026-01-29 21:07:23,930568,6854.000,-482.000,-1237.000,-8018.000,8020.000,-8169.000,0.000,0.000,0
2026-01-29 21:07:23,930608,6038.000,-269.000,-1350.000,-6729.000,7905.000,-8695.000,0.000,0.000,0
2026-01-29 21:07:23,930648,5409.000,640.000,-1393.000,-2042.000,7030.000,-8259.000,0.000,0.000,0
2026-01-29 21:07:23,930688,5093.000,726.000,-1655.000,284.000,4302.000,-5140.000,0.000,0.000,0
2026-01-29 21:07:23,930728,5623.000,513.000,-1895.000,1330.000,3547.000,-2144.000,0.000,0.000,0
2026-01-29 21:07:24,930768,7136.000,1097.000,-2246.000,3033.000,2977.000,1120.000,0.000,0.000,0
2026-01-29 21:07:24,930808,7972.000,1516.000,-2076.000,4278.000,2556.000,3813.000,0.000,0.000,0
2026-01-29 21:07:24,930848,9349.000,2520.000,469.000,3337.000,286.000,5595.000,0.000,0.000,0
2026-01-29 21:07:24,930888,11181.000,4098.000,4575.000,-4583.000,-6239.000,6934.000,0.000,0.000,0
2026-01-29 21:07:24,930928,10366.000,3250.000,1803.000,-18177.000,-13830.000,8556.000,0.000,0.000,0
2026-01-29 21:07:24,930968,9638.000,-132.000,-1109.000,-22075.000,-15375.000,7860.000,0.000,0.000,0
2026-01-29 21:07:24,931008,9985.000,-4851.000,-1459.000,-9487.000,-11737.000,5236.000,0.000,0.000,0
2026-01-29 21:07:24,931048,7793.000,-1605.000,-1519.000,6164.000,-5085.000,1611.000,0.000,0.000,0
2026-01-29 21:07:24,931088,4627.000,-895.000,-790.000,9177.000,-595.000,406.000,0.000,0.000,0
2026-01-29 21:07:24,931128,4924.000,652.000,-849.000,12666.000,645.000,-727.000,0.000,0.000,0
2026-01-29 21:07:24,931168,4108.000,1843.000,-485.000,15180.000,1513.000,-914.000,0.000,0.000,0
2026-01-29 21:07:24,931208,5359.000,3220.000,339.000,15436.000,-68.000,412.000,0.000,0.000,0
2026-01-29 21:07:24,931248,6860.000,4739.000,2260.000,9781.000,-2325.000,2269.000,0.000,0.000,0
2026-01-29 21:07:24,931288,8715.000,3880.000,1906.000,-642.000,-5354.000,4253.000,0.000,0.000,0
2026-01-29 21:07:24,931328,11282.000,854.000,804.000,-5701.000,-5610.000,3856.000,0.000,0.000,0
2026-01-29 21:07:24,931368,11484.000,1508.000,1192.000,-3248.000,-3432.000,2094.000,0.000,0.000,0
2026-01-29 21:07:24,931408,10613.000,1316.000,-47.000,-2115.000,-1136.000,277.000,0.000,0.000,0
2026-01-29 21:07:24,931448,12725.000,1211.000,-678.000,-495.000,1278.000,-1821.000,0.000,0.000,0
2026-01-29 21:07:24,931488,11244.000,2089.000,461.000,-197.000,3016.000,-2932.000,0.000,0.000,0
2026-01-29 21:07:24,931528,12611.000,2351.000,-820.000,-1685.000,2628.000,-3314.000,0.000,0.000,0
2026-01-29 21:07:24,931568,12220.000,1320.000,-2111.000,-4282.000,4250.000,-3917.000,0.000,0.000,0
2026-01-29 21:07:24,931608,8568.000,497.000,-1259.000,-5455.000,7123.000,-5793.000,0.000,0.000,0
2026-01-29 21:07:24,931648,6288.000,798.000,-1038.000,-5851.000,6282.000,-7097.000,0.000,0.000,0
2026-01-29 21:07:24,931688,5651.000,714.000,-690.000,-7095.000,5368.000,-7213.000,0.000,0.000,0
2026-01-29 21:07:24,931728,5883.000,911.000,-539.000,-6624.000,3965.000,-6638.000,0.000,0.000,0
2026-01-29 21:07:25,931768,6253.000,525.000,-1197.000,-5827.000,3138.000,-5398.000,0.000,0.000,0
2026-01-29 21:07:25,931808,7243.000,-174.000,-1913.000,-4234.000,3604.000,-3711.000,0.000,0.000,0
2026-01-29 21:07:25,931848,7690.000,-226.000,-1909.000,-1268.000,4018.000,-1726.000,0.000,0.000,0
2026-01-29 21:07:25,931888,8094.000,212.000,-2444.000,3248.000,4418.000,-15.000,0.000,0.000,0
2026-01-29 21:07:25,931928,7657.000,1021.000,-1918.000,6412.000,3786.000,1350.000,0.000,0.000,0
2026-01-29 21:07:25,931968,9148.000,1225.000,-497.000,6631.000,844.000,2857.000,0.000,0.000,0
2026-01-29 21:07:25,932008,9033.000,1725.000,797.000,4900.000,-3179.000,4744.000,0.000,0.000,0
2026-01-29 21:07:25,932048,9583.000,2142.000,1828.000,1585.000,-6928.000,6457.000,0.000,0.000,0
2026-01-29 21:07:25,932088,10976.000,1966.000,892.000,-3908.000,-9165.000,6707.000,0.000,0.000,0
2026-01-29 21:07:25,932128,9410.000,-298.000,135.000,-5669.000,-7365.000,5213.000,0.000,0.000,0
2026-01-29 21:07:25,932168,6700.000,-468.000,622.000,2147.000,-5002.000,1845.000,0.000,0.000,0
2026-01-29 21:07:25,932208,5140.000,368.000,476.000,6946.000,-2794.000,748.000,0.000,0.000,0
2026-01-29 21:07:25,932248,4415.000,1283.000,668.000,8484.000,-1310.000,733.000,0.000,0.000,0
2026-01-29 21:07:25,932288,4919.000,1556.000,377.000,8435.000,-978.000,1453.000,0.000,0.000,0
2026-01-29 21:07:25,932328,6532.000,1879.000,121.000,7921.000,-1255.000,2689.000,0.000,0.000,0
2026-01-29 21:07:25,932368,10509.000,2906.000,236.000,7183.000,-1706.000,4390.000,0.000,0.000,0
2026-01-29 21:07:25,932408,11255.000,3635.000,2242.000,3863.000,-3323.000,6168.000,0.000,0.000,0
2026-01-29 21:07:25,932448,11261.000,3375.000,1578.000,8.000,-5436.000,6266.000,0.000,0.000,0
2026-01-29 21:07:25,932488,10656.000,2319.000,-43.000,-2627.000,-3691.000,2891.000,0.000,0.000,0
2026-01-29 21:07:25,932528,11370.000,1574.000,-483.000,-3200.000,-1239.000,-543.000,0.000,0.000,0
2026-01-29 21:07:25,932568,10046.000,1685.000,21.000,-1287.000,2497.000,-2678.000,0.000,0.000,0
2026-01-29 21:07:25,932608,11894.000,2563.000,-836.000,-2871.000,3888.000,-3529.000,0.000,0.000,0
2026-01-29 21:07:25,932648,12411.000,1898.000,-1598.000,-6368.000,5053.000,-3523.000,0.000,0.000,0
2026-01-29 21:07:25,932688,10170.000,806.000,-1291.000,-7872.000,6208.000,-3994.000,0.000,0.000,0
2026-01-29 21:07:25,932728,7429.000,228.000,-827.000,-7577.000,5823.000,-5076.000,0.000,0.000,0
2026-01-29 21:07:26,932768,6045.000,243.000,-707.000,-5986.000,5504.000,-6483.000,0.000,0.000,0
2026-01-29 21:07:26,932808,5931.000,603.000,-778.000,-4469.000,5569.000,-7334.000,0.000,0.000,0
2026-01-29 21:07:26,932848,6692.000,583.000,-1795.000,-3937.000,5674.000,-7139.000,0.000,0.000,0
2026-01-29 21:07:26,932888,6984.000,366.000,-2240.000,-2435.000,6653.000,-6085.000,0.000,0.000,0
2026-01-29 21:07:26,932928,6860.000,-326.000,-1591.000,-363.000,6888.000,-4651.000,0.000,0.000,0
2026-01-29 21:07:26,932968,7674.000,465.000,-1848.000,2837.000,5164.000,-2266.000,0.000,0.000,0
2026-01-29 21:07:26,933008,7188.000,394.000,-514.000,6205.000,2971.000,188.000,0.000,0.000,0
2026-01-29 21:07:26,933048,9252.000,1363.000,-849.000,7883.000,-660.000,2924.000,0.000,0.000,0
2026-01-29 21:07:26,933088,7833.000,2497.000,596.000,7259.000,-2420.000,6474.000,0.000,0.000,0
2026-01-29 21:07:26,933128,8859.000,3118.000,2444.000,2678.000,-6072.000,9113.000,0.000,0.000,0
2026-01-29 21:07:26,933168,11870.000,1310.000,35.000,-3426.000,-8847.000,8912.000,0.000,0.000,0
2026-01-29 21:07:26,933208,10167.000,43.000,-879.000,-2474.000,-6156.000,6629.000,0.000,0.000,0
2026-01-29 21:07:26,933248,6654.000,112.000,1055.000,4932.000,-3267.000,3871.000,0.000,0.000,0
2026-01-29 21:07:26,933288,5448.000,1001.000,1341.000,7243.000,-3270.000,2204.000,0.000,0.000,0
2026-01-29 21:07:26,933328,5575.000,1180.000,400.000,8542.000,-2919.000,2310.000,0.000,0.000,0
2026-01-29 21:07:26,933368,6352.000,2133.000,-317.000,9422.000,-1606.000,3121.000,0.000,0.000,0
2026-01-29 21:07:26,933408,7862.000,2712.000,229.000,8039.000,-507.000,3687.000,0.000,0.000,0
2026-01-29 21:07:26,933448,9122.000,2848.000,1398.000,6872.000,-1083.000,4451.000,0.000,0.000,0
2026-01-29 21:07:26,933488,10728.000,5083.000,1043.000,5341.000,-2320.000,4388.000,0.000,0.000,0
2026-01-29 21:07:26,933528,11188.000,4495.000,-409.000,-1990.000,-1406.000,2763.000,0.000,0.000,0
2026-01-29 21:07:26,933568,12195.000,2616.000,-936.000,-4294.000,448.000,-182.000,0.000,0.000,0
2026-01-29 21:07:26,933608,10390.000,2630.000,485.000,-3673.000,1743.000,-3376.000,0.000,0.000,0
2026-01-29 21:07:26,933648,11389.000,2291.000,-587.000,-5347.000,1331.000,-5101.000,0.000,0.000,0
2026-01-29 21:07:26,933688,12184.000,2135.000,-1260.000,-7953.000,2828.000,-5713.000,0.000,0.000,0
2026-01-29 21:07:26,933728,10934.000,1057.000,-1238.000,-10105.000,4494.000,-5899.000,0.000,0.000,0
2026-01-29 21:07:27,933768,8431.000,515.000,-816.000,-10700.000,4879.000,-6107.000,0.000,0.000,0
2026-01-29 21:07:27,933808,6960.000,196.000,-785.000,-8923.000,4451.000,-6453.000,0.000,0.000,0
2026-01-29 21:07:27,933848,6589.000,672.000,-942.000,-7882.000,3900.000,-6300.000,0.000,0.000,0
2026-01-29 21:07:27,933888,6326.000,287.000,-1338.000,-5595.000,3921.000,-5693.000,0.000,0.000,0
2026-01-29 21:07:27,933928,5628.000,-1715.000,-937.000,-4962.000,5594.000,-4141.000,0.000,0.000,0
2026-01-29 21:07:27,933968,6848.000,525.000,-1862.000,-632.000,3775.000,-4156.000,0.000,0.000,0
2026-01-29 21:07:27,934008,6419.000,-966.000,-1376.000,2681.000,4754.000,-2118.000,0.000,0.000,0
2026-01-29 21:07:27,934048,6869.000,1026.000,-1623.000,6168.000,3652.000,-425.000,0.000,0.000,0
2026-01-29 21:07:27,934088,6910.000,1434.000,-316.000,7079.000,2268.000,2316.000,0.000,0.000,0
2026-01-29 21:07:27,934128,9148.000,1517.000,-187.000,5849.000,-690.000,5297.000,0.000,0.000,0
2026-01-29 21:07:27,934168,9993.000,2208.000,180.000,4816.000,-2457.000,8342.000,0.000,0.000,0
2026-01-29 21:07:27,934208,10011.000,2275.000,1713.000,2288.000,-4860.000,9928.000,0.000,0.000,0
2026-01-29 21:07:27,934248,11396.000,1249.000,1200.000,-73.000,-7663.000,9025.000,0.000,0.000,0
2026-01-29 21:07:27,934288,9708.000,-295.000,318.000,1986.000,-6586.000,5360.000,0.000,0.000,0
2026-01-29 21:07:27,934328,7348.000,1806.000,320.000,5607.000,-3599.000,2718.000,0.000,0.000,0
2026-01-29 21:07:27,934368,5392.000,1077.000,892.000,6076.000,-1213.000,2329.000,0.000,0.000,0
2026-01-29 21:07:27,934408,5084.000,1357.000,787.000,7134.000,-705.000,2306.000,0.000,0.000,0
2026-01-29 21:07:27,934448,6315.000,2444.000,533.000,7809.000,-773.000,2824.000,0.000,0.000,0
2026-01-29 21:07:27,934488,8278.000,3045.000,942.000,6094.000,-1382.000,3726.000,0.000,0.000,0
2026-01-29 21:07:27,934528,10090.000,3874.000,999.000,4349.000,-2091.000,4269.000,0.000,0.000,0
2026-01-29 21:07:27,934568,10085.000,4723.000,1250.000,709.000,-1805.000,3603.000,0.000,0.000,0
2026-01-29 21:07:27,934608,9023.000,3585.000,673.000,-3215.000,-1301.000,1776.000,0.000,0.000,0
2026-01-29 21:07:27,934648,11885.000,2696.000,-663.000,-3964.000,-665.000,-1031.000,0.000,0.000,0
2026-01-29 21:07:27,934688,10866.000,2384.000,74.000,-3225.000,1506.000,-3254.000,0.000,0.000,0
2026-01-29 21:07:27,934728,10943.000,2635.000,-427.000,-4352.000,1583.000,-4484.000,0.000,0.000,0
2026-01-29 21:07:28,934768,12955.000,2408.000,-1239.000,-7305.000,2641.000,-5221.000,0.000,0.000,0
2026-01-29 21:07:28,934808,13570.000,1113.000,-1732.000,-9957.000,4538.000,-5922.000,0.000,0.000,0
2026-01-29 21:07:28,934848,10622.000,335.000,-713.000,-10290.000,5568.000,-6973.000,0.000,0.000,0
2026-01-29 21:07:28,934888,8327.000,-302.000,-285.000,-8824.000,5287.000,-8188.000,0.000,0.000,0
2026-01-29 21:07:28,934928,6980.000,457.000,-392.000,-6214.000,4827.000,-9217.000,0.000,0.000,0
2026-01-29 21:07:28,934968,7193.000,1511.000,-1518.000,-5426.000,4910.000,-8285.000,0.000,0.000,0
2026-01-29 21:07:28,935008,4267.000,-1840.000,-667.000,-5360.000,6645.000,-7347.000,0.000,0.000,0
2026-01-29 21:07:28,935048,5037.000,-473.000,-1513.000,-1443.000,5209.000,-5538.000,0.000,0.000,0
2026-01-29 21:07:28,935088,3948.000,-953.000,-1021.000,3128.000,4951.000,-3641.000,0.000,0.000,0
2026-01-29 21:07:28,935128,4797.000,386.000,-1463.000,6458.000,3506.000,-373.000,0.000,0.000,0
2026-01-29 21:07:28,935168,6524.000,1364.000,-1549.000,9083.000,2562.000,4443.000,0.000,0.000,0
2026-01-29 21:07:28,935208,10095.000,1775.000,-1461.000,9455.000,1179.000,9345.000,0.000,0.000,0
2026-01-29 21:07:28,935248,12081.000,3207.000,-499.000,9210.000,-399.000,13650.000,0.000,0.000,0
2026-01-29 21:07:28,935288,11815.000,4191.000,4400.000,4996.000,-4347.000,16144.000,0.000,0.000,0
2026-01-29 21:07:28,935328,13296.000,3724.000,3040.000,-6327.000,-12450.000,14536.000,0.000,0.000,0
2026-01-29 21:07:28,935368,9460.000,-408.000,251.000,-8824.000,-10570.000,9165.000,0.000,0.000,0
2026-01-29 21:07:28,935408,6639.000,-1108.000,280.000,1564.000,-6338.000,3307.000,0.000,0.000,0
2026-01-29 21:07:28,935448,5531.000,107.000,-189.000,8530.000,185.000,-1105.000,0.000,0.000,0
2026-01-29 21:07:28,935488,5138.000,895.000,-821.000,12655.000,813.000,-1754.000,0.000,0.000,0
2026-01-29 21:07:28,935528,6265.000,3047.000,-613.000,13800.000,1502.000,-1691.000,0.000,0.000,0
2026-01-29 21:07:28,935568,6596.000,3857.000,644.000,9236.000,1703.000,-43.000,0.000,0.000,0
2026-01-29 21:07:28,935608,9031.000,4187.000,566.000,3453.000,-138.000,3097.000,0.000,0.000,0
2026-01-29 21:07:28,935648,9811.000,4973.000,2012.000,-2571.000,-2382.000,5285.000,0.000,0.000,0
2026-01-29 21:07:28,935688,9648.000,3847.000,705.000,-9591.000,-4749.000,5450.000,0.000,0.000,0
2026-01-29 21:07:28,935728,12075.000,1753.000,-990.000,-10858.000,-3778.000,2569.000,0.000,0.000,0
2026-01-29 21:07:29,935768,11219.000,833.000,361.000,-6473.000,335.000,-1407.000,0.000,0.000,0
2026-01-29 21:07:29,935808,10413.000,1022.000,-130.000,-3158.000,2268.000,-3973.000,0.000,0.000,0
2026-01-29 21:07:29,935848,13112.000,1460.000,-1360.000,-2159.000,4114.000,-5816.000,0.000,0.000,0
2026-01-29 21:07:29,935888,13067.000,1211.000,-1355.000,-3606.000,6842.000,-7024.000,0.000,0.000,0
2026-01-29 21:07:29,935928,10304.000,633.000,-293.000,-4866.000,7050.000,-8023.000,0.000,0.000,0
2026-01-29 21:07:29,935968,7943.000,334.000,-4.000,-5642.000,5662.000,-8681.000,0.000,0.000,0
2026-01-29 21:07:29,936008,6761.000,699.000,-271.000,-6118.000,4682.000,-9030.000,0.000,0.000,0
2026-01-29 21:07:29,936048,7025.000,1123.000,-1343.000,-5937.000,4429.000,-7936.000,0.000,0.000,0
2026-01-29 21:07:29,936088,5543.000,-1559.000,-1277.000,-6295.000,6533.000,-6262.000,0.000,0.000,0
2026-01-29 21:07:29,936128,6362.000,-544.000,-2343.000,-2471.000,5562.000,-5778.000,0.000,0.000,0
2026-01-29 21:07:29,936168,4506.000,-1194.000,-1198.000,2409.000,6177.000,-4279.000,0.000,0.000,0
2026-01-29 21:07:29,936208,5332.000,772.000,-1446.000,6452.000,3995.000,-921.000,0.000,0.000,0
2026-01-29 21:07:29,936248,6942.000,1856.000,-1014.000,9558.000,1929.000,4371.000,0.000,0.000,0
2026-01-29 21:07:29,936288,10520.000,2472.000,-960.000,8868.000,-572.000,9300.000,0.000,0.000,0
2026-01-29 21:07:29,936328,10894.000,3260.000,400.000,6076.000,-2102.000,12891.000,0.000,0.000,0
2026-01-29 21:07:29,936368,11619.000,3075.000,2393.000,271.000,-5956.000,14030.000,0.000,0.000,0
2026-01-29 21:07:29,936408,12583.000,2183.000,496.000,-8836.000,-9939.000,10844.000,0.000,0.000,0
2026-01-29 21:07:29,936448,8087.000,-1572.000,751.000,-206.000,-6862.000,3737.000,0.000,0.000,0
2026-01-29 21:07:29,936488,6047.000,-238.000,880.000,7912.000,-4284.000,1601.000,0.000,0.000,0
2026-01-29 21:07:29,936528,5338.000,1002.000,234.000,12252.000,-2103.000,1182.000,0.000,0.000,0
2026-01-29 21:07:29,936568,4544.000,3348.000,805.000,12614.000,57.000,1544.000,0.000,0.000,0
2026-01-29 21:07:29,936608,6238.000,4448.000,992.000,7013.000,-192.000,2200.000,0.000,0.000,0
2026-01-29 21:07:29,936648,8715.000,3818.000,15.000,779.000,-104.000,2724.000,0.000,0.000,0
2026-01-29 21:07:29,936688,9768.000,1607.000,836.000,-1781.000,949.000,2593.000,0.000,0.000,0
2026-01-29 21:07:29,936728,9172.000,534.000,1312.000,-2701.000,52.000,1275.000,0.000,0.000,0
2026-01-29 21:07:30,936768,9012.000,1632.000,1562.000,-1329.000,-1506.000,635.000,0.000,0.000,0
2026-01-29 21:07:30,936808,11810.000,1537.000,213.000,-434.000,-2012.000,-109.000,0.000,0.000,0
2026-01-29 21:07:30,936848,11527.000,2135.000,738.000,-855.000,-333.000,-1763.000,0.000,0.000,0
2026-01-29 21:07:30,936888,11426.000,2330.000,-36.000,-3177.000,751.000,-3177.000,0.000,0.000,0
2026-01-29 21:07:30,936928,12095.000,1343.000,-730.000,-5568.000,2706.000,-4739.000,0.000,0.000,0
2026-01-29 21:07:30,936968,12327.000,693.000,-1247.000,-6347.000,5021.000,-5910.000,0.000,0.000,0
2026-01-29 21:07:30,937008,10090.000,156.000,-729.000,-5625.000,6080.000,-7140.000,0.000,0.000,0
2026-01-29 21:07:30,937048,7423.000,-134.000,-23.000,-4363.000,6061.000,-7969.000,0.000,0.000,0
2026-01-29 21:07:30,937088,6224.000,863.000,108.000,-2382.000,5247.000,-8592.000,0.000,0.000,0
2026-01-29 21:07:30,937128,5901.000,848.000,-550.000,-2328.000,4755.000,-7975.000,0.000,0.000,0
2026-01-29 21:07:30,937168,5858.000,706.000,-1420.000,-3641.000,5194.000,-6384.000,0.000,0.000,0
2026-01-29 21:07:30,937208,4813.000,-59.000,-1433.000,-3260.000,5272.000,-5062.000,0.000,0.000,0
2026-01-29 21:07:30,937248,5827.000,-678.000,-1816.000,-315.000,4492.000,-3082.000,0.000,0.000,0
2026-01-29 21:07:30,937288,6344.000,546.000,-1320.000,3429.000,3070.000,-276.000,0.000,0.000,0
2026-01-29 21:07:30,937328,9335.000,1989.000,94.000,5508.000,721.000,3963.000,0.000,0.000,0
2026-01-29 21:07:30,937368,11154.000,1962.000,-456.000,5340.000,-2379.000,7932.000,0.000,0.000,0
2026-01-29 21:07:30,937408,11552.000,2447.000,-53.000,2460.000,-4275.000,10755.000,0.000,0.000,0
2026-01-29 21:07:30,937448,10728.000,125.000,453.000,560.000,-4751.000,8643.000,0.000,0.000,0
2026-01-29 21:07:30,937488,10048.000,-79.000,1361.000,2831.000,-5689.000,4497.000,0.000,0.000,0
2026-01-29 21:07:30,937528,7578.000,232.000,2143.000,7095.000,-5505.000,3293.000,0.000,0.000,0
2026-01-29 21:07:30,937568,6525.000,1611.000,1359.000,8504.000,-5434.000,4306.000,0.000,0.000,0
2026-01-29 21:07:30,937608,5909.000,1021.000,634.000,9685.000,-3408.000,5254.000,0.000,0.000,0
2026-01-29 21:07:30,937648,7073.000,1407.000,-1201.000,11623.000,-1546.000,5036.000,0.000,0.000,0
2026-01-29 21:07:30,937688,6678.000,3174.000,-1848.000,13320.000,2257.000,3450.000,0.000,0.000,0
2026-01-29 21:07:30,937728,8379.000,4480.000,116.000,11907.000,2671.000,3004.000,0.000,0.000,0
2026-01-29 21:07:31,937768,10245.000,5365.000,-21.000,6695.000,1190.000,3434.000,0.000,0.000,0
2026-01-29 21:07:31,937808,8866.000,5188.000,493.000,1527.000,-48.000,3505.000,0.000,0.000,0
2026-01-29 21:07:31,937848,9140.000,4449.000,499.000,-3307.000,-2257.000,1515.000,0.000,0.000,0
2026-01-29 21:07:31,937888,11073.000,4434.000,-426.000,-5768.000,-3070.000,-886.000,0.000,0.000,0
2026-01-29 21:07:31,937928,10704.000,3462.000,-184.000,-6832.000,-1714.000,-2936.000,0.000,0.000,0
2026-01-29 21:07:31,937968,11973.000,3641.000,-159.000,-8714.000,-689.000,-4569.000,0.000,0.000,0
2026-01-29 21:07:31,938008,14889.000,2892.000,-1786.000,-13195.000,1424.000,-6144.000,0.000,0.000,0
2026-01-29 21:07:31,938048,14310.000,50.000,-2809.000,-15926.000,5475.000,-8012.000,0.000,0.000,0
2026-01-29 21:07:31,938088,10675.000,-843.000,-1443.000,-12901.000,7949.000,-9592.000,0.000,0.000,0
2026-01-29 21:07:31,938128,7739.000,-448.000,-339.000,-8437.000,7106.000,-10529.000,0.000,0.000,0
2026-01-29 21:07:31,938168,5920.000,216.000,-644.000,-6051.000,4970.000,-10551.000,0.000,0.000,0
2026-01-29 21:07:31,938208,5209.000,930.000,-1162.000,-4060.000,3768.000,-9074.000,0.000,0.000,0
2026-01-29 21:07:31,938248,3806.000,-353.000,-560.000,-2877.000,3656.000,-6592.000,0.000,0.000,0
2026-01-29 21:07:31,938288,5156.000,810.000,-2047.000,-1042.000,1747.000,-1575.000,0.000,0.000,0
2026-01-29 21:07:31,938328,4957.000,2910.000,-3388.000,5663.000,41.000,778.000,0.000,0.000,0
2026-01-29 21:07:31,938368,5632.000,6015.000,-3657.000,9578.000,-2045.000,-1320.000,0.000,0.000,0
2026-01-29 21:07:31,938408,9013.000,14686.000,-3653.000,9184.000,-5949.000,-2966.000,0.000,0.000,0
2026-01-29 21:07:31,938448,6406.000,14581.000,-745.000,-1034.000,-7456.000,-1738.000,0.000,0.000,0
2026-01-29 21:07:31,938488,8786.000,13256.000,-510.000,-9739.000,-10081.000,-3496.000,0.000,0.000,0
2026-01-29 21:07:31,938528,8557.000,8591.000,-1082.000,-12057.000,-8333.000,-5402.000,0.000,0.000,0
2026-01-29 21:07:31,938568,7778.000,6777.000,515.000,-9986.000,-6965.000,-7356.000,0.000,0.000,0
2026-01-29 21:07:31,938608,6245.000,4584.000,475.000,-9121.000,-6538.000,-8161.000,0.000,0.000,0
2026-01-29 21:07:31,938648,4035.000,2663.000,755.000,-5794.000,-4516.000,-8974.000,0.000,0.000,0
2026-01-29 21:07:31,938688,4950.000,4597.000,2561.000,-4046.000,-4205.000,-8957.000,0.000,0.000,0
2026-01-29 21:07:31,938728,4930.000,2230.000,806.000,-3721.000,-2832.000,-8525.000,0.000,0.000,0
2026-01-29 21:07:32,938768,3617.000,2182.000,1214.000,1395.000,765.000,-8019.000,0.000,0.000,0
2026-01-29 21:07:32,938808,6629.000,5330.000,1896.000,2991.000,1830.000,-6376.000,0.000,0.000,0
2026-01-29 21:07:32,938848,4753.000,-1866.000,6875.000,3005.000,9927.000,1790.000,0.000,0.000,0
2026-01-29 21:07:32,938888,1720.000,2782.000,1782.000,5866.000,4791.000,-3767.000,0.000,0.000,0
2026-01-29 21:07:32,938928,-5007.000,10764.000,1682.000,10610.000,3901.000,-1129.000,0.000,0.000,0
2026-01-29 21:07:32,938968,88.000,13890.000,-5756.000,7277.000,-4291.000,3087.000,0.000,0.000,0
2026-01-29 21:07:32,939008,1638.000,10618.000,-2763.000,9468.000,-5093.000,1064.000,0.000,0.000,0
2026-01-29 21:07:32,939048,-1483.000,11550.000,-3982.000,4939.000,-4487.000,-601.000,0.000,0.000,0
2026-01-29 21:07:32,939088,-1308.000,8185.000,-5223.000,2141.000,-4499.000,-57.000,0.000,0.000,0
2026-01-29 21:07:32,939128,195.000,7242.000,-1902.000,1111.000,-3781.000,407.000,0.000,0.000,0
2026-01-29 21:07:32,939168,650.000,5208.000,524.000,2272.000,-4478.000,39.000,0.000,0.000,0
2026-01-29 21:07:32,939208,1886.000,3025.000,2206.000,3064.000,-2891.000,670.000,0.000,0.000,0
2026-01-29 21:07:32,939248,-481.000,4791.000,-1475.000,7044.000,-1576.000,-192.000,0.000,0.000,0
2026-01-29 21:07:32,939288,-1543.000,5879.000,-1739.000,7673.000,-1093.000,-326.000,0.000,0.000,0
2026-01-29 21:07:32,939328,-66.000,8452.000,-2475.000,3293.000,2504.000,-164.000,0.000,0.000,0
2026-01-29 21:07:32,939368,2061.000,7968.000,-507.000,-169.000,8523.000,1089.000,0.000,0.000,0
2026-01-29 21:07:32,939408,2926.000,6090.000,352.000,-3125.000,13935.000,4020.000,0.000,0.000,0
2026-01-29 21:07:32,939448,5029.000,7676.000,-3438.000,-9392.000,14151.000,7584.000,0.000,0.000,0
2026-01-29 21:07:32,939488,7804.000,9702.000,-8670.000,851.000,5994.000,8043.000,0.000,0.000,0
2026-01-29 21:07:32,939528,8631.000,13343.000,-7811.000,5914.000,2922.000,3910.000,0.000,0.000,0
2026-01-29 21:07:32,939568,6431.000,7232.000,-2828.000,-4102.000,5601.000,944.000,0.000,0.000,0
2026-01-29 21:07:32,939608,6176.000,2751.000,-4491.000,795.000,3521.000,-397.000,0.000,0.000,0
2026-01-29 21:07:32,939648,3718.000,5226.000,-1951.000,3093.000,2652.000,-1159.000,0.000,0.000,0
2026-01-29 21:07:32,939688,3190.000,3513.000,-431.000,2004.000,1875.000,-21.000,0.000,0.000,0
2026-01-29 21:07:32,939728,2711.000,3466.000,-762.000,5287.000,184.000,-2504.000,0.000,0.000,0
2026-01-29 21:07:33,939768,3202.000,2992.000,-1775.000,5564.000,1636.000,-3803.000,0.000,0.000,0
2026-01-29 21:07:33,939808,2960.000,6113.000,-1436.000,3343.000,4181.000,-4032.000,0.000,0.000,0
2026-01-29 21:07:33,939848,2768.000,5528.000,-3015.000,-2174.000,5225.000,-1511.000,0.000,0.000,0
2026-01-29 21:07:33,939888,2734.000,7082.000,-2105.000,-443.000,3769.000,729.000,0.000,0.000,0
2026-01-29 21:07:33,939928,3754.000,6877.000,-2786.000,-2313.000,1191.000,2188.000,0.000,0.000,0
2026-01-29 21:07:33,939968,4668.000,7313.000,-3181.000,-265.000,668.000,2051.000,0.000,0.000,0
2026-01-29 21:07:33,940008,5537.000,9412.000,-5121.000,3314.000,-336.000,795.000,0.000,0.000,0
2026-01-29 21:07:33,940048,4906.000,12177.000,-5024.000,3188.000,756.000,758.000,0.000,0.000,0
2026-01-29 21:07:33,940088,5084.000,10554.000,-5594.000,581.000,72.000,732.000,0.000,0.000,0
2026-01-29 21:07:33,940128,6168.000,10081.000,-4086.000,-2342.000,-520.000,1758.000,0.000,0.000,0
2026-01-29 21:07:33,940168,5815.000,8011.000,-2785.000,-7034.000,244.000,2506.000,0.000,0.000,0
2026-01-29 21:07:33,940208,4484.000,5608.000,-630.000,-10826.000,904.000,2695.000,0.000,0.000,0
2026-01-29 21:07:33,940248,3409.000,3652.000,-299.000,-11559.000,1220.000,2492.000,0.000,0.000,0
2026-01-29 21:07:33,940288,3206.000,1182.000,-482.000,-9994.000,2196.000,2800.000,0.000,0.000,0
2026-01-29 21:07:33,940328,3454.000,191.000,-650.000,-7719.000,2669.000,2894.000,0.000,0.000,0
2026-01-29 21:07:33,940368,4530.000,-620.000,-1713.000,-3561.000,2342.000,3091.000,0.000,0.000,0
2026-01-29 21:07:33,940408,7134.000,-110.000,-2327.000,2870.000,2956.000,4185.000,0.000,0.000,0
2026-01-29 21:07:33,940448,8879.000,1138.000,-1940.000,7961.000,3877.000,6181.000,0.000,0.000,0
2026-01-29 21:07:33,940488,11386.000,1984.000,-2633.000,10883.000,1414.000,8727.000,0.000,0.000,0
2026-01-29 21:07:33,940528,13223.000,3970.000,-1600.000,14302.000,-1190.000,12712.000,0.000,0.000,0
2026-01-29 21:07:33,940568,9455.000,5476.000,-881.000,9670.000,-8948.000,15537.000,0.000,0.000,0
2026-01-29 21:07:33,940608,12978.000,2080.000,-6775.000,-2257.000,-11509.000,14613.000,0.000,0.000,0
2026-01-29 21:07:33,940648,10853.000,324.000,-4481.000,-2411.000,-4894.000,9239.000,0.000,0.000,0
2026-01-29 21:07:33,940688,7375.000,-44.000,-1937.000,1571.000,-572.000,1317.000,0.000,0.000,0
2026-01-29 21:07:33,940728,6758.000,227.000,-613.000,5889.000,-151.000,-3049.000,0.000,0.000,0
2026-01-29 21:07:34,940768,5212.000,1261.000,-252.000,9153.000,-335.000,-3440.000,0.000,0.000,0
2026-01-29 21:07:34,940808,5022.000,2272.000,-659.000,10080.000,183.000,-2141.000,0.000,0.000,0
2026-01-29 21:07:34,940848,5451.000,2659.000,-1100.000,8019.000,1029.000,301.000,0.000,0.000,0
2026-01-29 21:07:34,940888,6641.000,3840.000,-406.000,5862.000,1192.000,2836.000,0.000,0.000,0
2026-01-29 21:07:34,940928,9323.000,3421.000,512.000,1610.000,-956.000,4316.000,0.000,0.000,0
2026-01-29 21:07:34,940968,10443.000,4444.000,19.000,874.000,-3090.000,3547.000,0.000,0.000,0
2026-01-29 21:07:34,941008,9594.000,4530.000,454.000,-2299.000,-2627.000,1622.000,0.000,0.000,0
2026-01-29 21:07:34,941048,12070.000,3082.000,-1379.000,-4904.000,-1650.000,-1283.000,0.000,0.000,0
2026-01-29 21:07:34,941088,11410.000,2729.000,-124.000,-4631.000,1315.000,-3471.000,0.000,0.000,0
2026-01-29 21:07:34,941128,11689.000,3029.000,-769.000,-5162.000,2087.000,-4420.000,0.000,0.000,0
2026-01-29 21:07:34,941168,13707.000,2763.000,-2331.000,-7258.000,3970.000,-5079.000,0.000,0.000,0
2026-01-29 21:07:34,941208,13162.000,1906.000,-2507.000,-8325.000,5174.000,-6340.000,0.000,0.000,0
2026-01-29 21:07:34,941248,9193.000,1653.000,-1741.000,-8956.000,6799.000,-7973.000,0.000,0.000,0
2026-01-29 21:07:34,941288,7423.000,1237.000,-1775.000,-8965.000,6519.000,-8008.000,0.000,0.000,0
2026-01-29 21:07:34,941328,6802.000,1007.000,-1507.000,-8568.000,6674.000,-7354.000,0.000,0.000,0
2026-01-29 21:07:34,941368,5751.000,467.000,-1277.000,-6748.000,6329.000,-6125.000,0.000,0.000,0
2026-01-29 21:07:34,941408,5540.000,262.000,-1771.000,-4330.000,5512.000,-4768.000,0.000,0.000,0
2026-01-29 21:07:34,941448,6141.000,45.000,-2231.000,-1069.000,4889.000,-3051.000,0.000,0.000,0
2026-01-29 21:07:34,941488,6314.000,-15.000,-2223.000,2163.000,4603.000,-802.000,0.000,0.000,0
2026-01-29 21:07:34,941528,6460.000,711.000,-2669.000,5386.000,3516.000,1410.000,0.000,0.000,0
2026-01-29 21:07:34,941568,8309.000,1380.000,-2656.000,7607.000,1843.000,3714.000,0.000,0.000,0
2026-01-29 21:07:34,941608,8502.000,2619.000,-656.000,8048.000,-455.000,6639.000,0.000,0.000,0
2026-01-29 21:07:34,941649,9698.000,2807.000,1771.000,3699.000,-5062.000,8832.000,0.000,0.000,0
2026-01-29 21:07:34,941688,12092.000,2515.000,1119.000,-2876.000,-9005.000,9205.000,0.000,0.000,0
2026-01-29 21:07:34,941728,10761.000,1736.000,16.000,-5651.000,-8610.000,8597.000,0.000,0.000,0
2026-01-29 21:07:35,941768,8658.000,-856.000,6.000,-1710.000,-7415.000,6051.000,0.000,0.000,0
2026-01-29 21:07:35,941808,6504.000,-459.000,1454.000,5388.000,-5885.000,3672.000,0.000,0.000,0
2026-01-29 21:07:35,941848,6299.000,589.000,720.000,9889.000,-5137.000,3194.000,0.000,0.000,0
2026-01-29 21:07:35,941888,7104.000,2351.000,-108.000,12909.000,-3876.000,3611.000,0.000,0.000,0
2026-01-29 21:07:35,941928,8586.000,3523.000,672.000,12196.000,-1389.000,3957.000,0.000,0.000,0
2026-01-29 21:07:35,941968,9407.000,3688.000,662.000,11019.000,-1426.000,4636.000,0.000,0.000,0
2026-01-29 21:07:35,942008,9814.000,5273.000,1349.000,9054.000,-1148.000,3592.000,0.000,0.000,0
2026-01-29 21:07:35,942048,8831.000,5507.000,879.000,5138.000,-524.000,1324.000,0.000,0.000,0
2026-01-29 21:07:35,942088,9545.000,4317.000,-65.000,2299.000,87.000,-1705.000,0.000,0.000,0
2026-01-29 21:07:35,942128,11135.000,5021.000,540.000,516.000,173.000,-3165.000,0.000,0.000,0
2026-01-29 21:07:35,942168,11013.000,5205.000,55.000,-1466.000,-122.000,-3266.000,0.000,0.000,0
2026-01-29 21:07:35,942208,14529.000,3880.000,-2193.000,-12829.000,1493.000,-4131.000,0.000,0.000,0
2026-01-29 21:07:35,942248,13885.000,1776.000,-2692.000,-14777.000,4276.000,-5737.000,0.000,0.000,0
2026-01-29 21:07:35,942288,10522.000,684.000,-1942.000,-12847.000,5724.000,-8043.000,0.000,0.000,0
2026-01-29 21:07:35,942328,8078.000,378.000,-1825.000,-10204.000,6181.000,-9132.000,0.000,0.000,0
2026-01-29 21:07:35,942368,6292.000,135.000,-1411.000,-6965.000,6583.000,-9264.000,0.000,0.000,0
2026-01-29 21:07:35,942408,5437.000,-107.000,-982.000,-5885.000,7082.000,-8972.000,0.000,0.000,0
2026-01-29 21:07:35,942448,5472.000,805.000,-710.000,-4609.000,7145.000,-8188.000,0.000,0.000,0
2026-01-29 21:07:35,942488,6924.000,729.000,-832.000,-2841.000,5958.000,-5255.000,0.000,0.000,0
2026-01-29 21:07:35,942528,7990.000,639.000,-1698.000,-1555.000,4886.000,-1265.000,0.000,0.000,0
2026-01-29 21:07:35,942568,8003.000,911.000,-1667.000,226.000,4262.000,2656.000,0.000,0.000,0
2026-01-29 21:07:35,942608,7146.000,2244.000,-208.000,1029.000,1882.000,5421.000,0.000,0.000,0
2026-01-29 21:07:35,942648,7583.000,1851.000,818.000,-3237.000,-1923.000,8836.000,0.000,0.000,0
2026-01-29 21:07:35,942688,8340.000,-2046.000,646.000,-5712.000,-7725.000,12418.000,0.000,0.000,0
2026-01-29 21:07:35,942728,10981.000,-863.000,978.000,783.000,-13480.000,12349.000,0.000,0.000,0
2026-01-29 21:07:36,942768,12438.000,-343.000,298.000,1582.000,-15594.000,10612.000,0.000,0.000,0
2026-01-29 21:07:36,942808,10423.000,-1471.000,-859.000,196.000,-12790.000,6876.000,0.000,0.000,0
2026-01-29 21:07:36,942848,8062.000,-592.000,18.000,1432.000,-9270.000,2175.000,0.000,0.000,0
2026-01-29 21:07:36,942888,6885.000,-705.000,-27.000,5668.000,-9394.000,269.000,0.000,0.000,0
2026-01-29 21:07:36,942928,7467.000,959.000,-129.000,7737.000,-6011.000,679.000,0.000,0.000,0
2026-01-29 21:07:36,942968,8500.000,1714.000,579.000,9030.000,-5623.000,1931.000,0.000,0.000,0
2026-01-29 21:07:36,943008,8796.000,2589.000,2349.000,6478.000,-3924.000,1934.000,0.000,0.000,0
2026-01-29 21:07:36,943048,10605.000,3361.000,3221.000,2642.000,-3845.000,2402.000,0.000,0.000,0
2026-01-29 21:07:36,943088,10738.000,3179.000,2660.000,-2496.000,-2398.000,2195.000,0.000,0.000,0
2026-01-29 21:07:36,943128,10410.000,1891.000,1544.000,-3365.000,-1590.000,1642.000,0.000,0.000,0
2026-01-29 21:07:36,943168,13638.000,2001.000,803.000,-1004.000,4557.000,-3132.000,0.000,0.000,0
2026-01-29 21:07:36,943208,11759.000,2332.000,716.000,-1712.000,5747.000,-4734.000,0.000,0.000,0
2026-01-29 21:07:36,943248,13844.000,1650.000,-672.000,-3234.000,6615.000,-5679.000,0.000,0.000,0
2026-01-29 21:07:36,943288,15741.000,654.000,-2217.000,-3616.000,9805.000,-7208.000,0.000,0.000,0
2026-01-29 21:07:36,943328,13134.000,335.000,-1965.000,-1339.000,12019.000,-8599.000,0.000,0.000,0
2026-01-29 21:07:36,943368,9452.000,560.000,-1402.000,-1180.000,11282.000,-10041.000,0.000,0.000,0
2026-01-29 21:07:36,943408,7470.000,1007.000,-1155.000,-3784.000,9793.000,-10684.000,0.000,0.000,0
2026-01-29 21:07:36,943448,6743.000,965.000,-923.000,-5703.000,7421.000,-9365.000,0.000,0.000,0
2026-01-29 21:07:36,943488,6225.000,373.000,-1181.000,-5832.000,5844.000,-7533.000,0.000,0.000,0
2026-01-29 21:07:36,943528,5780.000,-155.000,-1436.000,-4502.000,5049.000,-5457.000,0.000,0.000,0
2026-01-29 21:07:36,943568,6129.000,-449.000,-1695.000,-1534.000,4008.000,-3471.000,0.000,0.000,0
2026-01-29 21:07:36,943608,6292.000,187.000,-1968.000,1566.000,3175.000,-1379.000,0.000,0.000,0
2026-01-29 21:07:36,943648,5711.000,344.000,-1396.000,3039.000,1962.000,987.000,0.000,0.000,0
2026-01-29 21:07:36,943688,6636.000,487.000,-152.000,3337.000,-777.000,3271.000,0.000,0.000,0
2026-01-29 21:07:36,943728,8738.000,723.000,-11.000,3420.000,-3275.000,6030.000,0.000,0.000,0
2026-01-29 21:07:37,943768,9366.000,1394.000,1251.000,2721.000,-6036.000,9315.000,0.000,0.000,0
2026-01-29 21:07:37,943808,11546.000,653.000,722.000,1212.000,-9045.000,11429.000,0.000,0.000,0
2026-01-29 21:07:37,943848,13102.000,680.000,1629.000,2486.000,-11539.000,11235.000,0.000,0.000,0
2026-01-29 21:07:37,943888,11715.000,660.000,1054.000,2355.000,-12909.000,9870.000,0.000,0.000,0
2026-01-29 21:07:37,943928,9023.000,357.000,-321.000,4554.000,-10385.000,7417.000,0.000,0.000,0
2026-01-29 21:07:37,943968,8078.000,1187.000,-394.000,6889.000,-6454.000,5115.000,0.000,0.000,0
2026-01-29 21:07:37,944008,8205.000,656.000,179.000,9420.000,-4403.000,4154.000,0.000,0.000,0
2026-01-29 21:07:37,944048,8864.000,2337.000,331.000,12362.000,-3849.000,3496.000,0.000,0.000,0
2026-01-29 21:07:37,944088,9669.000,4143.000,1270.000,12415.000,-3668.000,3810.000,0.000,0.000,0
2026-01-29 21:07:37,944128,9798.000,7718.000,2812.000,3044.000,-2444.000,4698.000,0.000,0.000,0
2026-01-29 21:07:37,944168,9219.000,3949.000,1235.000,-4081.000,-959.000,2241.000,0.000,0.000,0
2026-01-29 21:07:37,944208,9439.000,2436.000,439.000,-3623.000,305.000,-1120.000,0.000,0.000,0
2026-01-29 21:07:37,944248,12060.000,3884.000,30.000,-1939.000,2110.000,-3176.000,0.000,0.000,0
2026-01-29 21:07:37,944288,11163.000,4020.000,591.000,-4949.000,3004.000,-4259.000,0.000,0.000,0
2026-01-29 21:07:37,944328,13766.000,2892.000,-1554.000,-9454.000,3346.000,-5234.000,0.000,0.000,0
2026-01-29 21:07:37,944368,16168.000,1664.000,-2979.000,-11827.000,6785.000,-6662.000,0.000,0.000,0
2026-01-29 21:07:37,944408,14701.000,254.000,-2951.000,-10625.000,10128.000,-7823.000,0.000,0.000,0
2026-01-29 21:07:37,944448,11152.000,324.000,-2146.000,-9685.000,10758.000,-8912.000,0.000,0.000,0
2026-01-29 21:07:37,944488,8307.000,-182.000,-1456.000,-8847.000,9922.000,-9462.000,0.000,0.000,0
2026-01-29 21:07:37,944528,7208.000,308.000,-1042.000,-6326.000,7679.000,-9267.000,0.000,0.000,0
2026-01-29 21:07:37,944568,7321.000,1219.000,-736.000,-4987.000,5290.000,-7937.000,0.000,0.000,0
2026-01-29 21:07:37,944608,7057.000,1138.000,-1705.000,-5553.000,4037.000,-5715.000,0.000,0.000,0
2026-01-29 21:07:37,944648,7398.000,-92.000,-2847.000,-5055.000,4272.000,-3455.000,0.000,0.000,0
2026-01-29 21:07:37,944688,7584.000,-37.000,-2663.000,-1186.000,4946.000,-1972.000,0.000,0.000,0
2026-01-29 21:07:37,944728,6460.000,173.000,-2421.000,2827.000,4145.000,-775.000,0.000,0.000,0
2026-01-29 21:07:38,944768,6062.000,1010.000,-765.000,4758.000,1606.000,375.000,0.000,0.000,0
2026-01-29 21:07:38,944808,7423.000,1444.000,-84.000,3805.000,-2132.000,2611.000,0.000,0.000,0
2026-01-29 21:07:38,944848,6275.000,1842.000,2327.000,991.000,-5096.000,5011.000,0.000,0.000,0
2026-01-29 21:07:38,944888,9159.000,1812.000,3039.000,-6141.000,-9694.000,6066.000,0.000,0.000,0
2026-01-29 21:07:38,944928,11174.000,-842.000,686.000,-8747.000,-12732.000,6803.000,0.000,0.000,0
2026-01-29 21:07:38,944968,11298.000,-2044.000,181.000,-397.000,-11818.000,6795.000,0.000,0.000,0
2026-01-29 21:07:38,945008,8973.000,-1707.000,1319.000,6389.000,-9507.000,4676.000,0.000,0.000,0
2026-01-29 21:07:38,945048,7766.000,954.000,714.000,10445.000,-7747.000,2084.000,0.000,0.000,0
2026-01-29 21:07:38,945088,7999.000,2127.000,1096.000,14453.000,-4792.000,2455.000,0.000,0.000,0
2026-01-29 21:07:38,945128,8426.000,4694.000,1205.000,12278.000,-2998.000,2647.000,0.000,0.000,0
2026-01-29 21:07:38,945168,8714.000,4987.000,1615.000,8701.000,-2332.000,3048.000,0.000,0.000,0
2026-01-29 21:07:38,945208,9962.000,5113.000,1321.000,5430.000,-1587.000,2768.000,0.000,0.000,0
2026-01-29 21:07:38,945248,9128.000,5325.000,851.000,2466.000,-881.000,1990.000,0.000,0.000,0
2026-01-29 21:07:38,945288,8469.000,4649.000,473.000,-608.000,-905.000,578.000,0.000,0.000,0
2026-01-29 21:07:38,945328,11558.000,4264.000,-823.000,-2498.000,-601.000,-1447.000,0.000,0.000,0
2026-01-29 21:07:38,945368,10904.000,4409.000,-158.000,-4406.000,491.000,-2475.000,0.000,0.000,0
2026-01-29 21:07:38,945408,12603.000,4046.000,-1665.000,-7493.000,828.000,-3208.000,0.000,0.000,0
2026-01-29 21:07:38,945448,13868.000,3745.000,-2419.000,-10323.000,2263.000,-3940.000,0.000,0.000,0
2026-01-29 21:07:38,945488,12908.000,2192.000,-3560.000,-14178.000,3498.000,-4367.000,0.000,0.000,0
2026-01-29 21:07:38,945528,9404.000,452.000,-3254.000,-14858.000,4900.000,-4650.000,0.000,0.000,0
2026-01-29 21:07:38,945568,6312.000,-1278.000,-2728.000,-12628.000,5831.000,-4646.000,0.000,0.000,0
2026-01-29 21:07:38,945608,4891.000,-1215.000,-1062.000,-8510.000,6338.000,-4928.000,0.000,0.000,0
2026-01-29 21:07:38,945648,5352.000,149.000,-926.000,-4830.000,5031.000,-3773.000,0.000,0.000,0
2026-01-29 21:07:38,945688,5905.000,-91.000,-1760.000,-5479.000,4674.000,-1925.000,0.000,0.000,0
2026-01-29 21:07:38,945728,6773.000,-2007.000,-2894.000,-3925.000,5176.000,-453.000,0.000,0.000,0
2026-01-29 21:07:39,945768,7746.000,-1268.000,-3347.000,3013.000,5266.000,212.000,0.000,0.000,0
2026-01-29 21:07:39,945808,7646.000,525.000,-3197.000,8271.000,4436.000,1512.000,0.000,0.000,0
2026-01-29 21:07:39,945848,8311.000,2117.000,-1690.000,7647.000,2931.000,3541.000,0.000,0.000,0
2026-01-29 21:07:39,945888,10067.000,1799.000,-789.000,5785.000,236.000,6030.000,0.000,0.000,0
2026-01-29 21:07:39,945928,8042.000,1761.000,2314.000,5161.000,-3775.000,7675.000,0.000,0.000,0
2026-01-29 21:07:39,945968,9987.000,1427.000,3310.000,3578.000,-9042.000,7423.000,0.000,0.000,0
2026-01-29 21:07:39,946008,11641.000,1174.000,1249.000,1423.000,-10691.000,6569.000,0.000,0.000,0
2026-01-29 21:07:39,946048,7813.000,104.000,776.000,1660.000,-4787.000,2228.000,0.000,0.000,0
2026-01-29 21:07:39,946088,5642.000,413.000,1784.000,5705.000,-2001.000,521.000,0.000,0.000,0
2026-01-29 21:07:39,946128,4999.000,279.000,1516.000,8445.000,-1592.000,315.000,0.000,0.000,0
2026-01-29 21:07:39,946168,5799.000,2426.000,1144.000,10647.000,-2535.000,1017.000,0.000,0.000,0
2026-01-29 21:07:39,946208,7304.000,3009.000,1401.000,7966.000,-1867.000,2068.000,0.000,0.000,0
2026-01-29 21:07:39,946248,9142.000,3360.000,1526.000,3200.000,-2102.000,3947.000,0.000,0.000,0
2026-01-29 21:07:39,946288,9945.000,3073.000,1945.000,-179.000,-2303.000,4595.000,0.000,0.000,0
2026-01-29 21:07:39,946328,9939.000,3023.000,1216.000,-2665.000,-2064.000,3434.000,0.000,0.000,0
2026-01-29 21:07:39,946368,10162.000,1636.000,-289.000,-2693.000,-511.000,897.000,0.000,0.000,0
2026-01-29 21:07:39,946408,12275.000,2315.000,69.000,-446.000,1845.000,-1740.000,0.000,0.000,0
2026-01-29 21:07:39,946448,10160.000,2878.000,780.000,-1151.000,2368.000,-2794.000,0.000,0.000,0
2026-01-29 21:07:39,946488,11914.000,2875.000,-569.000,-3908.000,2574.000,-2999.000,0.000,0.000,0
2026-01-29 21:07:39,946528,12994.000,2619.000,-1162.000,-7193.000,3784.000,-3279.000,0.000,0.000,0
2026-01-29 21:07:39,946568,11373.000,1380.000,-925.000,-9016.000,5044.000,-3972.000,0.000,0.000,0
2026-01-29 21:07:39,946608,8480.000,207.000,-577.000,-8559.000,5507.000,-5840.000,0.000,0.000,0
2026-01-29 21:07:39,946648,6954.000,432.000,-331.000,-6557.000,5668.000,-7641.000,0.000,0.000,0
2026-01-29 21:07:39,946688,7146.000,708.000,-516.000,-4783.000,5720.000,-8442.000,0.000,0.000,0
2026-01-29 21:07:39,946728,7011.000,674.000,-1320.000,-4557.000,6106.000,-8147.000,0.000,0.000,0
2026-01-29 21:07:40,946768,5944.000,-944.000,-2143.000,-4129.000,6606.000,-7075.000,0.000,0.000,0
2026-01-29 21:07:40,946808,6452.000,-2897.000,-2780.000,-1007.000,6491.000,-5613.000,0.000,0.000,0
2026-01-29 21:07:40,946848,6772.000,499.000,-1918.000,5450.000,5433.000,-2913.000,0.000,0.000,0
2026-01-29 21:07:40,946888,6496.000,1968.000,-308.000,7456.000,3048.000,2144.000,0.000,0.000,0
2026-01-29 21:07:40,946928,7912.000,1828.000,878.000,4152.000,-802.000,5536.000,0.000,0.000,0
2026-01-29 21:07:40,946968,9295.000,1448.000,301.000,1310.000,-3986.000,8225.000,0.000,0.000,0
2026-01-29 21:07:40,947008,10480.000,1408.000,1788.000,-834.000,-6223.000,8745.000,0.000,0.000,0
2026-01-29 21:07:40,947048,11213.000,955.000,1551.000,-1818.000,-8258.000,7905.000,0.000,0.000,0
2026-01-29 21:07:40,947088,9809.000,-423.000,1054.000,767.000,-7887.000,6155.000,0.000,0.000,0
2026-01-29 21:07:40,947128,7314.000,-666.000,1295.000,6474.000,-5161.000,3470.000,0.000,0.000,0
2026-01-29 21:07:40,947168,5728.000,1697.000,1588.000,10829.000,-3928.000,2018.000,0.000,0.000,0
2026-01-29 21:07:40,947208,6082.000,1920.000,965.000,11000.000,-2601.000,2604.000,0.000,0.000,0
2026-01-29 21:07:40,947248,6806.000,3117.000,1257.000,9251.000,-1714.000,3567.000,0.000,0.000,0
2026-01-29 21:07:40,947288,7833.000,3658.000,1721.000,5530.000,-1113.000,4105.000,0.000,0.000,0
2026-01-29 21:07:40,947328,9163.000,3339.000,1498.000,3063.000,-1381.000,4638.000,0.000,0.000,0
2026-01-29 21:07:40,947368,10011.000,3322.000,1330.000,2444.000,-987.000,4105.000,0.000,0.000,0
2026-01-29 21:07:40,947408,9131.000,4397.000,955.000,1061.000,-238.000,2373.000,0.000,0.000,0
2026-01-29 21:07:40,947448,9789.000,3395.000,145.000,-988.000,-158.000,174.000,0.000,0.000,0
2026-01-29 21:07:40,947488,11288.000,3649.000,301.000,-1672.000,768.000,-2382.000,0.000,0.000,0
2026-01-29 21:07:40,947528,11916.000,3835.000,-188.000,-4545.000,963.000,-3005.000,0.000,0.000,0
2026-01-29 21:07:40,947568,13412.000,2850.000,-1291.000,-8294.000,2576.000,-4167.000,0.000,0.000,0
2026-01-29 21:07:40,947608,14257.000,1390.000,-1614.000,-10123.000,4733.000,-5978.000,0.000,0.000,0
2026-01-29 21:07:40,947648,11759.000,-172.000,-598.000,-9353.000,6394.000,-8224.000,0.000,0.000,0
2026-01-29 21:07:40,947688,8894.000,-155.000,451.000,-6831.000,5983.000,-10458.000,0.000,0.000,0
2026-01-29 21:07:40,947728,7629.000,721.000,894.000,-5254.000,5399.000,-11419.000,0.000,0.000,0
2026-01-29 21:07:41,947768,7272.000,972.000,-4.000,-5652.000,5249.000,-10378.000,0.000,0.000,0
2026-01-29 21:07:41,947808,6922.000,378.000,-1519.000,-5581.000,5810.000,-8231.000,0.000,0.000,0
2026-01-29 21:07:41,947848,5578.000,-546.000,-1688.000,-4268.000,6607.000,-6407.000,0.000,0.000,0
2026-01-29 21:07:41,947888,5542.000,-1313.000,-1781.000,-1544.000,5615.000,-4485.000,0.000,0.000,0
2026-01-29 21:07:41,947928,6306.000,962.000,-1322.000,3205.000,2808.000,1079.000,0.000,0.000,0
2026-01-29 21:07:41,947968,6662.000,2224.000,461.000,5635.000,-2239.000,5633.000,0.000,0.000,0
2026-01-29 21:07:41,948008,8630.000,1820.000,-8.000,-1181.000,-6812.000,9081.000,0.000,0.000,0
2026-01-29 21:07:41,948048,9577.000,1265.000,-706.000,-4793.000,-9095.000,11364.000,0.000,0.000,0
2026-01-29 21:07:41,948088,11584.000,425.000,150.000,-3235.000,-10166.000,12223.000,0.000,0.000,0
2026-01-29 21:07:41,948128,12365.000,1362.000,584.000,-2767.000,-10885.000,10571.000,0.000,0.000,0
2026-01-29 21:07:41,948168,9699.000,-84.000,-120.000,-2983.000,-8709.000,7825.000,0.000,0.000,0
2026-01-29 21:07:41,948208,6526.000,-664.000,726.000,2139.000,-6432.000,3656.000,0.000,0.000,0
2026-01-29 21:07:41,948248,6114.000,-1345.000,-1320.000,7847.000,-6637.000,-78.000,0.000,0.000,0
2026-01-29 21:07:41,948289,6503.000,2255.000,-291.000,14779.000,-3960.000,-1681.000,0.000,0.000,0
2026-01-29 21:07:41,948328,7934.000,2907.000,517.000,14613.000,-2317.000,-402.000,0.000,0.000,0
2026-01-29 21:07:41,948368,8496.000,4488.000,2124.000,9291.000,-1780.000,1512.000,0.000,0.000,0
2026-01-29 21:07:41,948408,9834.000,3336.000,2616.000,3644.000,-2088.000,3263.000,0.000,0.000,0
2026-01-29 21:07:41,948448,10487.000,4328.000,2330.000,824.000,-2095.000,2400.000,0.000,0.000,0
2026-01-29 21:07:41,948488,9783.000,2038.000,255.000,-1904.000,-1341.000,51.000,0.000,0.000,0
2026-01-29 21:07:41,948528,11800.000,2634.000,533.000,-55.000,364.000,-2383.000,0.000,0.000,0
2026-01-29 21:07:41,948568,11868.000,3861.000,671.000,-1550.000,1763.000,-2251.000,0.000,0.000,0
2026-01-29 21:07:41,948608,12565.000,3526.000,-602.000,-6961.000,3637.000,-2096.000,0.000,0.000,0
2026-01-29 21:07:41,948648,14198.000,2029.000,-1430.000,-10372.000,6614.000,-2931.000,0.000,0.000,0
2026-01-29 21:07:41,948688,13231.000,561.000,-1471.000,-10167.000,8999.000,-4596.000,0.000,0.000,0
2026-01-29 21:07:41,948728,9749.000,-23.000,-792.000,-7897.000,9487.000,-6619.000,0.000,0.000,0
2026-01-29 21:07:42,948768,7386.000,-114.000,-447.000,-4956.000,8791.000,-8382.000,0.000,0.000,0
2026-01-29 21:07:42,948808,6354.000,-367.000,-507.000,236.000,7464.000,-8721.000,0.000,0.000,0
2026-01-29 21:07:42,948848,5753.000,1214.000,-665.000,1892.000,6410.000,-8595.000,0.000,0.000,0
2026-01-29 21:07:42,948888,6048.000,606.000,-1250.000,-510.000,5565.000,-5117.000,0.000,0.000,0
2026-01-29 21:07:42,948928,7333.000,-133.000,-1940.000,-1653.000,4394.000,-2367.000,0.000,0.000,0
2026-01-29 21:07:42,948968,7288.000,-232.000,-2438.000,1404.000,3742.000,98.000,0.000,0.000,0
2026-01-29 21:07:42,949008,6626.000,721.000,-1111.000,2889.000,1288.000,1683.000,0.000,0.000,0
2026-01-29 21:07:42,949048,9496.000,1071.000,-1779.000,1840.000,-1690.000,3712.000,0.000,0.000,0
2026-01-29 21:07:42,949088,8529.000,662.000,-291.000,1005.000,-3888.000,5644.000,0.000,0.000,0
2026-01-29 21:07:42,949128,10493.000,-516.000,830.000,1423.000,-6850.000,5764.000,0.000,0.000,0
2026-01-29 21:07:42,949168,11332.000,684.000,492.000,2638.000,-7686.000,6254.000,0.000,0.000,0
2026-01-29 21:07:42,949208,9475.000,993.000,1568.000,2199.000,-7196.000,7156.000,0.000,0.000,0
2026-01-29 21:07:42,949248,7126.000,287.000,1479.000,18.000,-7073.000,6257.000,0.000,0.000,0
2026-01-29 21:07:42,949288,6528.000,256.000,1288.000,1716.000,-7670.000,5808.000,0.000,0.000,0
2026-01-29 21:07:42,949328,7082.000,608.000,746.000,4378.000,-7523.000,5719.000,0.000,0.000,0
2026-01-29 21:07:42,949368,8682.000,1762.000,1250.000,7147.000,-6136.000,5890.000,0.000,0.000,0
2026-01-29 21:07:42,949408,10341.000,2157.000,1842.000,7359.000,-4465.000,6157.000,0.000,0.000,0
2026-01-29 21:07:42,949448,11705.000,-441.000,1968.000,12323.000,-3169.000,4097.000,0.000,0.000,0
2026-01-29 21:07:42,949488,10647.000,8997.000,57.000,20358.000,107.000,-1933.000,0.000,0.000,0
2026-01-29 21:07:42,949528,9260.000,7010.000,248.000,11688.000,4108.000,-4344.000,0.000,0.000,0
2026-01-29 21:07:42,949568,11967.000,5850.000,-263.000,5531.000,4421.000,-4975.000,0.000,0.000,0
2026-01-29 21:07:42,949608,10141.000,5819.000,889.000,-625.000,2824.000,-4576.000,0.000,0.000,0
2026-01-29 21:07:42,949648,11411.000,5117.000,-206.000,-8783.000,128.000,-4433.000,0.000,0.000,0
2026-01-29 21:07:42,949688,13982.000,4089.000,-1632.000,-15619.000,-528.000,-5062.000,0.000,0.000,0
2026-01-29 21:07:42,949728,14365.000,1171.000,-2986.000,-19007.000,1666.000,-6346.000,0.000,0.000,0
2026-01-29 21:07:43,949768,11091.000,-175.000,-2322.000,-16880.000,4920.000,-7702.000,0.000,0.000,0
2026-01-29 21:07:43,949808,8372.000,-411.000,-1394.000,-12984.000,6804.000,-8892.000,0.000,0.000,0
2026-01-29 21:07:43,949848,6642.000,-35.000,-753.000,-9066.000,6912.000,-8968.000,0.000,0.000,0
2026-01-29 21:07:43,949888,6047.000,353.000,-1178.000,-4597.000,4996.000,-7735.000,0.000,0.000,0
2026-01-29 21:07:43,949928,5791.000,-47.000,-1729.000,-3549.000,4279.000,-6332.000,0.000,0.000,0
2026-01-29 21:07:43,949968,6145.000,-894.000,-2112.000,-512.000,3924.000,-4516.000,0.000,0.000,0
2026-01-29 21:07:43,950008,5990.000,-231.000,-2278.000,3586.000,3942.000,-2157.000,0.000,0.000,0
2026-01-29 21:07:43,950048,5695.000,1150.000,-475.000,5300.000,2240.000,563.000,0.000,0.000,0
2026-01-29 21:07:43,950088,9548.000,810.000,-1544.000,3571.000,-1359.000,4045.000,0.000,0.000,0
2026-01-29 21:07:43,950128,9205.000,1410.000,63.000,3663.000,-3160.000,7621.000,0.000,0.000,0
2026-01-29 21:07:43,950168,10173.000,1074.000,1326.000,2897.000,-6817.000,9809.000,0.000,0.000,0
2026-01-29 21:07:43,950208,12220.000,112.000,1654.000,2933.000,-9813.000,10051.000,0.000,0.000,0
2026-01-29 21:07:43,950248,12160.000,-44.000,351.000,5072.000,-11423.000,9179.000,0.000,0.000,0
2026-01-29 21:07:43,950288,9409.000,1527.000,1272.000,6810.000,-9017.000,7583.000,0.000,0.000,0
2026-01-29 21:07:43,950328,7583.000,612.000,648.000,6231.000,-5776.000,6065.000,0.000,0.000,0
2026-01-29 21:07:43,950368,6521.000,1338.000,-7.000,9131.000,-3453.000,4910.000,0.000,0.000,0
2026-01-29 21:07:43,950408,8129.000,2836.000,-249.000,9958.000,-1132.000,4613.000,0.000,0.000,0
2026-01-29 21:07:43,950448,8832.000,3915.000,1155.000,8478.000,808.000,4379.000,0.000,0.000,0
