datetime_local,uptime_ms,acc_x,acc_y,acc_z,gyro_x,gyro_y,gyro_z,speed_mps,turn_rate_deg_s,gps_valid
2026-01-29 20:57:47,354528,1133.000,-1850.000,5857.000,-1541.000,-518.000,-487.000,0.000,0.000,0
2026-01-29 20:57:47,354568,1167.000,-1214.000,6786.000,599.000,-1003.000,-710.000,0.000,0.000,0
2026-01-29 20:57:47,354608,1653.000,-718.000,7507.000,435.000,-1043.000,-443.000,0.000,0.000,0
2026-01-29 20:57:47,354648,2174.000,-726.000,8275.000,463.000,-1221.000,137.000,0.000,0.000,0
2026-01-29 20:57:47,354688,2405.000,-331.000,8888.000,1441.000,-1190.000,356.000,0.000,0.000,0
2026-01-29 20:57:47,354728,2793.000,-679.000,9279.000,878.000,-1230.000,841.000,0.000,0.000,0
2026-01-29 20:57:48,354768,3713.000,-611.000,9386.000,922.000,-1711.000,1360.000,0.000,0.000,0
2026-01-29 20:57:48,354808,4606.000,472.000,8992.000,2342.000,-1516.000,1243.000,0.000,0.000,0
2026-01-29 20:57:48,354848,4565.000,1147.000,8902.000,2227.000,-38.000,1382.000,0.000,0.000,0
2026-01-29 20:57:48,354888,4016.000,653.000,8411.000,907.000,642.000,1690.000,0.000,0.000,0
2026-01-29 20:57:48,354928,3334.000,297.000,7666.000,495.000,1005.000,1834.000,0.000,0.000,0
2026-01-29 20:57:48,354968,2481.000,13.000,6600.000,1125.000,1143.000,1418.000,0.000,0.000,0
2026-01-29 20:57:48,355008,1992.000,-140.000,6286.000,1122.000,1241.000,1145.000,0.000,0.000,0
2026-01-29 20:57:48,355048,1277.000,-1083.000,6313.000,-926.000,1632.000,1258.000,0.000,0.000,0
2026-01-29 20:57:48,355088,1624.000,-1098.000,6747.000,-584.000,1139.000,859.000,0.000,0.000,0
2026-01-29 20:57:48,355128,1841.000,-1367.000,7572.000,-299.000,1033.000,220.000,0.000,0.000,0
2026-01-29 20:57:48,355168,1983.000,-1384.000,8284.000,-905.000,718.000,57.000,0.000,0.000,0
2026-01-29 20:57:48,355208,2191.000,-1196.000,9009.000,-1314.000,823.000,-376.000,0.000,0.000,0
2026-01-29 20:57:48,355248,2365.000,-830.000,9902.000,-881.000,880.000,-711.000,0.000,0.000,0
2026-01-29 20:57:48,355288,2378.000,-429.000,9437.000,404.000,572.000,-1078.000,0.000,0.000,0
2026-01-29 20:57:48,355328,2597.000,1037.000,10840.000,985.000,-390.000,-1270.000,0.000,0.000,0
2026-01-29 20:57:48,355368,1619.000,856.000,9921.000,-414.000,-68.000,-972.000,0.000,0.000,0
2026-01-29 20:57:48,355408,1341.000,405.000,8473.000,-1421.000,82.000,-1177.000,0.000,0.000,0
2026-01-29 20:57:48,355448,1203.000,-51.000,7962.000,-1300.000,-60.000,-927.000,0.000,0.000,0
2026-01-29 20:57:48,355490,1425.000,483.000,7336.000,-590.000,-113.000,-1163.000,0.000,0.000,0
2026-01-29 20:57:48,355528,1449.000,112.000,6481.000,-691.000,-72.000,-1162.000,0.000,0.000,0
2026-01-29 20:57:48,355568,1258.000,-718.000,5951.000,-1449.000,-4.000,-827.000,0.000,0.000,0
2026-01-29 20:57:48,355608,1007.000,-1282.000,6050.000,-1812.000,-195.000,-449.000,0.000,0.000,0
2026-01-29 20:57:48,355648,1100.000,-1487.000,6451.000,-1573.000,-559.000,-290.000,0.000,0.000,0
2026-01-29 20:57:48,355688,1174.000,-1714.000,7288.000,-1105.000,-787.000,-352.000,0.000,0.000,0
2026-01-29 20:57:48,355728,1579.000,-1499.000,8260.000,-760.000,-1307.000,-96.000,0.000,0.000,0
2026-01-29 20:57:49,355768,2109.000,-1013.000,8723.000,-334.000,-1383.000,182.000,0.000,0.000,0
2026-01-29 20:57:49,355808,2420.000,-1359.000,8747.000,-200.000,-922.000,406.000,0.000,0.000,0
2026-01-29 20:57:49,355848,2931.000,-1989.000,8568.000,1601.000,-975.000,459.000,0.000,0.000,0
2026-01-29 20:57:49,355888,3927.000,-536.000,7071.000,3418.000,-1276.000,1234.000,0.000,0.000,0
2026-01-29 20:57:49,355928,3071.000,-117.000,6081.000,3709.000,-360.000,1898.000,0.000,0.000,0
2026-01-29 20:57:49,355968,2567.000,-1949.000,5727.000,4182.000,-547.000,1802.000,0.000,0.000,0
2026-01-29 20:57:49,356008,3367.000,-1743.000,3037.000,6670.000,-2491.000,3830.000,0.000,0.000,0
2026-01-29 20:57:49,356048,3125.000,-478.000,2829.000,10248.000,-1634.000,4027.000,0.000,0.000,0
2026-01-29 20:57:49,356088,3214.000,-438.000,2603.000,12590.000,-2035.000,5057.000,0.000,0.000,0
2026-01-29 20:57:49,356128,4118.000,1682.000,3919.000,13205.000,-3074.000,6668.000,0.000,0.000,0
2026-01-29 20:57:49,356168,5158.000,2548.000,3552.000,11128.000,-4075.000,8315.000,0.000,0.000,0
2026-01-29 20:57:49,356208,6499.000,3713.000,4562.000,12610.000,-4042.000,8085.000,0.000,0.000,0
2026-01-29 20:57:49,356248,8421.000,7841.000,6193.000,12316.000,-4271.000,7290.000,0.000,0.000,0
2026-01-29 20:57:49,356288,8609.000,7978.000,5549.000,6016.000,-4302.000,7457.000,0.000,0.000,0
2026-01-29 20:57:49,356328,8711.000,5080.000,4866.000,5805.000,-3816.000,5303.000,0.000,0.000,0
2026-01-29 20:57:49,356368,10827.000,6992.000,4003.000,10568.000,-3538.000,3179.000,0.000,0.000,0
2026-01-29 20:57:49,356408,9890.000,7662.000,3842.000,8476.000,-2305.000,3836.000,0.000,0.000,0
2026-01-29 20:57:49,356448,8605.000,5665.000,2700.000,6176.000,-2522.000,4194.000,0.000,0.000,0
2026-01-29 20:57:49,356488,9419.000,4893.000,1836.000,6354.000,-3333.000,3947.000,0.000,0.000,0
2026-01-29 20:57:49,356528,8779.000,5403.000,1566.000,4241.000,-3701.000,3903.000,0.000,0.000,0
2026-01-29 20:57:49,356568,6926.000,4590.000,1479.000,-1040.000,-3319.000,3691.000,0.000,0.000,0
2026-01-29 20:57:49,356608,5511.000,2909.000,1590.000,-6144.000,-2998.000,1994.000,0.000,0.000,0
2026-01-29 20:57:49,356648,5437.000,1099.000,592.000,-5973.000,-2346.000,589.000,0.000,0.000,0
2026-01-29 20:57:49,356688,5643.000,764.000,-113.000,-2459.000,-232.000,-98.000,0.000,0.000,0
2026-01-29 20:57:49,356728,5961.000,990.000,-447.000,157.000,1922.000,-543.000,0.000,0.000,0
2026-01-29 20:57:50,356768,7250.000,1262.000,-791.000,2077.000,2908.000,-445.000,0.000,0.000,0
2026-01-29 20:57:50,356808,9020.000,1939.000,-845.000,3896.000,3305.000,124.000,0.000,0.000,0
2026-01-29 20:57:50,356848,9864.000,2542.000,-879.000,5088.000,2937.000,1103.000,0.000,0.000,0
2026-01-29 20:57:50,356888,9806.000,1948.000,-1300.000,5040.000,1850.000,1599.000,0.000,0.000,0
2026-01-29 20:57:50,356928,10865.000,2002.000,-935.000,4963.000,674.000,1575.000,0.000,0.000,0
2026-01-29 20:57:50,356968,6704.000,2237.000,1716.000,2930.000,-1995.000,1918.000,0.000,0.000,0
2026-01-29 20:57:50,357008,9744.000,977.000,109.000,38.000,-4473.000,1664.000,0.000,0.000,0
2026-01-29 20:57:50,357048,9347.000,-221.000,-1771.000,-162.000,-2351.000,533.000,0.000,0.000,0
2026-01-29 20:57:50,357088,5061.000,-210.000,579.000,2726.000,1423.000,-666.000,0.000,0.000,0
2026-01-29 20:57:50,357128,4464.000,997.000,1138.000,4204.000,182.000,-1115.000,0.000,0.000,0
2026-01-29 20:57:50,357168,4446.000,1902.000,546.000,2992.000,-229.000,-448.000,0.000,0.000,0
2026-01-29 20:57:50,357208,5342.000,1945.000,424.000,548.000,-379.000,354.000,0.000,0.000,0
2026-01-29 20:57:50,357248,6228.000,2105.000,978.000,-659.000,-797.000,1202.000,0.000,0.000,0
2026-01-29 20:57:50,357288,7960.000,2494.000,1128.000,-1428.000,-2218.000,2176.000,0.000,0.000,0
2026-01-29 20:57:50,357328,9326.000,2723.000,524.000,-2387.000,-3020.000,2933.000,0.000,0.000,0
2026-01-29 20:57:50,357368,10167.000,2645.000,115.000,-2870.000,-2719.000,2982.000,0.000,0.000,0
2026-01-29 20:57:50,357408,10244.000,2069.000,1.000,-3728.000,-2531.000,1900.000,0.000,0.000,0
2026-01-29 20:57:50,357448,12482.000,820.000,-519.000,-2337.000,-2082.000,284.000,0.000,0.000,0
2026-01-29 20:57:50,357488,9623.000,2762.000,582.000,495.000,-474.000,-726.000,0.000,0.000,0
2026-01-29 20:57:50,357528,11670.000,3138.000,-1285.000,-1245.000,255.000,-627.000,0.000,0.000,0
2026-01-29 20:57:50,357568,11191.000,2859.000,-1646.000,-4347.000,3056.000,-774.000,0.000,0.000,0
2026-01-29 20:57:50,357608,8027.000,1864.000,-1023.000,-5543.000,4961.000,-1545.000,0.000,0.000,0
2026-01-29 20:57:50,357648,5606.000,667.000,-275.000,-5376.000,4623.000,-3644.000,0.000,0.000,0
2026-01-29 20:57:50,357688,5033.000,-299.000,-145.000,-3623.000,3228.000,-5892.000,0.000,0.000,0
2026-01-29 20:57:50,357728,4920.000,-1620.000,-797.000,-184.000,2922.000,-7048.000,0.000,0.000,0
2026-01-29 20:57:51,357768,5811.000,1135.000,-944.000,3135.000,2965.000,-6135.000,0.000,0.000,0
2026-01-29 20:57:51,357808,7629.000,1790.000,-1002.000,1592.000,3282.000,-2560.000,0.000,0.000,0
2026-01-29 20:57:51,357848,8232.000,1386.000,-1999.000,-427.000,2819.000,499.000,0.000,0.000,0
2026-01-29 20:57:51,357888,8434.000,1033.000,-2051.000,-768.000,2197.000,1591.000,0.000,0.000,0
2026-01-29 20:57:51,357928,9655.000,1306.000,-515.000,2727.000,-1136.000,3192.000,0.000,0.000,0
2026-01-29 20:57:51,357968,11060.000,1242.000,-1184.000,2866.000,-2167.000,4324.000,0.000,0.000,0
2026-01-29 20:57:51,358008,8972.000,1525.000,182.000,2616.000,-1801.000,4900.000,0.000,0.000,0
2026-01-29 20:57:51,358048,9352.000,1533.000,844.000,646.000,-3306.000,4328.000,0.000,0.000,0
2026-01-29 20:57:51,358088,9086.000,337.000,393.000,-1414.000,-4154.000,2959.000,0.000,0.000,0
2026-01-29 20:57:51,358128,6069.000,-618.000,62.000,394.000,-2645.000,1497.000,0.000,0.000,0
2026-01-29 20:57:51,358168,4364.000,279.000,708.000,4429.000,-1624.000,741.000,0.000,0.000,0
2026-01-29 20:57:51,358208,4225.000,1444.000,532.000,5704.000,-1111.000,675.000,0.000,0.000,0
2026-01-29 20:57:51,358248,5022.000,2169.000,134.000,4912.000,-568.000,965.000,0.000,0.000,0
2026-01-29 20:57:51,358288,6300.000,2566.000,651.000,3399.000,-487.000,1414.000,0.000,0.000,0
2026-01-29 20:57:51,358328,8575.000,2909.000,1273.000,1523.000,-1936.000,1995.000,0.000,0.000,0
2026-01-29 20:57:51,358368,9665.000,3069.000,1204.000,-705.000,-3260.000,2776.000,0.000,0.000,0
2026-01-29 20:57:51,358408,10337.000,3465.000,1602.000,-3503.000,-4096.000,3268.000,0.000,0.000,0
2026-01-29 20:57:51,358448,11207.000,2462.000,53.000,-6051.000,-4103.000,2930.000,0.000,0.000,0
2026-01-29 20:57:51,358488,14128.000,841.000,-1397.000,-5642.000,-2656.000,1300.000,0.000,0.000,0
2026-01-29 20:57:51,358528,8897.000,283.000,844.000,-2380.000,2343.000,-1577.000,0.000,0.000,0
2026-01-29 20:57:51,358568,11443.000,1193.000,-1631.000,58.000,1868.000,-3945.000,0.000,0.000,0
2026-01-29 20:57:51,358608,11747.000,1272.000,-2483.000,278.000,6189.000,-5600.000,0.000,0.000,0
2026-01-29 20:57:51,358648,10033.000,1426.000,-1814.000,280.000,8996.000,-6541.000,0.000,0.000,0
2026-01-29 20:57:51,358688,6808.000,868.000,-327.000,-72.000,8545.000,-7371.000,0.000,0.000,0
2026-01-29 20:57:51,358728,5658.000,296.000,-1268.000,-320.000,5836.000,-7771.000,0.000,0.000,0
2026-01-29 20:57:52,358768,5674.000,548.000,-1581.000,-942.000,4662.000,-7000.000,0.000,0.000,0
2026-01-29 20:57:52,358808,4977.000,365.000,-831.000,-1793.000,3160.000,-4917.000,0.000,0.000,0
2026-01-29 20:57:52,358848,4873.000,-903.000,-890.000,-1922.000,2089.000,-3815.000,0.000,0.000,0
2026-01-29 20:57:52,358888,7557.000,-19.000,-1367.000,1863.000,-1343.000,204.000,0.000,0.000,0
2026-01-29 20:57:52,358928,8974.000,954.000,-1230.000,4067.000,-955.000,3841.000,0.000,0.000,0
2026-01-29 20:57:52,358968,10042.000,2124.000,433.000,3789.000,-1426.000,6753.000,0.000,0.000,0
2026-01-29 20:57:52,359008,12475.000,1796.000,-1299.000,2402.000,-2829.000,9303.000,0.000,0.000,0
2026-01-29 20:57:52,359048,10015.000,3040.000,1329.000,1857.000,-3135.000,10232.000,0.000,0.000,0
2026-01-29 20:57:52,359088,9432.000,3013.000,1976.000,-2293.000,-6242.000,9372.000,0.000,0.000,0
2026-01-29 20:57:52,359128,10097.000,1298.000,-945.000,-6046.000,-6666.000,6152.000,0.000,0.000,0
2026-01-29 20:57:52,359168,6692.000,95.000,-1347.000,-5373.000,-2514.000,2796.000,0.000,0.000,0
2026-01-29 20:57:52,359208,4946.000,-654.000,-231.000,-210.000,-27.000,165.000,0.000,0.000,0
2026-01-29 20:57:52,359248,4496.000,31.000,186.000,4931.000,646.000,-1912.000,0.000,0.000,0
2026-01-29 20:57:52,359288,5444.000,1517.000,171.000,7730.000,285.000,-2489.000,0.000,0.000,0
2026-01-29 20:57:52,359328,6528.000,3302.000,2312.000,6258.000,-226.000,-1272.000,0.000,0.000,0
2026-01-29 20:57:52,359368,7125.000,3733.000,2780.000,127.000,-2453.000,1433.000,0.000,0.000,0
2026-01-29 20:57:52,359408,9061.000,1733.000,696.000,-4548.000,-3579.000,3032.000,0.000,0.000,0
2026-01-29 20:57:52,359448,9791.000,819.000,49.000,-4534.000,-2033.000,2468.000,0.000,0.000,0
2026-01-29 20:57:52,359488,9548.000,401.000,-265.000,-2723.000,-217.000,775.000,0.000,0.000,0
2026-01-29 20:57:52,359528,12259.000,456.000,-2047.000,162.000,874.000,-1206.000,0.000,0.000,0
2026-01-29 20:57:52,359568,11229.000,1774.000,-207.000,3520.000,3466.000,-2463.000,0.000,0.000,0
2026-01-29 20:57:52,359608,9834.000,3251.000,78.000,3920.000,2184.000,-2670.000,0.000,0.000,0
2026-01-29 20:57:52,359648,11043.000,3068.000,-1927.000,-30.000,1691.000,-2653.000,0.000,0.000,0
2026-01-29 20:57:52,359688,10370.000,2752.000,-2455.000,-3324.000,3813.000,-2294.000,0.000,0.000,0
2026-01-29 20:57:52,359728,7420.000,2114.000,-1853.000,-4564.000,5091.000,-2246.000,0.000,0.000,0
2026-01-29 20:57:53,359768,5506.000,1475.000,-470.000,-5172.000,4176.000,-3381.000,0.000,0.000,0
2026-01-29 20:57:53,359808,5765.000,1390.000,-645.000,-5545.000,3155.000,-4579.000,0.000,0.000,0
2026-01-29 20:57:53,359848,6379.000,1683.000,-1169.000,-5517.000,1514.000,-4204.000,0.000,0.000,0
2026-01-29 20:57:53,359888,6856.000,1284.000,-1945.000,-5716.000,2014.000,-2745.000,0.000,0.000,0
2026-01-29 20:57:53,359928,6659.000,618.000,-1773.000,-3273.000,3014.000,-1193.000,0.000,0.000,0
2026-01-29 20:57:53,359968,7270.000,903.000,-1859.000,-318.000,2240.000,-517.000,0.000,0.000,0
2026-01-29 20:57:53,360008,7548.000,1136.000,-2001.000,1748.000,1545.000,98.000,0.000,0.000,0
2026-01-29 20:57:53,360048,7610.000,1298.000,-1525.000,2684.000,917.000,354.000,0.000,0.000,0
2026-01-29 20:57:53,360088,7933.000,771.000,-429.000,1906.000,-787.000,390.000,0.000,0.000,0
2026-01-29 20:57:53,360128,10046.000,1019.000,-682.000,1344.000,-2101.000,1457.000,0.000,0.000,0
2026-01-29 20:57:53,360168,9139.000,1540.000,-198.000,807.000,-2591.000,3339.000,0.000,0.000,0
2026-01-29 20:57:53,360208,8680.000,1339.000,117.000,319.000,-3779.000,4600.000,0.000,0.000,0
2026-01-29 20:57:53,360248,9337.000,1783.000,1190.000,-523.000,-6002.000,4961.000,0.000,0.000,0
2026-01-29 20:57:53,360288,8642.000,1949.000,1293.000,-2451.000,-7933.000,5354.000,0.000,0.000,0
2026-01-29 20:57:53,360328,6691.000,1262.000,542.000,-3081.000,-7437.000,5751.000,0.000,0.000,0
2026-01-29 20:57:53,360368,5656.000,996.000,1088.000,-1849.000,-6194.000,5464.000,0.000,0.000,0
2026-01-29 20:57:53,360408,6334.000,688.000,1035.000,-683.000,-5518.000,4432.000,0.000,0.000,0
2026-01-29 20:57:53,360448,7756.000,1355.000,1128.000,301.000,-4346.000,3543.000,0.000,0.000,0
2026-01-29 20:57:53,360488,8581.000,2757.000,1327.000,-687.000,-2782.000,3434.000,0.000,0.000,0
2026-01-29 20:57:53,360528,8639.000,2537.000,1171.000,-3364.000,-1457.000,3615.000,0.000,0.000,0
2026-01-29 20:57:53,360568,10052.000,2043.000,-83.000,-5183.000,-348.000,2830.000,0.000,0.000,0
2026-01-29 20:57:53,360608,9109.000,1211.000,-1145.000,-4557.000,2288.000,974.000,0.000,0.000,0
2026-01-29 20:57:53,360648,12222.000,981.000,-2806.000,-2517.000,3227.000,-1468.000,0.000,0.000,0
2026-01-29 20:57:53,360688,14471.000,1459.000,-2217.000,228.000,6577.000,-3691.000,0.000,0.000,0
2026-01-29 20:57:53,360728,11934.000,2792.000,-2998.000,2099.000,7108.000,-4849.000,0.000,0.000,0
2026-01-29 20:57:54,360768,12310.000,2478.000,-3829.000,1762.000,6878.000,-5306.000,0.000,0.000,0
2026-01-29 20:57:54,360808,7948.000,1575.000,-1684.000,-3279.000,7386.000,-7355.000,0.000,0.000,0
2026-01-29 20:57:54,360848,6574.000,2453.000,-248.000,-5034.000,4437.000,-7309.000,0.000,0.000,0
2026-01-29 20:57:54,360888,5953.000,2297.000,-748.000,-6919.000,1663.000,-5903.000,0.000,0.000,0
2026-01-29 20:57:54,360928,6595.000,1396.000,-2492.000,-8026.000,1119.000,-4812.000,0.000,0.000,0
2026-01-29 20:57:54,360968,6114.000,196.000,-3051.000,-6549.000,2964.000,-4741.000,0.000,0.000,0
2026-01-29 20:57:54,361008,6120.000,405.000,-2065.000,-3307.000,3682.000,-4712.000,0.000,0.000,0
2026-01-29 20:57:54,361048,7845.000,594.000,-2604.000,-726.000,2716.000,-3756.000,0.000,0.000,0
2026-01-29 20:57:54,361088,8175.000,1211.000,-2822.000,1730.000,2292.000,-1987.000,0.000,0.000,0
2026-01-29 20:57:54,361128,7968.000,1261.000,-1411.000,2787.000,1224.000,-168.000,0.000,0.000,0
2026-01-29 20:57:54,361168,9838.000,1246.000,-243.000,1784.000,-1762.000,1672.000,0.000,0.000,0
2026-01-29 20:57:54,361208,8118.000,1715.000,727.000,43.000,-4125.000,3981.000,0.000,0.000,0
2026-01-29 20:57:54,361248,8209.000,1833.000,1519.000,-2399.000,-7066.000,6415.000,0.000,0.000,0
2026-01-29 20:57:54,361288,9798.000,822.000,260.000,-4311.000,-9369.000,7292.000,0.000,0.000,0
2026-01-29 20:57:54,361328,9722.000,681.000,-129.000,-4043.000,-9169.000,6758.000,0.000,0.000,0
2026-01-29 20:57:54,361368,7007.000,428.000,639.000,-2422.000,-7329.000,5805.000,0.000,0.000,0
2026-01-29 20:57:54,361408,5540.000,41.000,1318.000,-345.000,-6672.000,4375.000,0.000,0.000,0
2026-01-29 20:57:54,361448,5761.000,34.000,799.000,2508.000,-6019.000,2835.000,0.000,0.000,0
2026-01-29 20:57:54,361488,7119.000,1155.000,583.000,4650.000,-4655.000,2194.000,0.000,0.000,0
2026-01-29 20:57:54,361528,8726.000,2462.000,1083.000,3763.000,-2996.000,2346.000,0.000,0.000,0
2026-01-29 20:57:54,361568,9762.000,2838.000,1507.000,682.000,-1916.000,3060.000,0.000,0.000,0
2026-01-29 20:57:54,361608,10382.000,2383.000,1153.000,-2223.000,-1672.000,3152.000,0.000,0.000,0
2026-01-29 20:57:54,361648,10471.000,1800.000,18.000,-3230.000,-1011.000,2176.000,0.000,0.000,0
2026-01-29 20:57:54,361688,11118.000,1333.000,-1574.000,-2854.000,300.000,518.000,0.000,0.000,0
2026-01-29 20:57:54,361728,13081.000,1642.000,-1491.000,-2264.000,875.000,-373.000,0.000,0.000,0
2026-01-29 20:57:55,361768,10880.000,2542.000,-1520.000,-1343.000,4744.000,-2581.000,0.000,0.000,0
2026-01-29 20:57:55,361808,12662.000,2609.000,-2970.000,-3629.000,5876.000,-3097.000,0.000,0.000,0
2026-01-29 20:57:55,361848,9711.000,2019.000,-2981.000,-5157.000,8253.000,-3592.000,0.000,0.000,0
2026-01-29 20:57:55,361888,6682.000,1048.000,-1559.000,-5102.000,8240.000,-4836.000,0.000,0.000,0
2026-01-29 20:57:55,361928,5369.000,973.000,-127.000,-4501.000,5818.000,-6583.000,0.000,0.000,0
2026-01-29 20:57:55,361968,6394.000,1731.000,-649.000,-4095.000,3096.000,-7194.000,0.000,0.000,0
2026-01-29 20:57:55,362008,6686.000,1405.000,-2052.000,-3886.000,3107.000,-6663.000,0.000,0.000,0
2026-01-29 20:57:55,362048,7804.000,1149.000,-2442.000,-3437.000,4299.000,-5867.000,0.000,0.000,0
2026-01-29 20:57:55,362088,8184.000,425.000,-2660.000,-1970.000,5557.000,-5051.000,0.000,0.000,0
2026-01-29 20:57:55,362128,8146.000,935.000,-2474.000,1003.000,5399.000,-3918.000,0.000,0.000,0
2026-01-29 20:57:55,362168,7208.000,1707.000,-1606.000,3172.000,3297.000,-2395.000,0.000,0.000,0
2026-01-29 20:57:55,362208,7535.000,2234.000,621.000,2194.000,-771.000,-490.000,0.000,0.000,0
2026-01-29 20:57:55,362248,8831.000,1269.000,108.000,-1671.000,-4992.000,1989.000,0.000,0.000,0
2026-01-29 20:57:55,362288,7887.000,1772.000,279.000,-3511.000,-6453.000,4336.000,0.000,0.000,0
2026-01-29 20:57:55,362328,9355.000,1122.000,-580.000,-3802.000,-7266.000,6494.000,0.000,0.000,0
2026-01-29 20:57:55,362368,9678.000,789.000,187.000,-3498.000,-7476.000,6609.000,0.000,0.000,0
2026-01-29 20:57:55,362408,8134.000,470.000,1403.000,-3545.000,-8166.000,5389.000,0.000,0.000,0
2026-01-29 20:57:55,362448,5858.000,293.000,1426.000,-2144.000,-8591.000,4127.000,0.000,0.000,0
2026-01-29 20:57:55,362488,4988.000,-106.000,700.000,892.000,-7885.000,3387.000,0.000,0.000,0
2026-01-29 20:57:55,362528,5767.000,-269.000,-348.000,4262.000,-6339.000,2745.000,0.000,0.000,0
2026-01-29 20:57:55,362568,7544.000,921.000,-1155.000,7287.000,-4016.000,2285.000,0.000,0.000,0
2026-01-29 20:57:55,362608,9162.000,2626.000,292.000,7976.000,-1762.000,2616.000,0.000,0.000,0
2026-01-29 20:57:55,362648,10967.000,4823.000,2801.000,4491.000,-2084.000,3566.000,0.000,0.000,0
2026-01-29 20:57:55,362688,10668.000,4085.000,1911.000,812.000,-3018.000,4227.000,0.000,0.000,0
2026-01-29 20:57:55,362728,11693.000,245.000,-1680.000,-8342.000,-3447.000,1828.000,0.000,0.000,0
2026-01-29 20:57:56,362768,12598.000,-792.000,-2128.000,-3137.000,1178.000,-763.000,0.000,0.000,0
2026-01-29 20:57:56,362808,12293.000,1669.000,-1733.000,2290.000,4430.000,-2215.000,0.000,0.000,0
2026-01-29 20:57:56,362848,11225.000,2546.000,-1762.000,1913.000,6977.000,-3121.000,0.000,0.000,0
2026-01-29 20:57:56,362888,10904.000,2521.000,-1945.000,-1059.000,7910.000,-3724.000,0.000,0.000,0
2026-01-29 20:57:56,362928,8647.000,1914.000,-2242.000,-4173.000,7736.000,-4409.000,0.000,0.000,0
2026-01-29 20:57:56,362968,6840.000,1005.000,-1256.000,-5173.000,6208.000,-5487.000,0.000,0.000,0
2026-01-29 20:57:56,363008,7259.000,1136.000,-1653.000,-4365.000,4524.000,-6408.000,0.000,0.000,0
2026-01-29 20:57:56,363048,8031.000,1306.000,-1756.000,-3701.000,4628.000,-6411.000,0.000,0.000,0
2026-01-29 20:57:56,363088,6463.000,1180.000,-2126.000,-4231.000,5688.000,-5948.000,0.000,0.000,0
2026-01-29 20:57:56,363128,6283.000,458.000,-2268.000,-4028.000,5938.000,-5547.000,0.000,0.000,0
2026-01-29 20:57:56,363168,7187.000,46.000,-2391.000,-2399.000,5320.000,-4645.000,0.000,0.000,0
2026-01-29 20:57:56,363208,7590.000,659.000,-2622.000,1226.000,4238.000,-2875.000,0.000,0.000,0
2026-01-29 20:57:56,363248,6710.000,1601.000,-1908.000,4337.000,2582.000,-435.000,0.000,0.000,0
2026-01-29 20:57:56,363288,8256.000,2217.000,-673.000,3329.000,-1129.000,2119.000,0.000,0.000,0
2026-01-29 20:57:56,363328,7475.000,2468.000,121.000,-342.000,-3854.000,4418.000,0.000,0.000,0
2026-01-29 20:57:56,363368,8235.000,2792.000,1054.000,-4372.000,-6800.000,6475.000,0.000,0.000,0
2026-01-29 20:57:56,363408,9521.000,1651.000,543.000,-8398.000,-8922.000,7053.000,0.000,0.000,0
2026-01-29 20:57:56,363448,9374.000,-225.000,-759.000,-9200.000,-8835.000,5876.000,0.000,0.000,0
2026-01-29 20:57:56,363488,7184.000,-1465.000,-497.000,-4123.000,-5999.000,3735.000,0.000,0.000,0
2026-01-29 20:57:56,363528,4680.000,-1604.000,1324.000,2015.000,-4283.000,1425.000,0.000,0.000,0
2026-01-29 20:57:56,363568,5477.000,-593.000,1767.000,6035.000,-5139.000,-310.000,0.000,0.000,0
2026-01-29 20:57:56,363608,6451.000,703.000,1141.000,7762.000,-4537.000,60.000,0.000,0.000,0
2026-01-29 20:57:56,363648,8464.000,2092.000,1108.000,6662.000,-3540.000,1955.000,0.000,0.000,0
2026-01-29 20:57:56,363688,10180.000,2179.000,1477.000,684.000,-1622.000,5889.000,0.000,0.000,0
2026-01-29 20:57:56,363728,11376.000,1860.000,1285.000,-2378.000,-2440.000,6573.000,0.000,0.000,0
2026-01-29 20:57:57,363768,10801.000,1343.000,692.000,-3357.000,-2806.000,5107.000,0.000,0.000,0
2026-01-29 20:57:57,363808,12745.000,668.000,-1060.000,-2673.000,-2806.000,2564.000,0.000,0.000,0
2026-01-29 20:57:57,363848,12158.000,1486.000,-161.000,-1029.000,550.000,10.000,0.000,0.000,0
2026-01-29 20:57:57,363888,10864.000,2090.000,-1371.000,-1036.000,2681.000,-1430.000,0.000,0.000,0
2026-01-29 20:57:57,363928,11343.000,1818.000,-3200.000,-2283.000,6044.000,-2949.000,0.000,0.000,0
2026-01-29 20:57:57,363968,9714.000,1312.000,-3235.000,-3149.000,9787.000,-4757.000,0.000,0.000,0
2026-01-29 20:57:57,364008,6938.000,374.000,-1201.000,-2987.000,10082.000,-6925.000,0.000,0.000,0
2026-01-29 20:57:57,364048,5763.000,766.000,355.000,-2006.000,7138.000,-8959.000,0.000,0.000,0
2026-01-29 20:57:57,364088,5902.000,1749.000,32.000,-1341.000,3720.000,-9032.000,0.000,0.000,0
2026-01-29 20:57:57,364128,6916.000,1620.000,-1148.000,-2254.000,2285.000,-7639.000,0.000,0.000,0
2026-01-29 20:57:57,364168,6922.000,-3.000,-2360.000,-3679.000,3348.000,-6280.000,0.000,0.000,0
2026-01-29 20:57:57,364208,7914.000,-1271.000,-2888.000,-1501.000,4656.000,-5055.000,0.000,0.000,0
2026-01-29 20:57:57,364248,8320.000,69.000,-1029.000,1029.000,4578.000,-3288.000,0.000,0.000,0
2026-01-29 20:57:57,364288,10003.000,-2182.000,-2579.000,1551.000,1563.000,-952.000,0.000,0.000,0
2026-01-29 20:57:57,364328,9739.000,1328.000,-1419.000,3788.000,-466.000,2570.000,0.000,0.000,0
2026-01-29 20:57:57,364368,9325.000,2098.000,-406.000,2124.000,-3225.000,7112.000,0.000,0.000,0
2026-01-29 20:57:57,364408,8451.000,2383.000,50.000,-2930.000,-6100.000,9254.000,0.000,0.000,0
2026-01-29 20:57:57,364448,9327.000,1636.000,-762.000,-6970.000,-8151.000,9197.000,0.000,0.000,0
2026-01-29 20:57:57,364488,8302.000,-211.000,-1524.000,-9373.000,-7721.000,7975.000,0.000,0.000,0
2026-01-29 20:57:57,364528,8524.000,-2006.000,-2664.000,-5246.000,-5812.000,5613.000,0.000,0.000,0
2026-01-29 20:57:57,364568,5826.000,505.000,2480.000,3134.000,-3871.000,4178.000,0.000,0.000,0
2026-01-29 20:57:57,364608,4560.000,300.000,2563.000,4888.000,-4699.000,2800.000,0.000,0.000,0
2026-01-29 20:57:57,364648,7412.000,986.000,1144.000,6714.000,-7862.000,963.000,0.000,0.000,0
2026-01-29 20:57:57,364688,8641.000,1788.000,1537.000,5247.000,-5863.000,735.000,0.000,0.000,0
2026-01-29 20:57:57,364728,10717.000,1926.000,1241.000,1951.000,-3890.000,954.000,0.000,0.000,0
2026-01-29 20:57:58,364768,11189.000,2218.000,1045.000,-342.000,-842.000,1173.000,0.000,0.000,0
2026-01-29 20:57:58,364808,11186.000,1503.000,464.000,-2329.000,1537.000,247.000,0.000,0.000,0
2026-01-29 20:57:58,364848,11373.000,43.000,-743.000,-2754.000,2857.000,-1997.000,0.000,0.000,0
2026-01-29 20:57:58,364888,12502.000,246.000,-891.000,-314.000,4644.000,-4420.000,0.000,0.000,0
2026-01-29 20:57:58,364928,11163.000,2160.000,-66.000,693.000,5493.000,-5504.000,0.000,0.000,0
2026-01-29 20:57:58,364968,11691.000,2642.000,-1452.000,-2241.000,5494.000,-5182.000,0.000,0.000,0
2026-01-29 20:57:58,365008,11125.000,1919.000,-1781.000,-5724.000,6401.000,-4773.000,0.000,0.000,0
2026-01-29 20:57:58,365048,9482.000,2260.000,-1382.000,-7342.000,6944.000,-4564.000,0.000,0.000,0
2026-01-29 20:57:58,365088,7038.000,1617.000,-1230.000,-7394.000,6409.000,-4535.000,0.000,0.000,0
2026-01-29 20:57:58,365128,6032.000,1108.000,-174.000,-5055.000,5204.000,-5864.000,0.000,0.000,0
2026-01-29 20:57:58,365168,7163.000,3048.000,-838.000,-4431.000,4290.000,-6602.000,0.000,0.000,0
2026-01-29 20:57:58,365208,6273.000,1771.000,475.000,-4768.000,5127.000,-6506.000,0.000,0.000,0
2026-01-29 20:57:58,365248,6659.000,2860.000,796.000,-2416.000,4087.000,-6097.000,0.000,0.000,0
2026-01-29 20:57:58,365288,7427.000,2915.000,164.000,-1777.000,4231.000,-5577.000,0.000,0.000,0
2026-01-29 20:57:58,365328,6928.000,2902.000,1010.000,-484.000,4748.000,-4631.000,0.000,0.000,0
2026-01-29 20:57:58,365368,6318.000,2173.000,2036.000,2279.000,4062.000,-4078.000,0.000,0.000,0
2026-01-29 20:57:58,365408,7663.000,3077.000,877.000,6703.000,1707.000,-4730.000,0.000,0.000,0
2026-01-29 20:57:58,365448,6634.000,5774.000,161.000,14033.000,2623.000,-5850.000,0.000,0.000,0
2026-01-29 20:57:58,365488,6233.000,7022.000,940.000,18506.000,1700.000,-7795.000,0.000,0.000,0
2026-01-29 20:57:58,365528,5745.000,5664.000,-3676.000,22792.000,-360.000,-9967.000,0.000,0.000,0
2026-01-29 20:57:58,365568,4424.000,6952.000,-5488.000,25934.000,-168.000,-10708.000,0.000,0.000,0
2026-01-29 20:57:58,365608,143.000,8967.000,-568.000,16167.000,-1161.000,-4756.000,0.000,0.000,0
2026-01-29 20:57:58,365648,-352.000,6081.000,-2268.000,-4146.000,-5728.000,-151.000,0.000,0.000,0
2026-01-29 20:57:58,365688,-566.000,3764.000,-2054.000,-11356.000,-6127.000,2987.000,0.000,0.000,0
2026-01-29 20:57:58,365728,-677.000,-2021.000,-3197.000,-2663.000,-5799.000,1394.000,0.000,0.000,0
2026-01-29 20:57:59,365768,-193.000,4319.000,-3497.000,13404.000,-2866.000,-2691.000,0.000,0.000,0
2026-01-29 20:57:59,365808,-1221.000,13349.000,-3789.000,10704.000,-2232.000,-2020.000,0.000,0.000,0
2026-01-29 20:57:59,365848,-1079.000,8198.000,-6298.000,3113.000,-1685.000,-547.000,0.000,0.000,0
2026-01-29 20:57:59,365888,-1534.000,10375.000,-6738.000,905.000,-1972.000,-22.000,0.000,0.000,0
2026-01-29 20:57:59,365928,-909.000,9397.000,-6851.000,-3333.000,-2742.000,1247.000,0.000,0.000,0
2026-01-29 20:57:59,365968,-746.000,6434.000,-7063.000,-4639.000,-1477.000,2850.000,0.000,0.000,0
2026-01-29 20:57:59,366008,-1013.000,5960.000,-7610.000,-2799.000,56.000,2792.000,0.000,0.000,0
2026-01-29 20:57:59,366048,649.000,5388.000,-7187.000,1087.000,1211.000,2543.000,0.000,0.000,0
2026-01-29 20:57:59,366088,1504.000,5277.000,-8054.000,837.000,547.000,3219.000,0.000,0.000,0
2026-01-29 20:57:59,366128,965.000,4140.000,-5197.000,3984.000,2525.000,2455.000,0.000,0.000,0
2026-01-29 20:57:59,366168,-41.000,5759.000,-2170.000,4889.000,4444.000,1646.000,0.000,0.000,0
2026-01-29 20:57:59,366208,-442.000,6604.000,-776.000,1328.000,4973.000,1570.000,0.000,0.000,0
2026-01-29 20:57:59,366248,-1147.000,3791.000,-2227.000,-2286.000,5273.000,2000.000,0.000,0.000,0
2026-01-29 20:57:59,366288,-344.000,5573.000,-4506.000,-3116.000,5640.000,2922.000,0.000,0.000,0
2026-01-29 20:57:59,366328,2720.000,4433.000,-4214.000,-4581.000,6725.000,3964.000,0.000,0.000,0
2026-01-29 20:57:59,366368,6582.000,7386.000,-4320.000,-7419.000,7656.000,3422.000,0.000,0.000,0
2026-01-29 20:57:59,366408,8063.000,5518.000,-2571.000,-10197.000,7847.000,3408.000,0.000,0.000,0
2026-01-29 20:57:59,366448,9847.000,6588.000,-726.000,-8665.000,7176.000,2891.000,0.000,0.000,0
2026-01-29 20:57:59,366488,9709.000,1108.000,-1035.000,-8341.000,5727.000,3156.000,0.000,0.000,0
2026-01-29 20:57:59,366528,8463.000,5504.000,1530.000,2455.000,3227.000,3361.000,0.000,0.000,0
2026-01-29 20:57:59,366568,9583.000,2634.000,-2894.000,-73.000,1836.000,4144.000,0.000,0.000,0
2026-01-29 20:57:59,366608,5497.000,258.000,661.000,2507.000,5400.000,2218.000,0.000,0.000,0
2026-01-29 20:57:59,366648,5997.000,1718.000,312.000,6494.000,2374.000,1267.000,0.000,0.000,0
2026-01-29 20:57:59,366688,4264.000,4505.000,-2820.000,6566.000,3708.000,2405.000,0.000,0.000,0
2026-01-29 20:57:59,366728,1560.000,3811.000,-3281.000,7584.000,4965.000,2015.000,0.000,0.000,0
2026-01-29 20:58:00,366768,1811.000,3509.000,-1695.000,4489.000,784.000,349.000,0.000,0.000,0
2026-01-29 20:58:00,366808,6518.000,5038.000,-7781.000,4035.000,-6975.000,-2343.000,0.000,0.000,0
2026-01-29 20:58:00,366848,8535.000,5651.000,-7825.000,5140.000,-10028.000,-3982.000,0.000,0.000,0
2026-01-29 20:58:00,366888,11810.000,10163.000,-5905.000,4716.000,-13667.000,-4438.000,0.000,0.000,0
2026-01-29 20:58:00,366928,8266.000,6252.000,-8594.000,2782.000,-15715.000,-3000.000,0.000,0.000,0
2026-01-29 20:58:00,366968,5045.000,6448.000,-6033.000,3012.000,-14011.000,-2676.000,0.000,0.000,0
2026-01-29 20:58:00,367008,2210.000,6756.000,-7328.000,2526.000,-11555.000,-1674.000,0.000,0.000,0
2026-01-29 20:58:00,367048,-140.000,3172.000,-5361.000,-344.000,-8208.000,-653.000,0.000,0.000,0
2026-01-29 20:58:00,367088,-2607.000,6569.000,-5000.000,3728.000,-6927.000,-27.000,0.000,0.000,0
2026-01-29 20:58:00,367128,-1891.000,5801.000,-5722.000,-740.000,-6378.000,789.000,0.000,0.000,0
2026-01-29 20:58:00,367168,-1256.000,3864.000,-4695.000,-1870.000,-5080.000,313.000,0.000,0.000,0
2026-01-29 20:58:00,367208,908.000,5704.000,-4544.000,-587.000,-5396.000,786.000,0.000,0.000,0
2026-01-29 20:58:00,367248,620.000,3490.000,-2734.000,-1801.000,-5098.000,2009.000,0.000,0.000,0
2026-01-29 20:58:00,367288,1195.000,4314.000,-3722.000,-669.000,-5707.000,2303.000,0.000,0.000,0
2026-01-29 20:58:00,367328,626.000,3864.000,-3719.000,-4062.000,-4516.000,3228.000,0.000,0.000,0
2026-01-29 20:58:00,367368,558.000,2939.000,-5510.000,-4804.000,-4316.000,3299.000,0.000,0.000,0
2026-01-29 20:58:00,367408,453.000,3658.000,-5576.000,-4079.000,-3020.000,2517.000,0.000,0.000,0
2026-01-29 20:58:00,367448,520.000,8119.000,-3495.000,-840.000,-789.000,1141.000,0.000,0.000,0
2026-01-29 20:58:00,367488,2572.000,7427.000,-4976.000,-2763.000,-877.000,1134.000,0.000,0.000,0
2026-01-29 20:58:00,367528,4219.000,4159.000,-3825.000,-8484.000,5910.000,5908.000,0.000,0.000,0
2026-01-29 20:58:00,367568,4434.000,5194.000,-5051.000,-9206.000,11603.000,10543.000,0.000,0.000,0
2026-01-29 20:58:00,367608,5494.000,5308.000,-4001.000,-13128.000,14058.000,15689.000,0.000,0.000,0
2026-01-29 20:58:00,367648,9034.000,2186.000,-3911.000,-12860.000,12590.000,20374.000,0.000,0.000,0
2026-01-29 20:58:00,367688,10663.000,716.000,-1151.000,-5006.000,9145.000,21218.000,0.000,0.000,0
2026-01-29 20:58:00,367728,10259.000,3254.000,-760.000,-4179.000,1549.000,19837.000,0.000,0.000,0
2026-01-29 20:58:01,367768,7564.000,2509.000,807.000,-2277.000,-5751.000,17573.000,0.000,0.000,0
2026-01-29 20:58:01,367808,6561.000,1758.000,-60.000,71.000,-10450.000,13692.000,0.000,0.000,0
2026-01-29 20:58:01,367848,7102.000,2659.000,-2052.000,1092.000,-9765.000,8855.000,0.000,0.000,0
2026-01-29 20:58:01,367888,8551.000,1715.000,-2324.000,1186.000,-7565.000,5580.000,0.000,0.000,0
2026-01-29 20:58:01,367928,10153.000,1844.000,-813.000,2117.000,-4500.000,2500.000,0.000,0.000,0
2026-01-29 20:58:01,367968,11832.000,3221.000,74.000,3292.000,-3290.000,854.000,0.000,0.000,0
2026-01-29 20:58:01,368008,10530.000,3852.000,1386.000,3084.000,-1868.000,292.000,0.000,0.000,0
2026-01-29 20:58:01,368048,11754.000,2425.000,75.000,1025.000,-3026.000,-1188.000,0.000,0.000,0
2026-01-29 20:58:01,368088,13017.000,2385.000,52.000,653.000,-1315.000,-3574.000,0.000,0.000,0
2026-01-29 20:58:01,368128,12022.000,2193.000,-1282.000,-408.000,911.000,-5236.000,0.000,0.000,0
2026-01-29 20:58:01,368168,12087.000,1811.000,-2712.000,-1523.000,4655.000,-6511.000,0.000,0.000,0
2026-01-29 20:58:01,368208,11236.000,1845.000,-2548.000,-3972.000,8399.000,-7136.000,0.000,0.000,0
2026-01-29 20:58:01,368248,7909.000,1390.000,-981.000,-5937.000,9269.000,-7247.000,0.000,0.000,0
2026-01-29 20:58:01,368288,6301.000,2358.000,-725.000,-7642.000,7340.000,-7398.000,0.000,0.000,0
2026-01-29 20:58:01,368328,6092.000,1866.000,-906.000,-12250.000,5115.000,-6710.000,0.000,0.000,0
2026-01-29 20:58:01,368368,6784.000,517.000,-2589.000,-12406.000,3879.000,-6544.000,0.000,0.000,0
2026-01-29 20:58:01,368408,6667.000,-1263.000,-2997.000,-7644.000,4756.000,-6446.000,0.000,0.000,0
2026-01-29 20:58:01,368450,5645.000,-786.000,-2281.000,-4024.000,5217.000,-6422.000,0.000,0.000,0
2026-01-29 20:58:01,368488,6922.000,1432.000,-956.000,4470.000,2523.000,-3597.000,0.000,0.000,0
2026-01-29 20:58:01,368528,8232.000,2286.000,-1066.000,3049.000,419.000,628.000,0.000,0.000,0
2026-01-29 20:58:01,368568,8813.000,2299.000,1486.000,1114.000,-1955.000,4893.000,0.000,0.000,0
2026-01-29 20:58:01,368608,9710.000,2037.000,1114.000,-1281.000,-6051.000,7787.000,0.000,0.000,0
2026-01-29 20:58:01,368648,8876.000,1820.000,2189.000,-2769.000,-8507.000,8828.000,0.000,0.000,0
2026-01-29 20:58:01,368688,10007.000,174.000,-241.000,-4173.000,-10778.000,8129.000,0.000,0.000,0
2026-01-29 20:58:01,368728,10811.000,-981.000,-1481.000,-364.000,-8247.000,6034.000,0.000,0.000,0
2026-01-29 20:58:02,368768,8258.000,-163.000,-779.000,4282.000,-4121.000,3734.000,0.000,0.000,0
2026-01-29 20:58:02,368808,5825.000,878.000,441.000,7404.000,-1711.000,1670.000,0.000,0.000,0
2026-01-29 20:58:02,368848,4408.000,1610.000,1021.000,8336.000,-1493.000,307.000,0.000,0.000,0
2026-01-29 20:58:02,368888,4759.000,2055.000,-168.000,7984.000,-1914.000,-27.000,0.000,0.000,0
2026-01-29 20:58:02,368928,6015.000,2275.000,-361.000,6645.000,-1265.000,258.000,0.000,0.000,0
2026-01-29 20:58:02,368968,7882.000,2910.000,760.000,4147.000,-1504.000,1135.000,0.000,0.000,0
2026-01-29 20:58:02,369008,9579.000,3430.000,928.000,916.000,-2293.000,2842.000,0.000,0.000,0
2026-01-29 20:58:02,369048,10254.000,3303.000,716.000,-2652.000,-3361.000,4327.000,0.000,0.000,0
2026-01-29 20:58:02,369088,10740.000,2952.000,216.000,-5385.000,-3503.000,4139.000,0.000,0.000,0
2026-01-29 20:58:02,369128,12994.000,1575.000,-1605.000,-6071.000,-3317.000,2173.000,0.000,0.000,0
2026-01-29 20:58:02,369168,12818.000,762.000,-1558.000,-3140.000,708.000,-977.000,0.000,0.000,0
2026-01-29 20:58:02,369208,11547.000,1717.000,-2255.000,-374.000,3464.000,-3923.000,0.000,0.000,0
2026-01-29 20:58:02,369248,12357.000,1713.000,-3515.000,-176.000,6488.000,-6157.000,0.000,0.000,0
2026-01-29 20:58:02,369288,10315.000,1481.000,-2504.000,-1144.000,9258.000,-7642.000,0.000,0.000,0
2026-01-29 20:58:02,369328,5749.000,1652.000,137.000,-1922.000,7766.000,-8804.000,0.000,0.000,0
2026-01-29 20:58:02,369368,5527.000,2173.000,155.000,-4357.000,1893.000,-9095.000,0.000,0.000,0
2026-01-29 20:58:02,369408,5580.000,1689.000,-1337.000,-5694.000,-1174.000,-7805.000,0.000,0.000,0
2026-01-29 20:58:02,369448,5171.000,-226.000,-4447.000,-7367.000,1346.000,-5692.000,0.000,0.000,0
2026-01-29 20:58:02,369488,5884.000,-1039.000,-3901.000,-4680.000,3251.000,-4280.000,0.000,0.000,0
2026-01-29 20:58:02,369528,7118.000,-97.000,-1985.000,-1695.000,4615.000,-2564.000,0.000,0.000,0
2026-01-29 20:58:02,369568,7853.000,1253.000,-1242.000,1699.000,2799.000,76.000,0.000,0.000,0
2026-01-29 20:58:02,369608,8338.000,1190.000,-490.000,2669.000,384.000,2825.000,0.000,0.000,0
2026-01-29 20:58:02,369648,11401.000,621.000,-1242.000,1732.000,-2553.000,5454.000,0.000,0.000,0
2026-01-29 20:58:02,369688,10422.000,2151.000,180.000,2335.000,-3457.000,8193.000,0.000,0.000,0
2026-01-29 20:58:02,369728,10040.000,2449.000,1054.000,656.000,-5772.000,10444.000,0.000,0.000,0
2026-01-29 20:58:03,369768,11149.000,1342.000,100.000,-2225.000,-7863.000,10017.000,0.000,0.000,0
2026-01-29 20:58:03,369808,8555.000,44.000,-979.000,-2977.000,-6067.000,7537.000,0.000,0.000,0
2026-01-29 20:58:03,369848,5123.000,-688.000,-317.000,1015.000,-3365.000,4665.000,0.000,0.000,0
2026-01-29 20:58:03,369888,4043.000,-557.000,-10.000,6670.000,-2518.000,1676.000,0.000,0.000,0
2026-01-29 20:58:03,369928,4155.000,637.000,-181.000,10790.000,-1842.000,-529.000,0.000,0.000,0
2026-01-29 20:58:03,369968,4699.000,1945.000,-171.000,12229.000,-1258.000,-1209.000,0.000,0.000,0
2026-01-29 20:58:03,370008,7620.000,2826.000,-943.000,11048.000,-1484.000,-325.000,0.000,0.000,0
2026-01-29 20:58:03,370048,10767.000,4802.000,-139.000,8178.000,-139.000,1701.000,0.000,0.000,0
2026-01-29 20:58:03,370088,10084.000,5531.000,1736.000,1887.000,-671.000,3971.000,0.000,0.000,0
2026-01-29 20:58:03,370128,11257.000,3678.000,617.000,-5057.000,-3620.000,3661.000,0.000,0.000,0
2026-01-29 20:58:03,370168,17110.000,837.000,-2637.000,-8607.000,-4691.000,762.000,0.000,0.000,0
2026-01-29 20:58:03,370208,11491.000,317.000,-262.000,-6459.000,481.000,-2457.000,0.000,0.000,0
2026-01-29 20:58:03,370248,11529.000,882.000,-1826.000,-2812.000,1886.000,-5166.000,0.000,0.000,0
2026-01-29 20:58:03,370288,12083.000,615.000,-2851.000,-2894.000,6037.000,-7195.000,0.000,0.000,0
2026-01-29 20:58:03,370328,9513.000,216.000,-460.000,-3365.000,9596.000,-8524.000,0.000,0.000,0
2026-01-29 20:58:03,370368,5540.000,247.000,2738.000,-2715.000,7283.000,-9447.000,0.000,0.000,0
2026-01-29 20:58:03,370408,5574.000,605.000,575.000,-1365.000,3686.000,-9145.000,0.000,0.000,0
2026-01-29 20:58:03,370448,6077.000,720.000,-1195.000,-757.000,3906.000,-7965.000,0.000,0.000,0
2026-01-29 20:58:03,370488,5816.000,-169.000,-2096.000,-1294.000,5877.000,-7110.000,0.000,0.000,0
2026-01-29 20:58:03,370528,5858.000,-529.000,-1605.000,-492.000,6815.000,-5739.000,0.000,0.000,0
2026-01-29 20:58:03,370568,7377.000,574.000,-1401.000,1354.000,4782.000,-2956.000,0.000,0.000,0
2026-01-29 20:58:03,370608,7279.000,2755.000,-463.000,4029.000,2063.000,1883.000,0.000,0.000,0
2026-01-29 20:58:03,370648,10596.000,1162.000,-2279.000,3457.000,-1839.000,6979.000,0.000,0.000,0
2026-01-29 20:58:03,370688,11147.000,2118.000,-1682.000,3827.000,-1508.000,9571.000,0.000,0.000,0
2026-01-29 20:58:03,370728,11556.000,2549.000,19.000,2558.000,-3141.000,11567.000,0.000,0.000,0
2026-01-29 20:58:04,370768,12486.000,1225.000,-99.000,1299.000,-5781.000,11215.000,0.000,0.000,0
2026-01-29 20:58:04,370808,9064.000,824.000,976.000,484.000,-5698.000,8776.000,0.000,0.000,0
2026-01-29 20:58:04,370848,5064.000,-460.000,1149.000,1351.000,-5443.000,5681.000,0.000,0.000,0
2026-01-29 20:58:04,370888,4622.000,-1125.000,121.000,6945.000,-5036.000,2667.000,0.000,0.000,0
2026-01-29 20:58:04,370928,4442.000,619.000,-136.000,12594.000,-2679.000,649.000,0.000,0.000,0
2026-01-29 20:58:04,370968,6118.000,5225.000,-186.000,13167.000,-990.000,-255.000,0.000,0.000,0
2026-01-29 20:58:04,371008,8031.000,9963.000,4183.000,4131.000,706.000,691.000,0.000,0.000,0
2026-01-29 20:58:04,371048,10021.000,7294.000,2814.000,-2996.000,-1292.000,909.000,0.000,0.000,0
2026-01-29 20:58:04,371088,10050.000,8032.000,3166.000,-2646.000,41.000,-2178.000,0.000,0.000,0
2026-01-29 20:58:04,371128,13880.000,8142.000,-750.000,-3482.000,1325.000,-6453.000,0.000,0.000,0
2026-01-29 20:58:04,371168,14249.000,8581.000,673.000,-2688.000,8156.000,-8433.000,0.000,0.000,0
2026-01-29 20:58:04,371208,13204.000,9026.000,1186.000,-5578.000,6740.000,-9033.000,0.000,0.000,0
2026-01-29 20:58:04,371248,14033.000,6517.000,-1006.000,-9401.000,5159.000,-8721.000,0.000,0.000,0
2026-01-29 20:58:04,371288,10945.000,4374.000,-2285.000,-9531.000,5299.000,-7831.000,0.000,0.000,0
2026-01-29 20:58:04,371328,8028.000,2019.000,-1828.000,-7967.000,6631.000,-7417.000,0.000,0.000,0
2026-01-29 20:58:04,371368,5894.000,722.000,-1380.000,-5028.000,6507.000,-8588.000,0.000,0.000,0
2026-01-29 20:58:04,371408,4260.000,53.000,-1091.000,-3499.000,5576.000,-9819.000,0.000,0.000,0
2026-01-29 20:58:04,371448,2987.000,-309.000,-663.000,-1006.000,4143.000,-10450.000,0.000,0.000,0
2026-01-29 20:58:04,371488,2961.000,223.000,-539.000,1053.000,1848.000,-10041.000,0.000,0.000,0
2026-01-29 20:58:04,371528,1760.000,1110.000,-1801.000,5126.000,44.000,-8410.000,0.000,0.000,0
2026-01-29 20:58:04,371568,3571.000,10942.000,739.000,3522.000,-1144.000,-5395.000,0.000,0.000,0
2026-01-29 20:58:04,371608,-1638.000,12336.000,4735.000,1807.000,-456.000,-6955.000,0.000,0.000,0
2026-01-29 20:58:04,371648,1251.000,14366.000,4661.000,5312.000,-4302.000,-7776.000,0.000,0.000,0
2026-01-29 20:58:04,371688,1543.000,12313.000,7946.000,7450.000,-2360.000,-6854.000,0.000,0.000,0
2026-01-29 20:58:04,371728,3482.000,8916.000,4385.000,2801.000,-5280.000,-3598.000,0.000,0.000,0
2026-01-29 20:58:05,371768,15289.000,10297.000,5685.000,1175.000,-1154.000,2158.000,0.000,0.000,0
2026-01-29 20:58:05,371808,3404.000,-5370.000,7048.000,-19571.000,5482.000,1858.000,0.000,0.000,0
2026-01-29 20:58:05,371848,-3496.000,14935.000,3949.000,8039.000,3518.000,-1994.000,0.000,0.000,0
2026-01-29 20:58:05,371888,1498.000,988.000,3062.000,-12290.000,547.000,-4234.000,0.000,0.000,0
2026-01-29 20:58:05,371928,2380.000,9257.000,-3073.000,9039.000,-4639.000,-8303.000,0.000,0.000,0
2026-01-29 20:58:05,371968,335.000,8605.000,-3578.000,9908.000,-9349.000,-11492.000,0.000,0.000,0
2026-01-29 20:58:05,372008,1355.000,1701.000,-4853.000,17071.000,-13705.000,-14314.000,0.000,0.000,0
2026-01-29 20:58:05,372048,-462.000,5888.000,-543.000,18710.000,-13154.000,-11076.000,0.000,0.000,0
2026-01-29 20:58:05,372088,5799.000,14577.000,12620.000,16396.000,-8057.000,-10192.000,0.000,0.000,0
2026-01-29 20:58:05,372128,-3209.000,11992.000,9554.000,-6442.000,-820.000,-2407.000,0.000,0.000,0
2026-01-29 20:58:05,372168,-4856.000,-2567.000,920.000,-7184.000,4104.000,1309.000,0.000,0.000,0
2026-01-29 20:58:05,372208,-4393.000,8970.000,-5903.000,9914.000,10079.000,4075.000,0.000,0.000,0
2026-01-29 20:58:05,372248,-4105.000,16645.000,1762.000,-7698.000,4994.000,8004.000,0.000,0.000,0
2026-01-29 20:58:05,372288,-3008.000,3739.000,120.000,-15422.000,4936.000,12561.000,0.000,0.000,0
2026-01-29 20:58:05,372328,1035.000,3999.000,2266.000,-8656.000,3515.000,12797.000,0.000,0.000,0
2026-01-29 20:58:05,372368,601.000,6747.000,4079.000,-8712.000,3693.000,14584.000,0.000,0.000,0
2026-01-29 20:58:05,372408,1896.000,3953.000,1632.000,-13907.000,1523.000,15827.000,0.000,0.000,0
2026-01-29 20:58:05,372448,3664.000,1755.000,1769.000,-850.000,-1102.000,13263.000,0.000,0.000,0
2026-01-29 20:58:05,372488,7496.000,12875.000,1139.000,5291.000,-403.000,7787.000,0.000,0.000,0
2026-01-29 20:58:05,372528,1926.000,7174.000,646.000,2870.000,1338.000,5139.000,0.000,0.000,0
2026-01-29 20:58:05,372568,7138.000,14038.000,696.000,12980.000,-749.000,-2172.000,0.000,0.000,0
2026-01-29 20:58:05,372608,2349.000,13122.000,981.000,11636.000,556.000,-4810.000,0.000,0.000,0
2026-01-29 20:58:05,372648,3077.000,9660.000,-273.000,10777.000,-2620.000,-5085.000,0.000,0.000,0
2026-01-29 20:58:05,372688,4049.000,7937.000,-3445.000,15251.000,-314.000,-5333.000,0.000,0.000,0
2026-01-29 20:58:05,372728,1932.000,8551.000,-4702.000,19867.000,3724.000,-5651.000,0.000,0.000,0
2026-01-29 20:58:06,372768,2777.000,9611.000,-5363.000,18326.000,4957.000,-6484.000,0.000,0.000,0
2026-01-29 20:58:06,372808,1943.000,7309.000,-3275.000,15615.000,3760.000,-6569.000,0.000,0.000,0
2026-01-29 20:58:06,372848,8.000,6660.000,-1799.000,12146.000,2616.000,-5906.000,0.000,0.000,0
2026-01-29 20:58:06,372888,-1299.000,4182.000,-2947.000,7555.000,991.000,-5743.000,0.000,0.000,0
2026-01-29 20:58:06,372928,-1896.000,4472.000,-2514.000,5127.000,-94.000,-5552.000,0.000,0.000,0
2026-01-29 20:58:06,372968,-1751.000,2938.000,-3571.000,6428.000,-1610.000,-5124.000,0.000,0.000,0
2026-01-29 20:58:06,373008,-2099.000,4967.000,-5172.000,5094.000,-2731.000,-3071.000,0.000,0.000,0
2026-01-29 20:58:06,373048,-1793.000,4737.000,-7706.000,2547.000,-3638.000,-1789.000,0.000,0.000,0
2026-01-29 20:58:06,373088,-2089.000,5520.000,-9763.000,2932.000,-3095.000,-1328.000,0.000,0.000,0
2026-01-29 20:58:06,373128,-867.000,5767.000,-8766.000,1234.000,-2917.000,-491.000,0.000,0.000,0
2026-01-29 20:58:06,373168,-1208.000,5238.000,-10046.000,738.000,-1275.000,501.000,0.000,0.000,0
2026-01-29 20:58:06,373208,-2477.000,4555.000,-11275.000,986.000,273.000,1581.000,0.000,0.000,0
2026-01-29 20:58:06,373248,-1985.000,2069.000,-8600.000,-1259.000,351.000,3431.000,0.000,0.000,0
2026-01-29 20:58:06,373288,-1283.000,185.000,-10230.000,1271.000,880.000,818.000,0.000,0.000,0
2026-01-29 20:58:06,373328,-1268.000,2039.000,-7210.000,6663.000,2693.000,523.000,0.000,0.000,0
2026-01-29 20:58:06,373368,-1041.000,4212.000,-2567.000,6576.000,3962.000,-501.000,0.000,0.000,0
2026-01-29 20:58:06,373408,-567.000,3665.000,-1204.000,2087.000,2477.000,-533.000,0.000,0.000,0
2026-01-29 20:58:06,373448,-1182.000,1953.000,-2310.000,-3338.000,2233.000,-182.000,0.000,0.000,0
2026-01-29 20:58:06,373488,-432.000,1784.000,-3131.000,-3466.000,2800.000,732.000,0.000,0.000,0
2026-01-29 20:58:06,373528,-188.000,1761.000,-4038.000,-6399.000,4695.000,1447.000,0.000,0.000,0
2026-01-29 20:58:06,373568,2954.000,3826.000,-10743.000,-2970.000,6696.000,2287.000,0.000,0.000,0
2026-01-29 20:58:06,373608,3261.000,4272.000,-7106.000,-4898.000,11292.000,2912.000,0.000,0.000,0
2026-01-29 20:58:06,373648,6022.000,3119.000,-9970.000,-5226.000,9037.000,1761.000,0.000,0.000,0
2026-01-29 20:58:06,373688,7976.000,6946.000,-8947.000,-2142.000,10442.000,145.000,0.000,0.000,0
2026-01-29 20:58:06,373728,7541.000,7147.000,-5375.000,-6427.000,10096.000,353.000,0.000,0.000,0
2026-01-29 20:58:07,373768,11203.000,5175.000,-6098.000,-5951.000,8433.000,89.000,0.000,0.000,0
2026-01-29 20:58:07,373808,9595.000,3939.000,-3803.000,-2389.000,10921.000,-1107.000,0.000,0.000,0
2026-01-29 20:58:07,373848,5673.000,5338.000,-618.000,607.000,8121.000,-1306.000,0.000,0.000,0
2026-01-29 20:58:07,373888,3296.000,4369.000,-102.000,3162.000,4771.000,-1569.000,0.000,0.000,0
2026-01-29 20:58:07,373928,2428.000,4511.000,333.000,-1666.000,4308.000,-2166.000,0.000,0.000,0
2026-01-29 20:58:07,373968,3553.000,2842.000,-2362.000,-2058.000,3669.000,-2509.000,0.000,0.000,0
2026-01-29 20:58:07,374008,3072.000,4714.000,-1221.000,613.000,4170.000,-2281.000,0.000,0.000,0
2026-01-29 20:58:07,374048,3072.000,6107.000,-1330.000,1334.000,2284.000,-1769.000,0.000,0.000,0
2026-01-29 20:58:07,374088,5636.000,5801.000,-1168.000,-164.000,576.000,-1775.000,0.000,0.000,0
2026-01-29 20:58:07,374128,4245.000,6097.000,827.000,2566.000,1602.000,-1978.000,0.000,0.000,0
2026-01-29 20:58:07,374168,5317.000,6212.000,-1520.000,1114.000,416.000,-1464.000,0.000,0.000,0
2026-01-29 20:58:07,374208,8058.000,4855.000,-3390.000,4628.000,667.000,-1218.000,0.000,0.000,0
2026-01-29 20:58:07,374248,7272.000,7049.000,-5002.000,11648.000,480.000,-1602.000,0.000,0.000,0
2026-01-29 20:58:07,374288,8162.000,3608.000,-11097.000,4534.000,-1711.000,-1165.000,0.000,0.000,0
2026-01-29 20:58:07,374328,7019.000,2370.000,-5491.000,1833.000,-3737.000,-1707.000,0.000,0.000,0
2026-01-29 20:58:07,374368,5891.000,2954.000,-3865.000,-2187.000,-9026.000,-1246.000,0.000,0.000,0
2026-01-29 20:58:07,374408,4206.000,-319.000,-6524.000,86.000,-10590.000,279.000,0.000,0.000,0
2026-01-29 20:58:07,374448,3080.000,6702.000,-3147.000,871.000,-8604.000,1041.000,0.000,0.000,0
2026-01-29 20:58:07,374489,1871.000,1645.000,-1676.000,-6494.000,-7655.000,2602.000,0.000,0.000,0
2026-01-29 20:58:07,374528,2550.000,1806.000,-3476.000,-4169.000,-7953.000,2130.000,0.000,0.000,0
2026-01-29 20:58:07,374568,1457.000,1976.000,-3888.000,1702.000,-6258.000,2690.000,0.000,0.000,0
2026-01-29 20:58:07,374608,5232.000,4702.000,-6571.000,8250.000,-6901.000,3691.000,0.000,0.000,0
2026-01-29 20:58:07,374648,3007.000,13125.000,-5217.000,5725.000,-3408.000,6111.000,0.000,0.000,0
2026-01-29 20:58:07,374688,2864.000,2073.000,-10729.000,-3612.000,-2307.000,5964.000,0.000,0.000,0
2026-01-29 20:58:07,374728,3591.000,9502.000,-7872.000,-904.000,723.000,3292.000,0.000,0.000,0
2026-01-29 20:58:08,374768,1476.000,3388.000,-8263.000,1822.000,873.000,1632.000,0.000,0.000,0
2026-01-29 20:58:08,374808,1726.000,6634.000,-6730.000,6278.000,-1985.000,-1030.000,0.000,0.000,0
2026-01-29 20:58:08,374848,1552.000,5505.000,-7054.000,4627.000,-2500.000,-3213.000,0.000,0.000,0
2026-01-29 20:58:08,374888,751.000,4199.000,-5739.000,5483.000,-1438.000,-4793.000,0.000,0.000,0
2026-01-29 20:58:08,374928,128.000,4385.000,-3885.000,3466.000,-1409.000,-4640.000,0.000,0.000,0
2026-01-29 20:58:08,374968,-262.000,3825.000,-3714.000,342.000,-1399.000,-3717.000,0.000,0.000,0
2026-01-29 20:58:08,375008,-346.000,2354.000,-3931.000,-120.000,-1843.000,-3544.000,0.000,0.000,0
2026-01-29 20:58:08,375048,-180.000,3865.000,-3978.000,1495.000,-922.000,-3412.000,0.000,0.000,0
2026-01-29 20:58:08,375088,-533.000,3842.000,-5981.000,-1330.000,-942.000,-2468.000,0.000,0.000,0
2026-01-29 20:58:08,375128,-232.000,3280.000,-6222.000,-1215.000,80.000,-1233.000,0.000,0.000,0
2026-01-29 20:58:08,375168,370.000,5026.000,-8176.000,-1657.000,413.000,782.000,0.000,0.000,0
2026-01-29 20:58:08,375208,422.000,4563.000,-11553.000,786.000,1247.000,1075.000,0.000,0.000,0
2026-01-29 20:58:08,375248,885.000,4599.000,-12500.000,1397.000,2082.000,1439.000,0.000,0.000,0
2026-01-29 20:58:08,375288,1574.000,2372.000,-10852.000,921.000,2583.000,1107.000,0.000,0.000,0
2026-01-29 20:58:08,375328,1620.000,2891.000,-8268.000,5327.000,3435.000,1323.000,0.000,0.000,0
2026-01-29 20:58:08,375368,1735.000,3003.000,-6170.000,2815.000,2988.000,1871.000,0.000,0.000,0
2026-01-29 20:58:08,375408,1345.000,2385.000,-4294.000,-2526.000,1571.000,2772.000,0.000,0.000,0
2026-01-29 20:58:08,375448,778.000,2255.000,-4150.000,-5015.000,-751.000,3549.000,0.000,0.000,0
2026-01-29 20:58:08,375488,44.000,1906.000,-4059.000,-5321.000,-4060.000,3959.000,0.000,0.000,0
2026-01-29 20:58:08,375528,-205.000,992.000,-7606.000,-5597.000,-6041.000,3756.000,0.000,0.000,0
2026-01-29 20:58:08,375568,-682.000,1982.000,-8177.000,-3008.000,-5412.000,2485.000,0.000,0.000,0
2026-01-29 20:58:08,375608,-958.000,2320.000,-8833.000,-2679.000,-4488.000,1650.000,0.000,0.000,0
2026-01-29 20:58:08,375648,-52.000,3422.000,-9755.000,-439.000,-4386.000,162.000,0.000,0.000,0
2026-01-29 20:58:08,375688,850.000,5360.000,-7708.000,29.000,-3332.000,-905.000,0.000,0.000,0
2026-01-29 20:58:08,375728,1265.000,6414.000,-8249.000,-2449.000,-2151.000,-824.000,0.000,0.000,0
2026-01-29 20:58:09,375768,2180.000,8234.000,-8808.000,-3404.000,-1451.000,-1129.000,0.000,0.000,0
2026-01-29 20:58:09,375808,3764.000,8279.000,-5514.000,-3568.000,-1003.000,-3452.000,0.000,0.000,0
2026-01-29 20:58:09,375848,2614.000,7613.000,-6080.000,-8355.000,-643.000,-2505.000,0.000,0.000,0
2026-01-29 20:58:09,375888,1896.000,3298.000,-4281.000,-8358.000,2024.000,-1841.000,0.000,0.000,0
2026-01-29 20:58:09,375928,704.000,3375.000,-2110.000,-2288.000,2607.000,-2204.000,0.000,0.000,0
2026-01-29 20:58:09,375968,162.000,4863.000,-1202.000,-5692.000,2298.000,-1764.000,0.000,0.000,0
2026-01-29 20:58:09,376008,-136.000,2089.000,170.000,-8236.000,2775.000,-188.000,0.000,0.000,0
2026-01-29 20:58:09,376048,137.000,4562.000,502.000,-9679.000,3471.000,2148.000,0.000,0.000,0
2026-01-29 20:58:09,376088,114.000,7249.000,-2845.000,-15473.000,3910.000,7258.000,0.000,0.000,0
2026-01-29 20:58:09,376128,-1691.000,10793.000,-2854.000,-18321.000,4686.000,16423.000,0.000,0.000,0
2026-01-29 20:58:09,376168,4270.000,9166.000,-928.000,-17934.000,-1970.000,14924.000,0.000,0.000,0
2026-01-29 20:58:09,376208,6645.000,10574.000,7683.000,-10123.000,-332.000,4766.000,0.000,0.000,0
2026-01-29 20:58:09,376248,8065.000,16336.000,7817.000,-3171.000,-4929.000,-917.000,0.000,0.000,0
2026-01-29 20:58:09,376288,4716.000,11113.000,3667.000,-6598.000,-5584.000,-2606.000,0.000,0.000,0
2026-01-29 20:58:09,376328,4078.000,6862.000,2455.000,-8324.000,-4332.000,-5089.000,0.000,0.000,0
2026-01-29 20:58:09,376368,3857.000,6609.000,3147.000,-7094.000,-3202.000,-3390.000,0.000,0.000,0
2026-01-29 20:58:09,376408,2850.000,3436.000,2389.000,-7243.000,-3077.000,-1879.000,0.000,0.000,0
2026-01-29 20:58:09,376448,2284.000,2580.000,1935.000,-5586.000,-3069.000,-1871.000,0.000,0.000,0
2026-01-29 20:58:09,376488,1839.000,1109.000,1271.000,-4037.000,-3213.000,-1610.000,0.000,0.000,0
2026-01-29 20:58:09,376528,1528.000,114.000,761.000,-1623.000,-3039.000,-1321.000,0.000,0.000,0
2026-01-29 20:58:09,376568,2019.000,422.000,1144.000,833.000,-3074.000,-107.000,0.000,0.000,0
2026-01-29 20:58:09,376608,4647.000,3277.000,2853.000,1995.000,-3788.000,2559.000,0.000,0.000,0
2026-01-29 20:58:09,376648,9084.000,7574.000,3316.000,-1054.000,-5337.000,7598.000,0.000,0.000,0
2026-01-29 20:58:09,376688,11632.000,8145.000,2970.000,-7045.000,-5991.000,11705.000,0.000,0.000,0
2026-01-29 20:58:09,376728,10658.000,-1710.000,825.000,-9392.000,-3307.000,10964.000,0.000,0.000,0
2026-01-29 20:58:10,376768,10369.000,-2306.000,1589.000,4067.000,-558.000,5160.000,0.000,0.000,0
2026-01-29 20:58:10,376808,9749.000,1275.000,1468.000,14862.000,687.000,1208.000,0.000,0.000,0
2026-01-29 20:58:10,376848,7401.000,3616.000,1091.000,19287.000,1220.000,20.000,0.000,0.000,0
2026-01-29 20:58:10,376888,7495.000,3078.000,1255.000,18020.000,40.000,485.000,0.000,0.000,0
2026-01-29 20:58:10,376928,7259.000,3394.000,104.000,16038.000,187.000,1265.000,0.000,0.000,0
2026-01-29 20:58:10,376968,5193.000,3457.000,-236.000,13969.000,2126.000,2909.000,0.000,0.000,0
2026-01-29 20:58:10,377008,3775.000,2824.000,-55.000,11741.000,2825.000,3971.000,0.000,0.000,0
2026-01-29 20:58:10,377048,4465.000,3335.000,-728.000,10763.000,1749.000,4530.000,0.000,0.000,0
2026-01-29 20:58:10,377088,5990.000,4105.000,-273.000,8881.000,825.000,6067.000,0.000,0.000,0
2026-01-29 20:58:10,377128,8073.000,5609.000,1376.000,3329.000,-1684.000,7118.000,0.000,0.000,0
2026-01-29 20:58:10,377168,9022.000,5079.000,2126.000,-3343.000,-5414.000,7692.000,0.000,0.000,0
2026-01-29 20:58:10,377208,11038.000,4138.000,293.000,-8317.000,-8202.000,6877.000,0.000,0.000,0
2026-01-29 20:58:10,377248,12599.000,2554.000,-1692.000,-8729.000,-7399.000,5262.000,0.000,0.000,0
2026-01-29 20:58:10,377288,14425.000,883.000,-1031.000,-5148.000,-3565.000,3186.000,0.000,0.000,0
2026-01-29 20:58:10,377328,10083.000,1620.000,296.000,-2404.000,-60.000,339.000,0.000,0.000,0
2026-01-29 20:58:10,377368,10849.000,1363.000,-1310.000,-1572.000,1341.000,-1865.000,0.000,0.000,0
2026-01-29 20:58:10,377408,10680.000,1345.000,-1981.000,-1627.000,4952.000,-3759.000,0.000,0.000,0
2026-01-29 20:58:10,377448,7679.000,1564.000,-719.000,-1668.000,7716.000,-4879.000,0.000,0.000,0
2026-01-29 20:58:10,377488,5464.000,1637.000,484.000,-2161.000,6870.000,-5765.000,0.000,0.000,0
2026-01-29 20:58:10,377528,5547.000,1208.000,-44.000,-3007.000,4475.000,-6349.000,0.000,0.000,0
2026-01-29 20:58:10,377568,6369.000,783.000,-1276.000,-2708.000,3795.000,-6450.000,0.000,0.000,0
2026-01-29 20:58:10,377608,6375.000,321.000,-1969.000,-1075.000,4652.000,-6041.000,0.000,0.000,0
2026-01-29 20:58:10,377648,6843.000,462.000,-1751.000,1079.000,5319.000,-5388.000,0.000,0.000,0
2026-01-29 20:58:10,377688,7339.000,735.000,-1725.000,2919.000,4976.000,-4103.000,0.000,0.000,0
2026-01-29 20:58:10,377728,8153.000,1543.000,-1446.000,4767.000,3915.000,-1914.000,0.000,0.000,0
2026-01-29 20:58:11,377768,8207.000,2353.000,803.000,4491.000,1901.000,811.000,0.000,0.000,0
2026-01-29 20:58:11,377808,10448.000,1431.000,-825.000,2202.000,-1431.000,3999.000,0.000,0.000,0
2026-01-29 20:58:11,377848,8586.000,2796.000,1543.000,1838.000,-1792.000,6515.000,0.000,0.000,0
2026-01-29 20:58:11,377888,8301.000,2758.000,2049.000,-1386.000,-4933.000,8776.000,0.000,0.000,0
2026-01-29 20:58:11,377928,10442.000,1071.000,-282.000,-3708.000,-6527.000,8303.000,0.000,0.000,0
2026-01-29 20:58:11,377968,8073.000,414.000,-548.000,-1718.000,-3606.000,5768.000,0.000,0.000,0
2026-01-29 20:58:11,378008,5616.000,24.000,162.000,3151.000,-1375.000,3346.000,0.000,0.000,0
2026-01-29 20:58:11,378048,4507.000,812.000,-20.000,7024.000,-996.000,-202.000,0.000,0.000,0
2026-01-29 20:58:11,378088,5229.000,1767.000,-845.000,10387.000,-773.000,-808.000,0.000,0.000,0
2026-01-29 20:58:11,378128,6070.000,2758.000,-327.000,9458.000,-64.000,-260.000,0.000,0.000,0
2026-01-29 20:58:11,378168,7467.000,4363.000,1249.000,5425.000,-519.000,1905.000,0.000,0.000,0
2026-01-29 20:58:11,378208,9253.000,4956.000,1303.000,-1149.000,-2731.000,5431.000,0.000,0.000,0
2026-01-29 20:58:11,378248,10155.000,4871.000,577.000,-7093.000,-4333.000,7692.000,0.000,0.000,0
2026-01-29 20:58:11,378288,11617.000,3730.000,-1142.000,-11076.000,-5625.000,7504.000,0.000,0.000,0
2026-01-29 20:58:11,378328,13583.000,1128.000,-1193.000,-11943.000,-3946.000,4776.000,0.000,0.000,0
2026-01-29 20:58:11,378368,11293.000,-113.000,-1878.000,-7846.000,-678.000,747.000,0.000,0.000,0
2026-01-29 20:58:11,378408,11921.000,515.000,-3105.000,-2196.000,3583.000,-2789.000,0.000,0.000,0
2026-01-29 20:58:11,378448,10599.000,1081.000,-2289.000,3.000,7958.000,-5508.000,0.000,0.000,0
2026-01-29 20:58:11,378488,7580.000,1841.000,-775.000,110.000,9473.000,-7267.000,0.000,0.000,0
2026-01-29 20:58:11,378528,5325.000,2011.000,198.000,-793.000,7636.000,-8137.000,0.000,0.000,0
2026-01-29 20:58:11,378568,5417.000,1786.000,-37.000,-2373.000,4255.000,-8268.000,0.000,0.000,0
2026-01-29 20:58:11,378608,6029.000,1353.000,-1165.000,-3918.000,2630.000,-7855.000,0.000,0.000,0
2026-01-29 20:58:11,378648,6653.000,747.000,-2015.000,-4200.000,2910.000,-6728.000,0.000,0.000,0
2026-01-29 20:58:11,378688,7312.000,510.000,-2324.000,-2625.000,3757.000,-4782.000,0.000,0.000,0
2026-01-29 20:58:11,378728,7713.000,1148.000,-2305.000,96.000,4066.000,-2313.000,0.000,0.000,0
2026-01-29 20:58:12,378768,7738.000,1431.000,-2611.000,2738.000,3369.000,-33.000,0.000,0.000,0
2026-01-29 20:58:12,378808,8448.000,1647.000,-812.000,4042.000,1701.000,914.000,0.000,0.000,0
2026-01-29 20:58:12,378848,10802.000,1580.000,-650.000,3514.000,-1482.000,1759.000,0.000,0.000,0
2026-01-29 20:58:12,378888,8634.000,3951.000,3832.000,566.000,-3816.000,3178.000,0.000,0.000,0
2026-01-29 20:58:12,378928,9798.000,2530.000,1321.000,-7533.000,-6908.000,6115.000,0.000,0.000,0
2026-01-29 20:58:12,378968,10407.000,-1327.000,1009.000,-8509.000,-3853.000,6021.000,0.000,0.000,0
2026-01-29 20:58:12,379008,7224.000,-2504.000,1040.000,-5709.000,-1915.000,4874.000,0.000,0.000,0
2026-01-29 20:58:12,379048,4247.000,186.000,1702.000,12397.000,143.000,477.000,0.000,0.000,0
2026-01-29 20:58:12,379088,3998.000,1940.000,1238.000,13557.000,-1216.000,338.000,0.000,0.000,0
2026-01-29 20:58:12,379128,5381.000,2145.000,-936.000,9856.000,-1202.000,957.000,0.000,0.000,0
2026-01-29 20:58:12,379168,6648.000,2341.000,331.000,7863.000,372.000,2033.000,0.000,0.000,0
2026-01-29 20:58:12,379208,7893.000,3444.000,202.000,7814.000,-305.000,4428.000,0.000,0.000,0
2026-01-29 20:58:12,379248,10944.000,4696.000,-1151.000,7515.000,-614.000,6626.000,0.000,0.000,0
2026-01-29 20:58:12,379288,9856.000,5928.000,-581.000,4220.000,112.000,6976.000,0.000,0.000,0
2026-01-29 20:58:12,379328,11236.000,4983.000,-917.000,-1598.000,-1687.000,5515.000,0.000,0.000,0
2026-01-29 20:58:12,379368,11663.000,3299.000,-532.000,-6884.000,-2603.000,2444.000,0.000,0.000,0
2026-01-29 20:58:12,379408,12062.000,3303.000,-1985.000,-7823.000,-3017.000,-79.000,0.000,0.000,0
2026-01-29 20:58:12,379448,12188.000,3413.000,-2958.000,-6303.000,286.000,-1547.000,0.000,0.000,0
2026-01-29 20:58:12,379488,9942.000,2343.000,-1863.000,-7161.000,3482.000,-3054.000,0.000,0.000,0
2026-01-29 20:58:12,379528,6302.000,1372.000,-590.000,-8744.000,4119.000,-5405.000,0.000,0.000,0
2026-01-29 20:58:12,379568,4996.000,1152.000,136.000,-9242.000,2892.000,-7634.000,0.000,0.000,0
2026-01-29 20:58:12,379608,5690.000,557.000,-114.000,-7906.000,1489.000,-8819.000,0.000,0.000,0
2026-01-29 20:58:12,379648,6443.000,459.000,-1304.000,-5011.000,1975.000,-9095.000,0.000,0.000,0
2026-01-29 20:58:12,379688,7296.000,327.000,-2158.000,-2531.000,3589.000,-8221.000,0.000,0.000,0
2026-01-29 20:58:12,379728,7971.000,232.000,-2174.000,-208.000,5119.000,-6494.000,0.000,0.000,0
2026-01-29 20:58:13,379768,8188.000,1631.000,-1756.000,1943.000,5238.000,-3854.000,0.000,0.000,0
2026-01-29 20:58:13,379808,8058.000,1596.000,-1499.000,3720.000,3886.000,-491.000,0.000,0.000,0
2026-01-29 20:58:13,379848,8633.000,1753.000,1058.000,4276.000,1157.000,1613.000,0.000,0.000,0
2026-01-29 20:58:13,379888,10160.000,2221.000,320.000,1657.000,-2439.000,3841.000,0.000,0.000,0
2026-01-29 20:58:13,379928,8380.000,3282.000,2556.000,-1564.000,-3423.000,6558.000,0.000,0.000,0
2026-01-29 20:58:13,379968,11626.000,-210.000,-978.000,-5902.000,-5315.000,8521.000,0.000,0.000,0
2026-01-29 20:58:13,380008,9134.000,-220.000,-275.000,253.000,-1013.000,6396.000,0.000,0.000,0
2026-01-29 20:58:13,380048,6123.000,72.000,591.000,6634.000,248.000,4132.000,0.000,0.000,0
2026-01-29 20:58:13,380088,4447.000,1587.000,948.000,10873.000,-132.000,2809.000,0.000,0.000,0
2026-01-29 20:58:13,380128,4151.000,2040.000,-506.000,10986.000,-376.000,2419.000,0.000,0.000,0
2026-01-29 20:58:13,380168,5347.000,2558.000,-1236.000,9095.000,641.000,2193.000,0.000,0.000,0
2026-01-29 20:58:13,380208,6426.000,3870.000,-759.000,6794.000,1295.000,2734.000,0.000,0.000,0
2026-01-29 20:58:13,380248,7928.000,3895.000,-1203.000,5057.000,195.000,3658.000,0.000,0.000,0
2026-01-29 20:58:13,380288,8976.000,4291.000,-1160.000,5269.000,-759.000,2794.000,0.000,0.000,0
2026-01-29 20:58:13,380328,9905.000,6854.000,-659.000,3834.000,-1552.000,1204.000,0.000,0.000,0
2026-01-29 20:58:13,380368,11079.000,5666.000,-975.000,526.000,-2318.000,315.000,0.000,0.000,0
2026-01-29 20:58:13,380408,10310.000,5640.000,1301.000,-482.000,-1974.000,-968.000,0.000,0.000,0
2026-01-29 20:58:13,380448,10188.000,5330.000,637.000,-4041.000,-2355.000,-2496.000,0.000,0.000,0
2026-01-29 20:58:13,380488,12568.000,3946.000,-1167.000,-8833.000,-953.000,-2667.000,0.000,0.000,0
2026-01-29 20:58:13,380528,11568.000,2797.000,-1288.000,-10180.000,1810.000,-3461.000,0.000,0.000,0
2026-01-29 20:58:13,380568,9080.000,1018.000,-1487.000,-10583.000,2774.000,-4628.000,0.000,0.000,0
2026-01-29 20:58:13,380608,6258.000,1897.000,175.000,-7480.000,2732.000,-6109.000,0.000,0.000,0
2026-01-29 20:58:13,380648,6072.000,1488.000,-123.000,-8368.000,883.000,-6975.000,0.000,0.000,0
2026-01-29 20:58:13,380688,6202.000,1186.000,-999.000,-8407.000,1482.000,-7162.000,0.000,0.000,0
2026-01-29 20:58:13,380728,6799.000,248.000,-2255.000,-7156.000,2939.000,-6711.000,0.000,0.000,0
2026-01-29 20:58:14,380768,6765.000,179.000,-1957.000,-3677.000,4496.000,-6051.000,0.000,0.000,0
2026-01-29 20:58:14,380808,7488.000,-117.000,-1995.000,-329.000,4116.000,-4676.000,0.000,0.000,0
2026-01-29 20:58:14,380848,8088.000,938.000,-1342.000,2815.000,3329.000,-2161.000,0.000,0.000,0
2026-01-29 20:58:14,380888,7630.000,1427.000,-355.000,4752.000,1343.000,824.000,0.000,0.000,0
2026-01-29 20:58:14,380928,9882.000,1005.000,23.000,3551.000,-1728.000,5087.000,0.000,0.000,0
2026-01-29 20:58:14,380968,9397.000,1657.000,126.000,2472.000,-4765.000,8747.000,0.000,0.000,0
2026-01-29 20:58:14,381008,10042.000,1538.000,573.000,2966.000,-5035.000,10682.000,0.000,0.000,0
2026-01-29 20:58:14,381048,12494.000,1459.000,-507.000,4197.000,-5687.000,10880.000,0.000,0.000,0
2026-01-29 20:58:14,381088,9662.000,1661.000,-841.000,4920.000,-3356.000,9561.000,0.000,0.000,0
2026-01-29 20:58:14,381129,5536.000,1700.000,602.000,4815.000,-926.000,7050.000,0.000,0.000,0
2026-01-29 20:58:14,381168,4688.000,1153.000,-399.000,5462.000,-1574.000,4324.000,0.000,0.000,0
2026-01-29 20:58:14,381208,5133.000,2033.000,-736.000,7617.000,-776.000,2347.000,0.000,0.000,0
2026-01-29 20:58:14,381248,6886.000,1928.000,-1555.000,8856.000,-41.000,1356.000,0.000,0.000,0
2026-01-29 20:58:14,381288,7256.000,2442.000,-1416.000,9080.000,1168.000,694.000,0.000,0.000,0
2026-01-29 20:58:14,381328,9342.000,3598.000,345.000,8885.000,-477.000,1320.000,0.000,0.000,0
2026-01-29 20:58:14,381368,10188.000,5437.000,-219.000,8392.000,-2720.000,1512.000,0.000,0.000,0
2026-01-29 20:58:14,381408,9265.000,6672.000,217.000,4338.000,-1737.000,917.000,0.000,0.000,0
2026-01-29 20:58:14,381448,13055.000,6350.000,-1079.000,-1176.000,-1577.000,-789.000,0.000,0.000,0
2026-01-29 20:58:14,381488,9814.000,5578.000,582.000,-4584.000,159.000,-2627.000,0.000,0.000,0
2026-01-29 20:58:14,381528,12006.000,5350.000,-1318.000,-8368.000,-608.000,-3046.000,0.000,0.000,0
2026-01-29 20:58:14,381568,14110.000,4017.000,-3051.000,-12348.000,2053.000,-3319.000,0.000,0.000,0
2026-01-29 20:58:14,381608,12112.000,743.000,-3585.000,-14205.000,5422.000,-5078.000,0.000,0.000,0
2026-01-29 20:58:14,381648,8680.000,1838.000,-2278.000,-12268.000,5571.000,-10088.000,0.000,0.000,0
2026-01-29 20:58:14,381688,8696.000,2526.000,-2553.000,-9325.000,2998.000,-14244.000,0.000,0.000,0
2026-01-29 20:58:14,381728,8513.000,4786.000,-3278.000,-6511.000,1860.000,-15444.000,0.000,0.000,0
2026-01-29 20:58:15,381768,7836.000,6211.000,-3240.000,-7796.000,-110.000,-16892.000,0.000,0.000,0
2026-01-29 20:58:15,381808,7943.000,5037.000,-4709.000,-8626.000,-1054.000,-16156.000,0.000,0.000,0
2026-01-29 20:58:15,381848,5796.000,3917.000,-4167.000,-4153.000,-53.000,-15731.000,0.000,0.000,0
2026-01-29 20:58:15,381888,4842.000,4068.000,-2001.000,-39.000,-1158.000,-12942.000,0.000,0.000,0
2026-01-29 20:58:15,381928,2588.000,2008.000,-680.000,12840.000,-545.000,-10858.000,0.000,0.000,0
2026-01-29 20:58:15,381968,1921.000,8017.000,1279.000,19534.000,-414.000,-8807.000,0.000,0.000,0
2026-01-29 20:58:15,382008,1913.000,6303.000,865.000,19727.000,747.000,-5725.000,0.000,0.000,0
2026-01-29 20:58:15,382048,3512.000,6814.000,962.000,17820.000,1705.000,-4358.000,0.000,0.000,0
2026-01-29 20:58:15,382088,3062.000,10580.000,-3662.000,17239.000,4461.000,-6292.000,0.000,0.000,0
2026-01-29 20:58:15,382128,-332.000,7069.000,-6592.000,9842.000,2450.000,-3766.000,0.000,0.000,0
2026-01-29 20:58:15,382168,-2390.000,7697.000,-5190.000,10119.000,810.000,-4880.000,0.000,0.000,0
2026-01-29 20:58:15,382208,-2677.000,2910.000,-4743.000,1699.000,140.000,-4251.000,0.000,0.000,0
2026-01-29 20:58:15,382248,-3379.000,988.000,-4709.000,-976.000,915.000,-3645.000,0.000,0.000,0
2026-01-29 20:58:15,382288,-3028.000,1892.000,-5539.000,-247.000,-252.000,-2677.000,0.000,0.000,0
2026-01-29 20:58:15,382328,-3729.000,4426.000,-6383.000,1021.000,-747.000,-2671.000,0.000,0.000,0
2026-01-29 20:58:15,382368,-3274.000,4141.000,-6803.000,-580.000,-1780.000,-1345.000,0.000,0.000,0
2026-01-29 20:58:15,382408,-3618.000,4343.000,-8325.000,-905.000,-563.000,-61.000,0.000,0.000,0
2026-01-29 20:58:15,382448,-3204.000,5030.000,-7181.000,-207.000,-910.000,1311.000,0.000,0.000,0
2026-01-29 20:58:15,382488,-2860.000,4439.000,-8391.000,1742.000,73.000,2203.000,0.000,0.000,0
2026-01-29 20:58:15,382528,-2399.000,5995.000,-9663.000,1666.000,968.000,2476.000,0.000,0.000,0
2026-01-29 20:58:15,382568,-3048.000,4560.000,-8173.000,-300.000,606.000,1694.000,0.000,0.000,0
2026-01-29 20:58:15,382608,-3011.000,4171.000,-7930.000,-130.000,850.000,1288.000,0.000,0.000,0
2026-01-29 20:58:15,382648,-2475.000,4274.000,-7327.000,-2198.000,720.000,622.000,0.000,0.000,0
2026-01-29 20:58:15,382688,-1996.000,3593.000,-5659.000,-4110.000,830.000,175.000,0.000,0.000,0
2026-01-29 20:58:15,382728,-1404.000,2937.000,-4218.000,-5180.000,861.000,409.000,0.000,0.000,0
2026-01-29 20:58:16,382768,-1235.000,3003.000,-3676.000,-5939.000,1433.000,788.000,0.000,0.000,0
2026-01-29 20:58:16,382808,-1148.000,2473.000,-3597.000,-6917.000,407.000,930.000,0.000,0.000,0
2026-01-29 20:58:16,382848,-1635.000,1270.000,-6513.000,-4984.000,-47.000,-71.000,0.000,0.000,0
2026-01-29 20:58:16,382888,-1894.000,5857.000,-7416.000,1607.000,371.000,-764.000,0.000,0.000,0
2026-01-29 20:58:16,382928,-1516.000,6637.000,-7395.000,726.000,-166.000,-954.000,0.000,0.000,0
2026-01-29 20:58:16,382968,-1883.000,6303.000,-7648.000,2707.000,189.000,-1060.000,0.000,0.000,0
2026-01-29 20:58:16,383008,-1859.000,8537.000,-7083.000,1784.000,-56.000,-661.000,0.000,0.000,0
2026-01-29 20:58:16,383048,-1374.000,7751.000,-7441.000,247.000,-20.000,-622.000,0.000,0.000,0
2026-01-29 20:58:16,383088,-942.000,7332.000,-5648.000,-987.000,-768.000,-548.000,0.000,0.000,0
2026-01-29 20:58:16,383128,-399.000,5829.000,-6435.000,-1974.000,-414.000,-670.000,0.000,0.000,0
2026-01-29 20:58:16,383168,-877.000,5446.000,-4525.000,367.000,1629.000,-1116.000,0.000,0.000,0
2026-01-29 20:58:16,383208,-1486.000,3258.000,-3372.000,-822.000,1318.000,-881.000,0.000,0.000,0
2026-01-29 20:58:16,383248,-1961.000,2934.000,-3388.000,258.000,1077.000,-1476.000,0.000,0.000,0
2026-01-29 20:58:16,383288,-2800.000,4241.000,-2449.000,39.000,87.000,-1907.000,0.000,0.000,0
2026-01-29 20:58:16,383328,-3186.000,3607.000,-4278.000,-1102.000,-573.000,-1570.000,0.000,0.000,0
2026-01-29 20:58:16,383368,-3866.000,5796.000,-3143.000,77.000,-720.000,-1101.000,0.000,0.000,0
2026-01-29 20:58:16,383408,-3782.000,6664.000,-4743.000,-2380.000,-1472.000,-165.000,0.000,0.000,0
2026-01-29 20:58:16,383448,-3281.000,7688.000,-5855.000,-3483.000,-1697.000,704.000,0.000,0.000,0
2026-01-29 20:58:16,383488,-3216.000,8001.000,-4929.000,-2707.000,-1708.000,936.000,0.000,0.000,0
2026-01-29 20:58:16,383528,-3130.000,10936.000,-5004.000,-4405.000,-2126.000,2192.000,0.000,0.000,0
2026-01-29 20:58:16,383568,-3218.000,11543.000,-5342.000,-7766.000,-1243.000,3759.000,0.000,0.000,0
2026-01-29 20:58:16,383608,-3417.000,11796.000,-4281.000,-12562.000,-1709.000,3890.000,0.000,0.000,0
2026-01-29 20:58:16,383648,-2811.000,8728.000,-3938.000,-18979.000,-755.000,3834.000,0.000,0.000,0
2026-01-29 20:58:16,383688,-910.000,7631.000,-866.000,-18760.000,319.000,1673.000,0.000,0.000,0
2026-01-29 20:58:16,383728,-436.000,6565.000,665.000,-19036.000,738.000,1435.000,0.000,0.000,0
2026-01-29 20:58:17,383768,-748.000,3384.000,878.000,-21403.000,551.000,2141.000,0.000,0.000,0
2026-01-29 20:58:17,383808,-1356.000,-1264.000,953.000,-17686.000,-1181.000,1386.000,0.000,0.000,0
2026-01-29 20:58:17,383848,-1181.000,-1134.000,1012.000,-3592.000,-3422.000,1273.000,0.000,0.000,0
2026-01-29 20:58:17,383888,145.000,-482.000,897.000,3775.000,-5807.000,3138.000,0.000,0.000,0
2026-01-29 20:58:17,383928,3135.000,4109.000,3139.000,6916.000,-7568.000,7566.000,0.000,0.000,0
2026-01-29 20:58:17,383968,6154.000,8493.000,3283.000,1513.000,-10336.000,15753.000,0.000,0.000,0
2026-01-29 20:58:17,384008,5841.000,1810.000,2062.000,-7913.000,-12310.000,19433.000,0.000,0.000,0
2026-01-29 20:58:17,384048,13019.000,111.000,-1372.000,-6572.000,-15743.000,17246.000,0.000,0.000,0
2026-01-29 20:58:17,384088,16319.000,-3121.000,-2828.000,10702.000,-15018.000,14139.000,0.000,0.000,0
2026-01-29 20:58:17,384128,20876.000,2949.000,-5064.000,25261.000,-13726.000,9575.000,0.000,0.000,0
2026-01-29 20:58:17,384168,19096.000,7573.000,-1976.000,27109.000,-8871.000,8268.000,0.000,0.000,0
2026-01-29 20:58:17,384208,10774.000,4881.000,-36.000,13638.000,-3220.000,6467.000,0.000,0.000,0
2026-01-29 20:58:17,384248,5481.000,3680.000,199.000,4374.000,-3452.000,3375.000,0.000,0.000,0
2026-01-29 20:58:17,384288,6335.000,-445.000,-1026.000,3150.000,-2626.000,1095.000,0.000,0.000,0
2026-01-29 20:58:17,384328,5274.000,1087.000,-899.000,10363.000,-607.000,-378.000,0.000,0.000,0
2026-01-29 20:58:17,384368,6412.000,2583.000,-1391.000,13416.000,231.000,444.000,0.000,0.000,0
2026-01-29 20:58:17,384408,7774.000,4454.000,-965.000,11601.000,1557.000,2523.000,0.000,0.000,0
2026-01-29 20:58:17,384448,9450.000,5617.000,548.000,6942.000,1650.000,5217.000,0.000,0.000,0
2026-01-29 20:58:17,384488,9345.000,5860.000,1716.000,1557.000,468.000,5745.000,0.000,0.000,0
2026-01-29 20:58:17,384528,9460.000,5848.000,1999.000,-5037.000,-2122.000,4103.000,0.000,0.000,0
2026-01-29 20:58:17,384568,11971.000,3246.000,197.000,-9050.000,-2759.000,-126.000,0.000,0.000,0
2026-01-29 20:58:17,384608,11412.000,3109.000,925.000,-8003.000,-476.000,-4214.000,0.000,0.000,0
2026-01-29 20:58:17,384648,11605.000,2731.000,116.000,-7137.000,677.000,-6134.000,0.000,0.000,0
2026-01-29 20:58:17,384688,15194.000,2173.000,-1340.000,-6456.000,3913.000,-7448.000,0.000,0.000,0
2026-01-29 20:58:17,384728,13413.000,429.000,-1535.000,-6546.000,6438.000,-9375.000,0.000,0.000,0
2026-01-29 20:58:18,384768,8544.000,2053.000,-1106.000,-7594.000,5827.000,-10030.000,0.000,0.000,0
2026-01-29 20:58:18,384808,7357.000,1385.000,-1130.000,-12916.000,4793.000,-8836.000,0.000,0.000,0
2026-01-29 20:58:18,384848,7346.000,74.000,-1654.000,-11499.000,4546.000,-7262.000,0.000,0.000,0
2026-01-29 20:58:18,384888,6247.000,26.000,-1969.000,-8722.000,5095.000,-6218.000,0.000,0.000,0
2026-01-29 20:58:18,384928,6433.000,-467.000,-1741.000,-6140.000,5405.000,-4975.000,0.000,0.000,0
2026-01-29 20:58:18,384968,6488.000,-599.000,-1812.000,-2269.000,5459.000,-3484.000,0.000,0.000,0
2026-01-29 20:58:18,385008,6866.000,241.000,-1949.000,1964.000,4860.000,-1651.000,0.000,0.000,0
2026-01-29 20:58:18,385048,6385.000,696.000,-1046.000,4363.000,3591.000,829.000,0.000,0.000,0
2026-01-29 20:58:18,385088,8015.000,865.000,-458.000,5745.000,-89.000,3704.000,0.000,0.000,0
2026-01-29 20:58:18,385128,8770.000,1158.000,-394.000,7838.000,-3235.000,6801.000,0.000,0.000,0
2026-01-29 20:58:18,385168,10109.000,1449.000,381.000,8313.000,-6391.000,9379.000,0.000,0.000,0
2026-01-29 20:58:18,385208,12935.000,2524.000,874.000,5880.000,-7720.000,9984.000,0.000,0.000,0
2026-01-29 20:58:18,385248,11994.000,2987.000,1316.000,1745.000,-7016.000,10708.000,0.000,0.000,0
2026-01-29 20:58:18,385288,7834.000,1322.000,2966.000,-372.000,-4312.000,9919.000,0.000,0.000,0
2026-01-29 20:58:18,385328,6799.000,1136.000,5864.000,4642.000,-2927.000,8022.000,0.000,0.000,0
2026-01-29 20:58:18,385368,6996.000,4721.000,4809.000,7483.000,-1983.000,6733.000,0.000,0.000,0
2026-01-29 20:58:18,385408,6251.000,10564.000,7488.000,5391.000,3678.000,4161.000,0.000,0.000,0
2026-01-29 20:58:18,385448,6110.000,7634.000,5447.000,1384.000,3907.000,154.000,0.000,0.000,0
2026-01-29 20:58:18,385488,7828.000,7515.000,5502.000,556.000,4469.000,-3533.000,0.000,0.000,0
2026-01-29 20:58:18,385528,10320.000,7397.000,5028.000,-733.000,4720.000,-4351.000,0.000,0.000,0
2026-01-29 20:58:18,385568,11612.000,5556.000,4064.000,-4799.000,4724.000,-7122.000,0.000,0.000,0
2026-01-29 20:58:18,385608,15333.000,4308.000,2570.000,-3369.000,4042.000,-8618.000,0.000,0.000,0
2026-01-29 20:58:18,385648,13254.000,2990.000,2456.000,-619.000,3377.000,-9065.000,0.000,0.000,0
2026-01-29 20:58:18,385688,12963.000,3584.000,2245.000,-1062.000,673.000,-9690.000,0.000,0.000,0
2026-01-29 20:58:18,385728,12684.000,1254.000,-1603.000,-4404.000,-248.000,-8923.000,0.000,0.000,0
2026-01-29 20:58:19,385768,8932.000,1550.000,-1358.000,-9420.000,3219.000,-8811.000,0.000,0.000,0
2026-01-29 20:58:19,385808,5469.000,-51.000,-49.000,-9623.000,4370.000,-8936.000,0.000,0.000,0
2026-01-29 20:58:19,385848,3652.000,-421.000,454.000,-4557.000,1954.000,-9303.000,0.000,0.000,0
2026-01-29 20:58:19,385888,1930.000,-2634.000,-415.000,-1129.000,1001.000,-7805.000,0.000,0.000,0
2026-01-29 20:58:19,385928,2701.000,-363.000,959.000,2760.000,-635.000,-5881.000,0.000,0.000,0
2026-01-29 20:58:19,385968,3945.000,-102.000,753.000,1364.000,-2457.000,-1853.000,0.000,0.000,0
2026-01-29 20:58:19,386008,5274.000,-124.000,720.000,-179.000,-3485.000,1944.000,0.000,0.000,0
2026-01-29 20:58:19,386048,6802.000,-142.000,736.000,-368.000,-4804.000,5592.000,0.000,0.000,0
2026-01-29 20:58:19,386088,8243.000,-223.000,547.000,1438.000,-6556.000,9247.000,0.000,0.000,0
2026-01-29 20:58:19,386128,12654.000,-859.000,-1104.000,5941.000,-9223.000,13514.000,0.000,0.000,0
2026-01-29 20:58:19,386168,17845.000,588.000,-1255.000,13331.000,-9911.000,16765.000,0.000,0.000,0
2026-01-29 20:58:19,386208,19548.000,3312.000,1927.000,17356.000,-10710.000,19085.000,0.000,0.000,0
2026-01-29 20:58:19,386248,16930.000,3831.000,-2832.000,14464.000,-8783.000,15887.000,0.000,0.000,0
2026-01-29 20:58:19,386288,9285.000,6439.000,-186.000,14513.000,-1295.000,5962.000,0.000,0.000,0
2026-01-29 20:58:19,386328,6399.000,-229.000,321.000,8254.000,-2330.000,-1643.000,0.000,0.000,0
2026-01-29 20:58:19,386368,5557.000,2848.000,-785.000,11711.000,-1854.000,-6683.000,0.000,0.000,0
2026-01-29 20:58:19,386408,4267.000,3105.000,-1393.000,12740.000,-709.000,-4816.000,0.000,0.000,0
2026-01-29 20:58:19,386448,4655.000,3093.000,-1771.000,9683.000,2116.000,-2729.000,0.000,0.000,0
2026-01-29 20:58:19,386488,5075.000,3079.000,-1463.000,4731.000,4138.000,20.000,0.000,0.000,0
2026-01-29 20:58:19,386528,7195.000,3835.000,-506.000,1832.000,4043.000,3274.000,0.000,0.000,0
2026-01-29 20:58:19,386568,9229.000,4626.000,240.000,-321.000,1364.000,6312.000,0.000,0.000,0
2026-01-29 20:58:19,386608,9215.000,4554.000,313.000,-1945.000,-2129.000,5658.000,0.000,0.000,0
2026-01-29 20:58:19,386648,10320.000,3798.000,-1234.000,-4780.000,-4330.000,637.000,0.000,0.000,0
2026-01-29 20:58:19,386688,11142.000,4276.000,817.000,-4618.000,-2925.000,-5644.000,0.000,0.000,0
2026-01-29 20:58:19,386728,12681.000,3960.000,-742.000,-8997.000,-3016.000,-6702.000,0.000,0.000,0
2026-01-29 20:58:20,386768,14721.000,3267.000,-1698.000,-13257.000,-630.000,-6578.000,0.000,0.000,0
2026-01-29 20:58:20,386808,13044.000,1182.000,-2693.000,-17444.000,2552.000,-6455.000,0.000,0.000,0
2026-01-29 20:58:20,386848,9006.000,-36.000,-1470.000,-16472.000,4492.000,-6671.000,0.000,0.000,0
2026-01-29 20:58:20,386888,6706.000,-119.000,-971.000,-11991.000,4135.000,-6955.000,0.000,0.000,0
2026-01-29 20:58:20,386928,5806.000,-44.000,-1109.000,-7190.000,3909.000,-7656.000,0.000,0.000,0
2026-01-29 20:58:20,386968,5819.000,294.000,-1238.000,-4678.000,4086.000,-7262.000,0.000,0.000,0
2026-01-29 20:58:20,387008,5891.000,525.000,-1040.000,-3293.000,4411.000,-6081.000,0.000,0.000,0
2026-01-29 20:58:20,387048,6740.000,755.000,-1342.000,-1756.000,4277.000,-3396.000,0.000,0.000,0
2026-01-29 20:58:20,387088,7850.000,726.000,-2018.000,704.000,3753.000,-377.000,0.000,0.000,0
2026-01-29 20:58:20,387128,7256.000,599.000,-2964.000,4128.000,3718.000,1238.000,0.000,0.000,0
2026-01-29 20:58:20,387168,7875.000,1188.000,-943.000,6867.000,2470.000,1926.000,0.000,0.000,0
2026-01-29 20:58:20,387208,10347.000,1601.000,-365.000,6653.000,-1177.000,3424.000,0.000,0.000,0
2026-01-29 20:58:20,387248,9002.000,2995.000,1939.000,4249.000,-3580.000,5878.000,0.000,0.000,0
2026-01-29 20:58:20,387288,10529.000,2493.000,649.000,-999.000,-6846.000,8439.000,0.000,0.000,0
2026-01-29 20:58:20,387328,10916.000,632.000,-829.000,-3181.000,-6291.000,8319.000,0.000,0.000,0
2026-01-29 20:58:20,387368,8602.000,467.000,621.000,224.000,-4673.000,7218.000,0.000,0.000,0
2026-01-29 20:58:20,387408,6074.000,281.000,879.000,5207.000,-3954.000,5630.000,0.000,0.000,0
2026-01-29 20:58:20,387448,5995.000,874.000,263.000,9871.000,-4418.000,4957.000,0.000,0.000,0
2026-01-29 20:58:20,387488,6025.000,2332.000,-109.000,14077.000,-2691.000,4593.000,0.000,0.000,0
2026-01-29 20:58:20,387528,7601.000,3420.000,-700.000,13048.000,-1351.000,4944.000,0.000,0.000,0
2026-01-29 20:58:20,387568,9188.000,4385.000,-223.000,8727.000,-302.000,5844.000,0.000,0.000,0
2026-01-29 20:58:20,387608,10924.000,4539.000,-165.000,6380.000,-505.000,6167.000,0.000,0.000,0
2026-01-29 20:58:20,387648,9713.000,5878.000,894.000,3339.000,-419.000,2853.000,0.000,0.000,0
2026-01-29 20:58:20,387688,10482.000,3638.000,105.000,-4686.000,-1607.000,-480.000,0.000,0.000,0
2026-01-29 20:58:20,387728,11886.000,3728.000,237.000,-5304.000,-730.000,-2647.000,0.000,0.000,0
2026-01-29 20:58:21,387769,10205.000,3514.000,364.000,-6109.000,319.000,-3660.000,0.000,0.000,0
2026-01-29 20:58:21,387808,13137.000,2893.000,-1364.000,-9078.000,1588.000,-3971.000,0.000,0.000,0
2026-01-29 20:58:21,387848,13905.000,1634.000,-2660.000,-10872.000,4520.000,-4584.000,0.000,0.000,0
2026-01-29 20:58:21,387888,10380.000,619.000,-2212.000,-10391.000,7105.000,-6073.000,0.000,0.000,0
2026-01-29 20:58:21,387928,7835.000,225.000,-1343.000,-9021.000,7127.000,-7321.000,0.000,0.000,0
2026-01-29 20:58:21,387968,6367.000,679.000,-400.000,-6342.000,5620.000,-8647.000,0.000,0.000,0
2026-01-29 20:58:21,388008,6532.000,782.000,-1046.000,-5080.000,4263.000,-8912.000,0.000,0.000,0
2026-01-29 20:58:21,388048,6961.000,980.000,-1350.000,-4586.000,4445.000,-8211.000,0.000,0.000,0
2026-01-29 20:58:21,388088,7152.000,-196.000,-2088.000,-3880.000,4781.000,-6887.000,0.000,0.000,0
2026-01-29 20:58:21,388128,6978.000,-97.000,-2226.000,-513.000,5083.000,-5783.000,0.000,0.000,0
2026-01-29 20:58:21,388168,6821.000,202.000,-2302.000,2070.000,4826.000,-3683.000,0.000,0.000,0
2026-01-29 20:58:21,388208,6333.000,749.000,-947.000,4496.000,3566.000,-998.000,0.000,0.000,0
2026-01-29 20:58:21,388248,7294.000,1447.000,610.000,4766.000,-5.000,2219.000,0.000,0.000,0
2026-01-29 20:58:21,388288,9414.000,1170.000,-446.000,4192.000,-2955.000,6126.000,0.000,0.000,0
2026-01-29 20:58:21,388328,9790.000,1662.000,630.000,4471.000,-4332.000,9314.000,0.000,0.000,0
2026-01-29 20:58:21,388368,11543.000,1167.000,142.000,4340.000,-6207.000,11087.000,0.000,0.000,0
2026-01-29 20:58:21,388408,11970.000,856.000,408.000,5533.000,-6655.000,10342.000,0.000,0.000,0
2026-01-29 20:58:21,388448,9974.000,1332.000,146.000,9878.000,-5527.000,8060.000,0.000,0.000,0
2026-01-29 20:58:21,388488,4731.000,2355.000,1288.000,18236.000,-1574.000,4247.000,0.000,0.000,0
2026-01-29 20:58:21,388528,6620.000,5822.000,-1157.000,16790.000,-2914.000,-95.000,0.000,0.000,0
2026-01-29 20:58:21,388568,5727.000,9490.000,12.000,8129.000,689.000,-2354.000,0.000,0.000,0
2026-01-29 20:58:21,388608,5553.000,7759.000,607.000,2700.000,2013.000,-1679.000,0.000,0.000,0
2026-01-29 20:58:21,388648,6664.000,7306.000,123.000,331.000,563.000,-1596.000,0.000,0.000,0
2026-01-29 20:58:21,388688,7867.000,6855.000,-1319.000,-604.000,331.000,-2579.000,0.000,0.000,0
2026-01-29 20:58:21,388728,8520.000,9123.000,-1291.000,-5291.000,757.000,-3451.000,0.000,0.000,0
2026-01-29 20:58:22,388768,10219.000,6170.000,-2456.000,-9182.000,-1533.000,-4652.000,0.000,0.000,0
2026-01-29 20:58:22,388808,9774.000,7374.000,-2163.000,-6791.000,-2068.000,-6106.000,0.000,0.000,0
2026-01-29 20:58:22,388848,9751.000,7478.000,-2555.000,-7437.000,-3753.000,-5965.000,0.000,0.000,0
2026-01-29 20:58:22,388888,10748.000,6670.000,-3659.000,-9722.000,-3389.000,-5563.000,0.000,0.000,0
2026-01-29 20:58:22,388928,9818.000,6069.000,-3288.000,-11283.000,-2256.000,-4773.000,0.000,0.000,0
2026-01-29 20:58:22,388968,7428.000,4458.000,-3000.000,-12120.000,-2088.000,-4990.000,0.000,0.000,0
2026-01-29 20:58:22,389008,5475.000,2960.000,-2534.000,-10633.000,-1846.000,-5916.000,0.000,0.000,0
2026-01-29 20:58:22,389048,4446.000,2898.000,-1397.000,-9007.000,-2131.000,-6801.000,0.000,0.000,0
2026-01-29 20:58:22,389088,4247.000,1897.000,-1804.000,-8840.000,-2939.000,-6843.000,0.000,0.000,0
2026-01-29 20:58:22,389128,4479.000,2504.000,-1624.000,-6399.000,-2828.000,-5626.000,0.000,0.000,0
2026-01-29 20:58:22,389168,4736.000,1930.000,-277.000,-3411.000,-2561.000,-3718.000,0.000,0.000,0
2026-01-29 20:58:22,389208,4905.000,3843.000,899.000,-1896.000,-4414.000,-1118.000,0.000,0.000,0
2026-01-29 20:58:22,389248,6060.000,4364.000,345.000,-3793.000,-7736.000,2529.000,0.000,0.000,0
2026-01-29 20:58:22,389288,6072.000,2009.000,-180.000,-5023.000,-8784.000,5504.000,0.000,0.000,0
2026-01-29 20:58:22,389328,9855.000,1415.000,252.000,-1890.000,-9941.000,7359.000,0.000,0.000,0
2026-01-29 20:58:22,389368,10937.000,4000.000,690.000,2615.000,-7156.000,6841.000,0.000,0.000,0
2026-01-29 20:58:22,389408,10862.000,3211.000,398.000,6186.000,-5156.000,4013.000,0.000,0.000,0
2026-01-29 20:58:22,389448,10503.000,5522.000,-953.000,11780.000,-1332.000,-997.000,0.000,0.000,0
2026-01-29 20:58:22,389488,7678.000,8656.000,-988.000,10332.000,2616.000,-4700.000,0.000,0.000,0
2026-01-29 20:58:22,389528,3152.000,4523.000,476.000,4564.000,5398.000,-3192.000,0.000,0.000,0
2026-01-29 20:58:22,389568,1632.000,2605.000,1208.000,2692.000,3678.000,-245.000,0.000,0.000,0
2026-01-29 20:58:22,389608,2482.000,2917.000,-19.000,3994.000,-219.000,631.000,0.000,0.000,0
2026-01-29 20:58:22,389648,4729.000,5657.000,582.000,2742.000,-1866.000,462.000,0.000,0.000,0
2026-01-29 20:58:22,389688,7542.000,5294.000,1871.000,-1410.000,-1393.000,845.000,0.000,0.000,0
2026-01-29 20:58:22,389728,8932.000,2947.000,55.000,-1972.000,228.000,-77.000,0.000,0.000,0
2026-01-29 20:58:23,389768,8918.000,4019.000,885.000,683.000,2666.000,-1733.000,0.000,0.000,0
2026-01-29 20:58:23,389808,8551.000,2430.000,-1467.000,2125.000,1802.000,-1039.000,0.000,0.000,0
2026-01-29 20:58:23,389848,8774.000,4321.000,-3398.000,7482.000,347.000,-815.000,0.000,0.000,0
2026-01-29 20:58:23,389888,7653.000,4267.000,-4665.000,6008.000,-614.000,519.000,0.000,0.000,0
2026-01-29 20:58:23,389928,7690.000,2807.000,-5726.000,6578.000,-743.000,1261.000,0.000,0.000,0
2026-01-29 20:58:23,389968,8829.000,5542.000,-6220.000,8090.000,46.000,1449.000,0.000,0.000,0
2026-01-29 20:58:23,390008,6039.000,4472.000,-5974.000,8234.000,637.000,362.000,0.000,0.000,0
2026-01-29 20:58:23,390048,4589.000,5568.000,-3373.000,6898.000,159.000,-511.000,0.000,0.000,0
2026-01-29 20:58:23,390088,3782.000,4787.000,-1844.000,1393.000,-1760.000,285.000,0.000,0.000,0
2026-01-29 20:58:23,390128,4421.000,3306.000,-1750.000,-3098.000,-3292.000,1610.000,0.000,0.000,0
2026-01-29 20:58:23,390168,5644.000,2613.000,-1766.000,-4546.000,-3456.000,2096.000,0.000,0.000,0
2026-01-29 20:58:23,390208,7157.000,1748.000,-1741.000,-3479.000,-2046.000,2375.000,0.000,0.000,0
2026-01-29 20:58:23,390248,7739.000,1988.000,-2066.000,1462.000,134.000,2779.000,0.000,0.000,0
2026-01-29 20:58:23,390288,9631.000,1965.000,-4085.000,2530.000,1136.000,3268.000,0.000,0.000,0
2026-01-29 20:58:23,390328,8277.000,69.000,-4504.000,5257.000,3419.000,673.000,0.000,0.000,0
2026-01-29 20:58:23,390368,10979.000,414.000,-6652.000,9758.000,2957.000,-2294.000,0.000,0.000,0
2026-01-29 20:58:23,390408,7922.000,1132.000,-6906.000,11631.000,5841.000,-3907.000,0.000,0.000,0
2026-01-29 20:58:23,390448,6170.000,828.000,-5668.000,10162.000,3614.000,-3987.000,0.000,0.000,0
2026-01-29 20:58:23,390488,6756.000,-501.000,-4872.000,8478.000,2687.000,-4853.000,0.000,0.000,0
2026-01-29 20:58:23,390528,4188.000,670.000,-4273.000,8887.000,2274.000,-5595.000,0.000,0.000,0
2026-01-29 20:58:23,390568,2301.000,2511.000,-3340.000,8199.000,1430.000,-4046.000,0.000,0.000,0
2026-01-29 20:58:23,390608,2552.000,2334.000,-2589.000,4596.000,707.000,-2084.000,0.000,0.000,0
2026-01-29 20:58:23,390648,2894.000,1431.000,-2278.000,4036.000,594.000,-1307.000,0.000,0.000,0
2026-01-29 20:58:23,390688,3098.000,3543.000,-3729.000,6030.000,342.000,-1394.000,0.000,0.000,0
2026-01-29 20:58:23,390728,4526.000,6466.000,-3722.000,4094.000,218.000,-723.000,0.000,0.000,0
2026-01-29 20:58:24,390768,6856.000,4638.000,-5478.000,3448.000,-880.000,-689.000,0.000,0.000,0
2026-01-29 20:58:24,390808,8257.000,8656.000,-5631.000,4225.000,-737.000,-1736.000,0.000,0.000,0
2026-01-29 20:58:24,390848,9291.000,7444.000,-5621.000,-1502.000,-318.000,154.000,0.000,0.000,0
2026-01-29 20:58:24,390888,11485.000,7355.000,-5127.000,-8000.000,2623.000,2961.000,0.000,0.000,0
2026-01-29 20:58:24,390928,8709.000,5250.000,-2321.000,-15568.000,5466.000,3838.000,0.000,0.000,0
2026-01-29 20:58:24,390968,9551.000,3493.000,-5741.000,-15482.000,369.000,1042.000,0.000,0.000,0
2026-01-29 20:58:24,391008,9963.000,4496.000,-6359.000,-9778.000,1771.000,-1474.000,0.000,0.000,0
2026-01-29 20:58:24,391048,7582.000,5234.000,-4618.000,-7719.000,3419.000,-3019.000,0.000,0.000,0
2026-01-29 20:58:24,391088,6068.000,4161.000,-2606.000,-9358.000,2565.000,-4089.000,0.000,0.000,0
2026-01-29 20:58:24,391128,5979.000,3898.000,-2514.000,-12088.000,873.000,-4937.000,0.000,0.000,0
2026-01-29 20:58:24,391168,5753.000,1841.000,-2776.000,-13197.000,216.000,-6714.000,0.000,0.000,0
2026-01-29 20:58:24,391208,6000.000,2455.000,-2757.000,-11025.000,89.000,-8537.000,0.000,0.000,0
2026-01-29 20:58:24,391248,5925.000,3252.000,-2162.000,-6784.000,-115.000,-8590.000,0.000,0.000,0
2026-01-29 20:58:24,391288,6214.000,5911.000,-1644.000,-2159.000,-926.000,-8472.000,0.000,0.000,0
2026-01-29 20:58:24,391328,6796.000,9795.000,104.000,-2820.000,-746.000,-8064.000,0.000,0.000,0
2026-01-29 20:58:24,391368,5517.000,9565.000,810.000,-2212.000,-426.000,-9420.000,0.000,0.000,0
2026-01-29 20:58:24,391408,2883.000,11073.000,2829.000,-2493.000,-2405.000,-10295.000,0.000,0.000,0
2026-01-29 20:58:24,391448,1168.000,9283.000,1533.000,-3859.000,-5260.000,-9416.000,0.000,0.000,0
2026-01-29 20:58:24,391488,3145.000,5483.000,-633.000,-5766.000,-7204.000,-6546.000,0.000,0.000,0
2026-01-29 20:58:24,391528,3179.000,1735.000,689.000,-4129.000,-6843.000,-3554.000,0.000,0.000,0
2026-01-29 20:58:24,391568,4544.000,1923.000,344.000,-3523.000,-7611.000,985.000,0.000,0.000,0
2026-01-29 20:58:24,391608,4929.000,-495.000,-381.000,-1957.000,-4739.000,4201.000,0.000,0.000,0
2026-01-29 20:58:24,391648,5904.000,4713.000,3076.000,7690.000,-4849.000,3546.000,0.000,0.000,0
2026-01-29 20:58:24,391688,7404.000,9147.000,-1622.000,14991.000,-8639.000,-2622.000,0.000,0.000,0
2026-01-29 20:58:24,391728,2939.000,7276.000,591.000,15256.000,-1619.000,-8276.000,0.000,0.000,0
2026-01-29 20:58:25,391768,320.000,11633.000,4206.000,8316.000,1145.000,-7634.000,0.000,0.000,0
2026-01-29 20:58:25,391808,790.000,3936.000,750.000,1684.000,-1151.000,-5105.000,0.000,0.000,0
2026-01-29 20:58:25,391848,697.000,11531.000,1607.000,7379.000,1446.000,-4825.000,0.000,0.000,0
2026-01-29 20:58:25,391888,-380.000,7527.000,-794.000,671.000,-1522.000,-3684.000,0.000,0.000,0
2026-01-29 20:58:25,391928,-2821.000,9542.000,509.000,8282.000,-1482.000,-1595.000,0.000,0.000,0
2026-01-29 20:58:25,391968,-1696.000,5356.000,-3777.000,10614.000,-3343.000,1470.000,0.000,0.000,0
2026-01-29 20:58:25,392008,-2107.000,10108.000,-8223.000,11023.000,-2473.000,1813.000,0.000,0.000,0
2026-01-29 20:58:25,392048,-2351.000,6691.000,-7157.000,4844.000,-3341.000,2152.000,0.000,0.000,0
2026-01-29 20:58:25,392088,-1492.000,3390.000,-4916.000,3464.000,-3549.000,2283.000,0.000,0.000,0
2026-01-29 20:58:25,392128,302.000,6493.000,-5709.000,5434.000,-2560.000,1806.000,0.000,0.000,0
2026-01-29 20:58:25,392168,-115.000,4277.000,-3526.000,-123.000,-3137.000,2583.000,0.000,0.000,0
2026-01-29 20:58:25,392208,251.000,3143.000,-2456.000,512.000,-344.000,1782.000,0.000,0.000,0
2026-01-29 20:58:25,392248,775.000,4371.000,-288.000,-1182.000,2556.000,1354.000,0.000,0.000,0
2026-01-29 20:58:25,392288,195.000,3826.000,-680.000,-5276.000,8471.000,1883.000,0.000,0.000,0
2026-01-29 20:58:25,392328,32.000,5380.000,74.000,-999.000,13361.000,2750.000,0.000,0.000,0
2026-01-29 20:58:25,392368,3651.000,7879.000,-9500.000,-5819.000,7598.000,3445.000,0.000,0.000,0
2026-01-29 20:58:25,392408,3020.000,8441.000,-7878.000,4973.000,2861.000,3105.000,0.000,0.000,0
2026-01-29 20:58:25,392448,4310.000,8595.000,-5988.000,819.000,2468.000,768.000,0.000,0.000,0
2026-01-29 20:58:25,392488,4786.000,6601.000,-5892.000,180.000,3046.000,1315.000,0.000,0.000,0
2026-01-29 20:58:25,392528,3233.000,3169.000,-1458.000,-1224.000,6017.000,2241.000,0.000,0.000,0
2026-01-29 20:58:25,392568,7330.000,7381.000,-5741.000,2007.000,3096.000,884.000,0.000,0.000,0
2026-01-29 20:58:25,392608,4862.000,5257.000,-5449.000,-1217.000,2685.000,734.000,0.000,0.000,0
2026-01-29 20:58:25,392648,3153.000,3566.000,-743.000,-2882.000,5436.000,1275.000,0.000,0.000,0
2026-01-29 20:58:25,392688,1218.000,292.000,-28.000,-5802.000,7972.000,2530.000,0.000,0.000,0
2026-01-29 20:58:25,392728,4954.000,8443.000,-2474.000,562.000,5140.000,74.000,0.000,0.000,0
2026-01-29 20:58:26,392768,4876.000,9087.000,-3711.000,1156.000,-496.000,-4455.000,0.000,0.000,0
2026-01-29 20:58:26,392808,3575.000,5160.000,-2280.000,-5868.000,-1028.000,-4433.000,0.000,0.000,0
2026-01-29 20:58:26,392848,3361.000,2990.000,-1244.000,-4744.000,1375.000,-4947.000,0.000,0.000,0
2026-01-29 20:58:26,392888,5186.000,7294.000,-2186.000,144.000,2852.000,-4711.000,0.000,0.000,0
2026-01-29 20:58:26,392928,946.000,6191.000,-2535.000,-2065.000,7657.000,-3912.000,0.000,0.000,0
2026-01-29 20:58:26,392968,1322.000,9752.000,-2609.000,7036.000,6559.000,-2113.000,0.000,0.000,0
2026-01-29 20:58:26,393008,875.000,10063.000,-4537.000,8088.000,176.000,-22.000,0.000,0.000,0
2026-01-29 20:58:26,393048,2056.000,9161.000,-5696.000,8912.000,-4346.000,1578.000,0.000,0.000,0
2026-01-29 20:58:26,393088,3945.000,9171.000,-6659.000,10233.000,-8759.000,2962.000,0.000,0.000,0
2026-01-29 20:58:26,393128,3098.000,5358.000,-8698.000,6081.000,-9188.000,2206.000,0.000,0.000,0
2026-01-29 20:58:26,393168,2887.000,3854.000,-5866.000,8013.000,-6341.000,562.000,0.000,0.000,0
2026-01-29 20:58:26,393208,1183.000,4434.000,-4778.000,10509.000,-6642.000,169.000,0.000,0.000,0
2026-01-29 20:58:26,393248,1650.000,4732.000,-3825.000,8150.000,-7028.000,-571.000,0.000,0.000,0
2026-01-29 20:58:26,393288,433.000,3054.000,-4736.000,5207.000,-4878.000,-1317.000,0.000,0.000,0
2026-01-29 20:58:26,393328,874.000,2383.000,-5611.000,4616.000,-4175.000,-774.000,0.000,0.000,0
2026-01-29 20:58:26,393368,1496.000,3439.000,-6222.000,2523.000,-1613.000,-1064.000,0.000,0.000,0
2026-01-29 20:58:26,393408,3095.000,1717.000,-6928.000,-66.000,-324.000,-1699.000,0.000,0.000,0
2026-01-29 20:58:26,393448,1637.000,6780.000,-6473.000,1515.000,4438.000,-1829.000,0.000,0.000,0
2026-01-29 20:58:26,393488,3272.000,4163.000,-7593.000,212.000,4466.000,-1573.000,0.000,0.000,0
2026-01-29 20:58:26,393528,4740.000,8196.000,-5605.000,-3224.000,6101.000,-990.000,0.000,0.000,0
2026-01-29 20:58:26,393568,4784.000,3065.000,-7520.000,-10563.000,7967.000,1722.000,0.000,0.000,0
2026-01-29 20:58:26,393608,6619.000,2755.000,-7295.000,-11549.000,9572.000,4612.000,0.000,0.000,0
2026-01-29 20:58:26,393648,6333.000,864.000,-6762.000,-10712.000,11440.000,7386.000,0.000,0.000,0
2026-01-29 20:58:26,393688,4925.000,2398.000,-4107.000,-8574.000,11863.000,9280.000,0.000,0.000,0
2026-01-29 20:58:26,393728,4381.000,2502.000,-2912.000,-8717.000,9276.000,10789.000,0.000,0.000,0
2026-01-29 20:58:27,393768,4009.000,1177.000,-3016.000,-6503.000,6539.000,12199.000,0.000,0.000,0
2026-01-29 20:58:27,393809,5568.000,610.000,-2377.000,-4326.000,3886.000,11713.000,0.000,0.000,0
2026-01-29 20:58:27,393848,7081.000,-659.000,-4189.000,-1650.000,2018.000,9545.000,0.000,0.000,0
2026-01-29 20:58:27,393888,8897.000,2322.000,-2749.000,2350.000,1025.000,6478.000,0.000,0.000,0
2026-01-29 20:58:27,393928,10290.000,1270.000,-1773.000,5158.000,-894.000,4472.000,0.000,0.000,0
2026-01-29 20:58:27,393968,10517.000,2073.000,-2432.000,7477.000,-2944.000,2348.000,0.000,0.000,0
2026-01-29 20:58:27,394008,12541.000,2797.000,-3868.000,8067.000,-3603.000,1087.000,0.000,0.000,0
2026-01-29 20:58:27,394048,11412.000,3982.000,-1774.000,7258.000,-1442.000,403.000,0.000,0.000,0
2026-01-29 20:58:27,394088,9715.000,4577.000,-2189.000,5718.000,-1081.000,321.000,0.000,0.000,0
2026-01-29 20:58:27,394128,9985.000,4584.000,-2794.000,1203.000,-189.000,385.000,0.000,0.000,0
2026-01-29 20:58:27,394168,8899.000,2911.000,-2097.000,-3499.000,1083.000,-432.000,0.000,0.000,0
2026-01-29 20:58:27,394208,6266.000,2625.000,-67.000,-6017.000,1003.000,-1700.000,0.000,0.000,0
2026-01-29 20:58:27,394248,4396.000,2542.000,317.000,-7893.000,-683.000,-2430.000,0.000,0.000,0
2026-01-29 20:58:27,394288,4883.000,2108.000,-991.000,-9606.000,-1955.000,-2724.000,0.000,0.000,0
2026-01-29 20:58:27,394328,5521.000,1433.000,-2378.000,-11080.000,-1252.000,-2660.000,0.000,0.000,0
2026-01-29 20:58:27,394368,8310.000,150.000,-3536.000,-10874.000,57.000,-1873.000,0.000,0.000,0
2026-01-29 20:58:27,394408,8775.000,340.000,-2982.000,-9541.000,2346.000,-1944.000,0.000,0.000,0
2026-01-29 20:58:27,394448,9395.000,-47.000,-3712.000,-6480.000,2142.000,-1477.000,0.000,0.000,0
2026-01-29 20:58:27,394488,8712.000,-726.000,-2678.000,-3063.000,1885.000,-1492.000,0.000,0.000,0
2026-01-29 20:58:27,394528,9643.000,-781.000,-2197.000,89.000,-129.000,-1265.000,0.000,0.000,0
2026-01-29 20:58:27,394568,9877.000,-236.000,-2147.000,3901.000,-425.000,-775.000,0.000,0.000,0
2026-01-29 20:58:27,394608,8100.000,274.000,-899.000,6163.000,-371.000,-125.000,0.000,0.000,0
2026-01-29 20:58:27,394648,9485.000,417.000,-1036.000,6161.000,-1762.000,-68.000,0.000,0.000,0
2026-01-29 20:58:27,394688,8473.000,26.000,-1128.000,5264.000,-676.000,-130.000,0.000,0.000,0
2026-01-29 20:58:27,394728,5501.000,748.000,-165.000,6215.000,615.000,-198.000,0.000,0.000,0
2026-01-29 20:58:28,394768,3723.000,1381.000,250.000,6261.000,437.000,603.000,0.000,0.000,0
2026-01-29 20:58:28,394808,3862.000,1488.000,-594.000,5944.000,-312.000,1400.000,0.000,0.000,0
2026-01-29 20:58:28,394848,4863.000,1908.000,-734.000,4817.000,-221.000,1919.000,0.000,0.000,0
2026-01-29 20:58:28,394888,6881.000,2153.000,-1136.000,4206.000,-336.000,2396.000,0.000,0.000,0
2026-01-29 20:58:28,394928,8936.000,2846.000,-1392.000,3592.000,76.000,2845.000,0.000,0.000,0
2026-01-29 20:58:28,394968,9906.000,2543.000,-1660.000,3515.000,418.000,2834.000,0.000,0.000,0
2026-01-29 20:58:28,395008,10129.000,2920.000,-1526.000,3600.000,246.000,2347.000,0.000,0.000,0
2026-01-29 20:58:28,395048,11973.000,3313.000,-3135.000,3178.000,-753.000,1975.000,0.000,0.000,0
2026-01-29 20:58:28,395088,10487.000,3721.000,-1879.000,1235.000,1032.000,1374.000,0.000,0.000,0
2026-01-29 20:58:28,395128,9680.000,2903.000,-3043.000,-607.000,33.000,214.000,0.000,0.000,0
2026-01-29 20:58:28,395168,10715.000,2472.000,-3772.000,-3219.000,546.000,-1213.000,0.000,0.000,0
2026-01-29 20:58:28,395208,9262.000,1780.000,-2729.000,-5310.000,1584.000,-2375.000,0.000,0.000,0
2026-01-29 20:58:28,395248,6332.000,1866.000,-696.000,-5911.000,1166.000,-3293.000,0.000,0.000,0
2026-01-29 20:58:28,395288,4533.000,1709.000,-618.000,-6484.000,-839.000,-3856.000,0.000,0.000,0
2026-01-29 20:58:28,395328,4845.000,1601.000,-1481.000,-7350.000,-2139.000,-4193.000,0.000,0.000,0
2026-01-29 20:58:28,395368,5568.000,888.000,-2435.000,-8470.000,-1126.000,-3887.000,0.000,0.000,0
2026-01-29 20:58:28,395408,7368.000,834.000,-2604.000,-7760.000,-58.000,-2749.000,0.000,0.000,0
2026-01-29 20:58:28,395448,8958.000,806.000,-3018.000,-6205.000,1013.000,-1004.000,0.000,0.000,0
2026-01-29 20:58:28,395488,9759.000,1098.000,-3514.000,-4303.000,1902.000,417.000,0.000,0.000,0
2026-01-29 20:58:28,395528,8283.000,-553.000,-2064.000,-1037.000,1656.000,283.000,0.000,0.000,0
2026-01-29 20:58:28,395568,11239.000,67.000,-3173.000,2543.000,-633.000,-257.000,0.000,0.000,0
2026-01-29 20:58:28,395608,8839.000,1315.000,-1089.000,6018.000,140.000,-287.000,0.000,0.000,0
2026-01-29 20:58:28,395648,8798.000,2843.000,-201.000,6063.000,-1177.000,325.000,0.000,0.000,0
2026-01-29 20:58:28,395688,9729.000,2998.000,-956.000,3085.000,-1226.000,504.000,0.000,0.000,0
2026-01-29 20:58:28,395728,6702.000,1129.000,-342.000,304.000,420.000,-82.000,0.000,0.000,0
2026-01-29 20:58:29,395768,4468.000,1194.000,631.000,761.000,366.000,-1017.000,0.000,0.000,0
2026-01-29 20:58:29,395808,3471.000,1105.000,161.000,1123.000,-482.000,-741.000,0.000,0.000,0
2026-01-29 20:58:29,395848,3285.000,647.000,-1198.000,2706.000,-546.000,-56.000,0.000,0.000,0
2026-01-29 20:58:29,395888,4337.000,2122.000,-1151.000,5605.000,2.000,248.000,0.000,0.000,0
2026-01-29 20:58:29,395928,5695.000,2853.000,-1464.000,6545.000,186.000,473.000,0.000,0.000,0
2026-01-29 20:58:29,395968,8388.000,5434.000,-1923.000,7092.000,17.000,567.000,0.000,0.000,0
2026-01-29 20:58:29,396008,9145.000,6135.000,-2094.000,5600.000,814.000,1122.000,0.000,0.000,0
2026-01-29 20:58:29,396048,8404.000,5833.000,-1659.000,3567.000,619.000,1296.000,0.000,0.000,0
2026-01-29 20:58:29,396088,10612.000,4801.000,-3193.000,1289.000,-684.000,1387.000,0.000,0.000,0
2026-01-29 20:58:29,396128,9851.000,5274.000,-2480.000,-152.000,765.000,1788.000,0.000,0.000,0
2026-01-29 20:58:29,396168,10664.000,4072.000,-3458.000,-2671.000,439.000,2476.000,0.000,0.000,0
2026-01-29 20:58:29,396208,10471.000,3772.000,-3466.000,-4879.000,1139.000,2362.000,0.000,0.000,0
2026-01-29 20:58:29,396248,8586.000,2556.000,-2752.000,-7117.000,1306.000,1783.000,0.000,0.000,0
2026-01-29 20:58:29,396288,4640.000,1882.000,-760.000,-8708.000,-539.000,-183.000,0.000,0.000,0
2026-01-29 20:58:29,396328,4174.000,1541.000,-853.000,-8864.000,-2338.000,-1307.000,0.000,0.000,0
2026-01-29 20:58:29,396368,4373.000,1281.000,-1565.000,-8706.000,-2369.000,-1962.000,0.000,0.000,0
2026-01-29 20:58:29,396408,5680.000,1045.000,-2344.000,-8658.000,-1827.000,-1987.000,0.000,0.000,0
2026-01-29 20:58:29,396448,7581.000,358.000,-2717.000,-7840.000,-493.000,-1468.000,0.000,0.000,0
2026-01-29 20:58:29,396488,8706.000,-154.000,-2880.000,-5438.000,1412.000,-833.000,0.000,0.000,0
2026-01-29 20:58:29,396528,9056.000,208.000,-3022.000,-1248.000,2330.000,-257.000,0.000,0.000,0
2026-01-29 20:58:29,396568,8028.000,104.000,-1334.000,2136.000,2106.000,231.000,0.000,0.000,0
2026-01-29 20:58:29,396608,10793.000,710.000,-2554.000,5342.000,-407.000,992.000,0.000,0.000,0
2026-01-29 20:58:29,396648,9541.000,2151.000,-1968.000,7973.000,1031.000,1866.000,0.000,0.000,0
2026-01-29 20:58:29,396688,8940.000,2068.000,-847.000,7864.000,727.000,2236.000,0.000,0.000,0
2026-01-29 20:58:29,396728,9323.000,2103.000,-1446.000,6068.000,325.000,1221.000,0.000,0.000,0
2026-01-29 20:58:30,396768,7358.000,1789.000,-1054.000,4919.000,1411.000,-361.000,0.000,0.000,0
2026-01-29 20:58:30,396808,4370.000,1719.000,649.000,4624.000,1375.000,-1624.000,0.000,0.000,0
2026-01-29 20:58:30,396848,3227.000,2623.000,119.000,5698.000,-184.000,-2209.000,0.000,0.000,0
2026-01-29 20:58:30,396888,4172.000,4012.000,-473.000,4742.000,-1243.000,-2485.000,0.000,0.000,0
2026-01-29 20:58:30,396928,5235.000,6491.000,-774.000,710.000,-694.000,-2702.000,0.000,0.000,0
2026-01-29 20:58:30,396968,5916.000,7094.000,312.000,-3427.000,-249.000,-2547.000,0.000,0.000,0
2026-01-29 20:58:30,397008,7041.000,7877.000,-798.000,-3823.000,-604.000,-3327.000,0.000,0.000,0
2026-01-29 20:58:30,397048,6969.000,9589.000,-1796.000,-2674.000,-1133.000,-4585.000,0.000,0.000,0
2026-01-29 20:58:30,397088,7074.000,9640.000,-1575.000,-3010.000,-2198.000,-4654.000,0.000,0.000,0
2026-01-29 20:58:30,397128,8750.000,9308.000,-3886.000,-4509.000,-4216.000,-4126.000,0.000,0.000,0
2026-01-29 20:58:30,397168,7752.000,8569.000,-4719.000,-5981.000,-4334.000,-3917.000,0.000,0.000,0
2026-01-29 20:58:30,397208,8074.000,7024.000,-6065.000,-5752.000,-5294.000,-4352.000,0.000,0.000,0
2026-01-29 20:58:30,397248,7375.000,5196.000,-5613.000,-5405.000,-5015.000,-4685.000,0.000,0.000,0
2026-01-29 20:58:30,397288,5232.000,2741.000,-4369.000,-3604.000,-4379.000,-5664.000,0.000,0.000,0
2026-01-29 20:58:30,397328,3204.000,793.000,-3044.000,-463.000,-4596.000,-7316.000,0.000,0.000,0
2026-01-29 20:58:30,397368,3242.000,3690.000,-2284.000,4167.000,-5181.000,-7506.000,0.000,0.000,0
2026-01-29 20:58:30,397408,4048.000,4604.000,-1336.000,1711.000,-3875.000,-6271.000,0.000,0.000,0
2026-01-29 20:58:30,397448,3381.000,3111.000,-784.000,2084.000,-2996.000,-5777.000,0.000,0.000,0
2026-01-29 20:58:30,397488,4383.000,6721.000,-822.000,608.000,-3178.000,-5307.000,0.000,0.000,0
2026-01-29 20:58:30,397528,4215.000,5393.000,-2349.000,95.000,-888.000,-4922.000,0.000,0.000,0
2026-01-29 20:58:30,397568,2125.000,11187.000,-1616.000,3673.000,1206.000,-4118.000,0.000,0.000,0
2026-01-29 20:58:30,397608,1943.000,10254.000,-2512.000,-713.000,452.000,-2787.000,0.000,0.000,0
2026-01-29 20:58:30,397648,2428.000,9590.000,-4442.000,-2495.000,1492.000,-1315.000,0.000,0.000,0
2026-01-29 20:58:30,397688,1735.000,9405.000,-2433.000,-1148.000,1670.000,-619.000,0.000,0.000,0
2026-01-29 20:58:30,397728,3642.000,7651.000,-2025.000,-1215.000,573.000,1102.000,0.000,0.000,0
2026-01-29 20:58:31,397768,4250.000,6400.000,-1073.000,-7526.000,2705.000,4729.000,0.000,0.000,0
2026-01-29 20:58:31,397808,2792.000,575.000,-1350.000,-10200.000,5486.000,7659.000,0.000,0.000,0
2026-01-29 20:58:31,397848,2247.000,1410.000,711.000,-5477.000,7068.000,8378.000,0.000,0.000,0
2026-01-29 20:58:31,397888,1792.000,1386.000,538.000,-4045.000,6571.000,9346.000,0.000,0.000,0
2026-01-29 20:58:31,397928,2508.000,774.000,-721.000,-1653.000,5125.000,10880.000,0.000,0.000,0
2026-01-29 20:58:31,397968,4438.000,1407.000,-859.000,920.000,4125.000,13030.000,0.000,0.000,0
2026-01-29 20:58:31,398008,9928.000,6591.000,-1484.000,-2591.000,4113.000,15085.000,0.000,0.000,0
2026-01-29 20:58:31,398048,10947.000,7576.000,801.000,-2862.000,1690.000,19067.000,0.000,0.000,0
2026-01-29 20:58:31,398088,13189.000,946.000,1767.000,6399.000,-5521.000,19743.000,0.000,0.000,0
2026-01-29 20:58:31,398128,13954.000,4127.000,-296.000,12815.000,-8493.000,10453.000,0.000,0.000,0
2026-01-29 20:58:31,398168,14754.000,9733.000,-1370.000,13006.000,-6518.000,7380.000,0.000,0.000,0
2026-01-29 20:58:31,398208,10730.000,5552.000,-851.000,2696.000,-2366.000,5036.000,0.000,0.000,0
2026-01-29 20:58:31,398248,10982.000,2682.000,-1341.000,560.000,322.000,1228.000,0.000,0.000,0
2026-01-29 20:58:31,398288,9340.000,5746.000,-610.000,-1027.000,984.000,-1214.000,0.000,0.000,0
2026-01-29 20:58:31,398328,7458.000,3652.000,-156.000,-5592.000,1390.000,-2680.000,0.000,0.000,0
2026-01-29 20:58:31,398368,5852.000,3147.000,786.000,-9107.000,588.000,-4396.000,0.000,0.000,0
2026-01-29 20:58:31,398408,5876.000,1277.000,261.000,-10633.000,68.000,-5644.000,0.000,0.000,0
2026-01-29 20:58:31,398448,6561.000,1278.000,-138.000,-9883.000,313.000,-6799.000,0.000,0.000,0
2026-01-29 20:58:31,398488,8761.000,196.000,-2429.000,-7430.000,2584.000,-6613.000,0.000,0.000,0
2026-01-29 20:58:31,398528,7911.000,-1490.000,-2739.000,-5280.000,5418.000,-7293.000,0.000,0.000,0
2026-01-29 20:58:31,398568,9592.000,-2894.000,-3894.000,-1954.000,5268.000,-7189.000,0.000,0.000,0
2026-01-29 20:58:31,398608,9314.000,-799.000,-3596.000,1643.000,5891.000,-4133.000,0.000,0.000,0
2026-01-29 20:58:31,398648,7432.000,-847.000,-1927.000,2510.000,4486.000,-1047.000,0.000,0.000,0
2026-01-29 20:58:31,398688,10371.000,496.000,-2941.000,3814.000,1464.000,1724.000,0.000,0.000,0
2026-01-29 20:58:31,398728,8722.000,1704.000,-1579.000,3675.000,1298.000,4318.000,0.000,0.000,0
2026-01-29 20:58:32,398768,8985.000,279.000,-685.000,3364.000,-1179.000,4417.000,0.000,0.000,0
2026-01-29 20:58:32,398808,9826.000,2141.000,-345.000,5476.000,-3561.000,3072.000,0.000,0.000,0
2026-01-29 20:58:32,398848,8019.000,2589.000,578.000,5524.000,-3660.000,4205.000,0.000,0.000,0
2026-01-29 20:58:32,398888,5084.000,1889.000,736.000,4863.000,-2125.000,5110.000,0.000,0.000,0
2026-01-29 20:58:32,398928,4257.000,1421.000,872.000,5489.000,-2142.000,5523.000,0.000,0.000,0
2026-01-29 20:58:32,398968,4950.000,1238.000,451.000,7426.000,-2077.000,5511.000,0.000,0.000,0
2026-01-29 20:58:32,399008,6645.000,1812.000,-622.000,15145.000,-1960.000,4435.000,0.000,0.000,0
2026-01-29 20:58:32,399048,9065.000,4757.000,-2887.000,22206.000,-1508.000,2132.000,0.000,0.000,0
2026-01-29 20:58:32,399088,11489.000,11131.000,-938.000,17128.000,2154.000,784.000,0.000,0.000,0
2026-01-29 20:58:32,399128,8697.000,6165.000,-391.000,1830.000,2362.000,2745.000,0.000,0.000,0
2026-01-29 20:58:32,399168,9659.000,4944.000,-984.000,-1991.000,91.000,444.000,0.000,0.000,0
2026-01-29 20:58:32,399208,11368.000,5600.000,-1065.000,-2972.000,-407.000,-313.000,0.000,0.000,0
2026-01-29 20:58:32,399248,11359.000,5552.000,-1305.000,-7217.000,-302.000,-546.000,0.000,0.000,0
2026-01-29 20:58:32,399288,13170.000,4613.000,-2297.000,-12562.000,534.000,-1357.000,0.000,0.000,0
2026-01-29 20:58:32,399328,13487.000,2587.000,-3303.000,-17317.000,2249.000,-2927.000,0.000,0.000,0
2026-01-29 20:58:32,399368,10715.000,302.000,-2859.000,-18421.000,4561.000,-5429.000,0.000,0.000,0
2026-01-29 20:58:32,399408,7870.000,-5.000,-1701.000,-15849.000,5280.000,-7983.000,0.000,0.000,0
2026-01-29 20:58:32,399448,6130.000,217.000,-1077.000,-11916.000,4787.000,-9074.000,0.000,0.000,0
2026-01-29 20:58:32,399488,6162.000,561.000,-961.000,-8278.000,3800.000,-8809.000,0.000,0.000,0
2026-01-29 20:58:32,399528,6396.000,445.000,-1386.000,-6393.000,3739.000,-7647.000,0.000,0.000,0
2026-01-29 20:58:32,399568,6697.000,75.000,-1971.000,-4613.000,4331.000,-6203.000,0.000,0.000,0
2026-01-29 20:58:32,399608,8237.000,555.000,-2058.000,-2381.000,4845.000,-3580.000,0.000,0.000,0
2026-01-29 20:58:32,399648,8568.000,1663.000,-2167.000,-253.000,5401.000,-562.000,0.000,0.000,0
2026-01-29 20:58:32,399688,7576.000,1531.000,-431.000,-11.000,5584.000,2537.000,0.000,0.000,0
2026-01-29 20:58:32,399728,8709.000,-598.000,-314.000,-4271.000,3180.000,3889.000,0.000,0.000,0
2026-01-29 20:58:33,399768,8856.000,-11.000,1204.000,-3157.000,1643.000,4138.000,0.000,0.000,0
2026-01-29 20:58:33,399808,8182.000,-1915.000,3544.000,-1379.000,-3442.000,4777.000,0.000,0.000,0
2026-01-29 20:58:33,399848,8955.000,-2352.000,1166.000,5905.000,-10315.000,2827.000,0.000,0.000,0
2026-01-29 20:58:33,399888,9137.000,1280.000,283.000,11792.000,-9249.000,3924.000,0.000,0.000,0
2026-01-29 20:58:33,399928,6250.000,887.000,2491.000,9055.000,-7154.000,5955.000,0.000,0.000,0
2026-01-29 20:58:33,399968,5467.000,-146.000,692.000,6883.000,-6013.000,6217.000,0.000,0.000,0
2026-01-29 20:58:33,400008,6328.000,1535.000,1251.000,10600.000,-5736.000,6633.000,0.000,0.000,0
2026-01-29 20:58:33,400048,8557.000,3289.000,240.000,13787.000,-5379.000,6877.000,0.000,0.000,0
2026-01-29 20:58:33,400088,10133.000,4776.000,-252.000,13528.000,-3289.000,5294.000,0.000,0.000,0
2026-01-29 20:58:33,400128,11575.000,6490.000,-140.000,11575.000,-1100.000,4272.000,0.000,0.000,0
2026-01-29 20:58:33,400168,10819.000,7104.000,200.000,6251.000,1014.000,4923.000,0.000,0.000,0
2026-01-29 20:58:33,400208,9447.000,5906.000,604.000,-67.000,1082.000,3845.000,0.000,0.000,0
2026-01-29 20:58:33,400248,11869.000,5121.000,-86.000,-3293.000,-131.000,1449.000,0.000,0.000,0
2026-01-29 20:58:33,400288,10641.000,5134.000,350.000,-5707.000,248.000,-1128.000,0.000,0.000,0
2026-01-29 20:58:33,400328,12421.000,4467.000,-991.000,-8992.000,631.000,-3508.000,0.000,0.000,0
2026-01-29 20:58:33,400368,14364.000,3223.000,-2258.000,-12868.000,2580.000,-4818.000,0.000,0.000,0
2026-01-29 20:58:33,400408,12045.000,792.000,-2045.000,-14638.000,5491.000,-6872.000,0.000,0.000,0
2026-01-29 20:58:33,400448,9120.000,-271.000,-1440.000,-12287.000,5836.000,-9205.000,0.000,0.000,0
2026-01-29 20:58:33,400488,8262.000,499.000,-1213.000,-9867.000,5026.000,-10864.000,0.000,0.000,0
2026-01-29 20:58:33,400528,7452.000,279.000,-1389.000,-9179.000,4794.000,-10551.000,0.000,0.000,0
2026-01-29 20:58:33,400568,6964.000,-9.000,-1766.000,-7349.000,5332.000,-9809.000,0.000,0.000,0
2026-01-29 20:58:33,400608,7200.000,-336.000,-1802.000,-5657.000,5424.000,-7735.000,0.000,0.000,0
2026-01-29 20:58:33,400648,8016.000,-529.000,-1947.000,-3031.000,5932.000,-5181.000,0.000,0.000,0
2026-01-29 20:58:33,400688,7894.000,-859.000,-2152.000,-847.000,6033.000,-2412.000,0.000,0.000,0
2026-01-29 20:58:33,400728,6617.000,-273.000,-1144.000,2603.000,5051.000,-359.000,0.000,0.000,0
2026-01-29 20:58:34,400768,8213.000,617.000,-110.000,4458.000,1185.000,2606.000,0.000,0.000,0
2026-01-29 20:58:34,400808,7514.000,1155.000,613.000,5136.000,-2221.000,5672.000,0.000,0.000,0
2026-01-29 20:58:34,400848,8699.000,1887.000,1689.000,3475.000,-6284.000,8819.000,0.000,0.000,0
2026-01-29 20:58:34,400888,10746.000,877.000,696.000,1518.000,-9319.000,10563.000,0.000,0.000,0
2026-01-29 20:58:34,400928,11292.000,1059.000,-79.000,705.000,-10077.000,10567.000,0.000,0.000,0
2026-01-29 20:58:34,400968,7734.000,378.000,1068.000,-518.000,-7445.000,10341.000,0.000,0.000,0
2026-01-29 20:58:34,401008,5688.000,-709.000,1148.000,3638.000,-8141.000,7773.000,0.000,0.000,0
2026-01-29 20:58:34,401048,8000.000,491.000,-825.000,7765.000,-8272.000,6236.000,0.000,0.000,0
2026-01-29 20:58:34,401088,10040.000,3837.000,372.000,10189.000,-4571.000,5288.000,0.000,0.000,0
2026-01-29 20:58:34,401128,9845.000,8555.000,3698.000,-2410.000,-3781.000,7293.000,0.000,0.000,0
2026-01-29 20:58:34,401168,9785.000,3226.000,2052.000,-16646.000,-7405.000,9171.000,0.000,0.000,0
2026-01-29 20:58:34,401208,10975.000,507.000,1408.000,-15173.000,-7687.000,6035.000,0.000,0.000,0
2026-01-29 20:58:34,401248,10677.000,-1543.000,824.000,-7142.000,-4381.000,2705.000,0.000,0.000,0
2026-01-29 20:58:34,401288,10498.000,-958.000,-68.000,-422.000,-400.000,-535.000,0.000,0.000,0
2026-01-29 20:58:34,401328,13532.000,-29.000,208.000,3348.000,2221.000,-2450.000,0.000,0.000,0
2026-01-29 20:58:34,401368,14014.000,1818.000,-1219.000,4107.000,6227.000,-3731.000,0.000,0.000,0
2026-01-29 20:58:34,401408,15173.000,1242.000,-3551.000,332.000,10767.000,-4935.000,0.000,0.000,0
2026-01-29 20:58:34,401448,15497.000,-1016.000,-4477.000,-1761.000,15834.000,-7375.000,0.000,0.000,0
2026-01-29 20:58:34,401488,11391.000,-164.000,-1973.000,-743.000,17172.000,-9796.000,0.000,0.000,0
2026-01-29 20:58:34,401528,8433.000,1147.000,-891.000,-2485.000,13880.000,-11681.000,0.000,0.000,0
2026-01-29 20:58:34,401568,7922.000,598.000,-784.000,-5939.000,9913.000,-11544.000,0.000,0.000,0
2026-01-29 20:58:34,401608,7606.000,518.000,-1718.000,-6304.000,7621.000,-10373.000,0.000,0.000,0
2026-01-29 20:58:34,401648,6802.000,-24.000,-1331.000,-4728.000,7117.000,-8185.000,0.000,0.000,0
2026-01-29 20:58:34,401688,8341.000,-738.000,-2196.000,-3387.000,6169.000,-5724.000,0.000,0.000,0
2026-01-29 20:58:34,401728,8758.000,-1005.000,-2936.000,240.000,6172.000,-2853.000,0.000,0.000,0
2026-01-29 20:58:35,401768,6901.000,-468.000,-2759.000,5130.000,5688.000,-421.000,0.000,0.000,0
2026-01-29 20:58:35,401808,5583.000,477.000,-1697.000,7355.000,3590.000,876.000,0.000,0.000,0
2026-01-29 20:58:35,401848,6836.000,583.000,-1297.000,6068.000,-632.000,3073.000,0.000,0.000,0
2026-01-29 20:58:35,401888,6263.000,1526.000,365.000,5381.000,-4515.000,6686.000,0.000,0.000,0
2026-01-29 20:58:35,401928,8091.000,1715.000,1911.000,3637.000,-9253.000,10666.000,0.000,0.000,0
2026-01-29 20:58:35,401968,10763.000,1172.000,1685.000,808.000,-13933.000,13475.000,0.000,0.000,0
2026-01-29 20:58:35,402008,14624.000,1534.000,-19.000,-1466.000,-15806.000,14462.000,0.000,0.000,0
2026-01-29 20:58:35,402048,7891.000,-2699.000,141.000,-2684.000,-12971.000,13367.000,0.000,0.000,0
2026-01-29 20:58:35,402088,9472.000,76.000,-209.000,3466.000,-11093.000,6987.000,0.000,0.000,0
2026-01-29 20:58:35,402128,9176.000,-2133.000,1481.000,6436.000,-7072.000,2930.000,0.000,0.000,0
2026-01-29 20:58:35,402168,11853.000,545.000,657.000,10757.000,-5074.000,95.000,0.000,0.000,0
2026-01-29 20:58:35,402208,13399.000,3464.000,1866.000,12144.000,-1590.000,523.000,0.000,0.000,0
2026-01-29 20:58:35,402248,10364.000,6497.000,4846.000,7138.000,642.000,2233.000,0.000,0.000,0
2026-01-29 20:58:35,402288,9328.000,6006.000,2901.000,-2187.000,-1112.000,4088.000,0.000,0.000,0
2026-01-29 20:58:35,402328,10375.000,3105.000,-290.000,-8979.000,-478.000,2910.000,0.000,0.000,0
2026-01-29 20:58:35,402368,12578.000,1159.000,-1658.000,-9054.000,3186.000,382.000,0.000,0.000,0
2026-01-29 20:58:35,402408,11950.000,370.000,-1980.000,-5632.000,7404.000,-2880.000,0.000,0.000,0
2026-01-29 20:58:35,402448,14791.000,380.000,-3403.000,-2496.000,9701.000,-6417.000,0.000,0.000,0
2026-01-29 20:58:35,402488,15017.000,-40.000,-2971.000,116.000,12611.000,-10331.000,0.000,0.000,0
2026-01-29 20:58:35,402528,11627.000,929.000,-1396.000,2052.000,11414.000,-13737.000,0.000,0.000,0
2026-01-29 20:58:35,402568,9954.000,1420.000,-1092.000,863.000,7550.000,-15135.000,0.000,0.000,0
2026-01-29 20:58:35,402608,9057.000,1550.000,-1142.000,-3497.000,4926.000,-15269.000,0.000,0.000,0
2026-01-29 20:58:35,402648,8595.000,1067.000,-1619.000,-8089.000,4092.000,-13990.000,0.000,0.000,0
2026-01-29 20:58:35,402688,7163.000,-1245.000,-1971.000,-9331.000,5018.000,-11754.000,0.000,0.000,0
2026-01-29 20:58:35,402728,6085.000,-5031.000,-2622.000,-5594.000,4848.000,-10507.000,0.000,0.000,0
2026-01-29 20:58:36,402768,5545.000,-3118.000,-1696.000,3712.000,4419.000,-8426.000,0.000,0.000,0
2026-01-29 20:58:36,402808,6466.000,556.000,-1856.000,10364.000,2343.000,-3042.000,0.000,0.000,0
2026-01-29 20:58:36,402848,6252.000,1474.000,-746.000,9630.000,1939.000,3953.000,0.000,0.000,0
2026-01-29 20:58:36,402888,8015.000,3013.000,349.000,4627.000,-1231.000,9529.000,0.000,0.000,0
2026-01-29 20:58:36,402928,10400.000,2674.000,-1176.000,302.000,-4258.000,14521.000,0.000,0.000,0
2026-01-29 20:58:36,402968,12033.000,2089.000,-720.000,174.000,-4929.000,16574.000,0.000,0.000,0
2026-01-29 20:58:36,403008,13257.000,3324.000,89.000,2851.000,-8188.000,13871.000,0.000,0.000,0
2026-01-29 20:58:36,403048,9000.000,2742.000,788.000,3055.000,-5933.000,12145.000,0.000,0.000,0
2026-01-29 20:58:36,403088,7569.000,1539.000,-265.000,3309.000,-5890.000,7495.000,0.000,0.000,0
2026-01-29 20:58:36,403128,7420.000,1526.000,-415.000,4363.000,-4931.000,5251.000,0.000,0.000,0
2026-01-29 20:58:36,403168,7523.000,2483.000,155.000,6708.000,-3263.000,3996.000,0.000,0.000,0
2026-01-29 20:58:36,403208,8558.000,3169.000,387.000,6185.000,-2451.000,4197.000,0.000,0.000,0
2026-01-29 20:58:36,403248,8487.000,3907.000,1534.000,4619.000,-2147.000,5015.000,0.000,0.000,0
2026-01-29 20:58:36,403288,9931.000,4328.000,2234.000,2049.000,-3818.000,5380.000,0.000,0.000,0
2026-01-29 20:58:36,403328,10449.000,5043.000,2410.000,-2101.000,-4170.000,4736.000,0.000,0.000,0
2026-01-29 20:58:36,403368,9837.000,3886.000,1101.000,-6681.000,-2915.000,3113.000,0.000,0.000,0
2026-01-29 20:58:36,403408,11925.000,2251.000,-60.000,-8347.000,-1451.000,704.000,0.000,0.000,0
2026-01-29 20:58:36,403448,11475.000,1461.000,-40.000,-8098.000,2845.000,-1914.000,0.000,0.000,0
2026-01-29 20:58:36,403488,12601.000,881.000,-2307.000,-6104.000,5188.000,-3910.000,0.000,0.000,0
2026-01-29 20:58:36,403528,16097.000,34.000,-4388.000,-4298.000,9616.000,-6683.000,0.000,0.000,0
2026-01-29 20:58:36,403568,13171.000,-205.000,-3130.000,-539.000,13972.000,-9890.000,0.000,0.000,0
2026-01-29 20:58:36,403608,9573.000,670.000,-2012.000,2571.000,11793.000,-11987.000,0.000,0.000,0
2026-01-29 20:58:36,403648,8189.000,1901.000,-972.000,2757.000,8294.000,-12807.000,0.000,0.000,0
2026-01-29 20:58:36,403688,8067.000,2251.000,-743.000,-1224.000,4618.000,-12201.000,0.000,0.000,0
2026-01-29 20:58:36,403728,7828.000,1517.000,-1062.000,-6042.000,2667.000,-10862.000,0.000,0.000,0
2026-01-29 20:58:37,403768,7504.000,498.000,-2266.000,-8158.000,2139.000,-9181.000,0.000,0.000,0
2026-01-29 20:58:37,403808,6906.000,-1153.000,-2363.000,-6012.000,2604.000,-7147.000,0.000,0.000,0
2026-01-29 20:58:37,403848,6281.000,-1982.000,-2061.000,-1185.000,2273.000,-4471.000,0.000,0.000,0
2026-01-29 20:58:37,403888,5221.000,-731.000,-1607.000,2461.000,669.000,-1877.000,0.000,0.000,0
2026-01-29 20:58:37,403928,5141.000,197.000,-2737.000,4195.000,-2345.000,2227.000,0.000,0.000,0
2026-01-29 20:58:37,403968,8794.000,944.000,-1249.000,4727.000,-3756.000,9042.000,0.000,0.000,0
2026-01-29 20:58:37,404008,9281.000,1443.000,-370.000,3124.000,-4597.000,12404.000,0.000,0.000,0
2026-01-29 20:58:37,404048,13191.000,1208.000,-375.000,2828.000,-5846.000,13785.000,0.000,0.000,0
2026-01-29 20:58:37,404088,13418.000,2275.000,1215.000,1447.000,-5656.000,13238.000,0.000,0.000,0
2026-01-29 20:58:37,404128,10281.000,248.000,148.000,-337.000,-5353.000,11859.000,0.000,0.000,0
