datetime_local,uptime_ms,acc_x,acc_y,acc_z,gyro_x,gyro_y,gyro_z,speed_mps,turn_rate_deg_s,gps_valid
2026-01-30 23:08:10,377134,-2477.000,-5617.000,6275.000,-247.000,-257.000,-43.000,0.000,0.000,0
2026-01-30 23:08:10,377174,-2426.000,-5841.000,6081.000,227.000,-371.000,-82.000,0.000,0.000,0
2026-01-30 23:08:10,377214,-2080.000,-5743.000,6002.000,629.000,-364.000,-223.000,0.000,0.000,0
2026-01-30 23:08:10,377254,-2068.000,-5784.000,6275.000,568.000,140.000,-396.000,0.000,0.000,0
2026-01-30 23:08:10,377294,-2143.000,-5766.000,6180.000,431.000,53.000,-272.000,0.000,0.000,0
2026-01-30 23:08:10,377334,-1870.000,-5818.000,6153.000,275.000,-92.000,-173.000,0.000,0.000,0
2026-01-30 23:08:10,377374,-1931.000,-5776.000,6293.000,189.000,52.000,-66.000,0.000,0.000,0
2026-01-30 23:08:10,377414,-1904.000,-5568.000,6202.000,32.000,-125.000,67.000,0.000,0.000,0
2026-01-30 23:08:10,377454,-1867.000,-5374.000,6127.000,-323.000,-180.000,83.000,0.000,0.000,0
2026-01-30 23:08:10,377494,-1979.000,-5515.000,6142.000,-573.000,15.000,299.000,0.000,0.000,0
2026-01-30 23:08:10,377534,-1929.000,-5581.000,5957.000,-187.000,-228.000,332.000,0.000,0.000,0
2026-01-30 23:08:10,377574,-2126.000,-5489.000,6135.000,134.000,-383.000,275.000,0.000,0.000,0
2026-01-30 23:08:10,377614,-2062.000,-5423.000,6190.000,112.000,-100.000,552.000,0.000,0.000,0
2026-01-30 23:08:10,377654,-2436.000,-5529.000,6089.000,142.000,-218.000,480.000,0.000,0.000,0
2026-01-30 23:08:10,377694,-2469.000,-5770.000,6102.000,433.000,-303.000,237.000,0.000,0.000,0
2026-01-30 23:08:10,377734,-2377.000,-5576.000,6065.000,1175.000,-282.000,55.000,0.000,0.000,0
2026-01-30 23:08:10,377774,-2043.000,-5269.000,5899.000,1484.000,-241.000,-83.000,0.000,0.000,0
2026-01-30 23:08:10,377814,-1918.000,-5131.000,5789.000,1732.000,104.000,-122.000,0.000,0.000,0
2026-01-30 23:08:10,377854,-2196.000,-5137.000,5860.000,2307.000,47.000,-122.000,0.000,0.000,0
2026-01-30 23:08:10,377894,-1897.000,-4613.000,6345.000,3629.000,-1026.000,-369.000,0.000,0.000,0
2026-01-30 23:08:10,377934,-888.000,-3232.000,6573.000,3456.000,-1724.000,-138.000,0.000,0.000,0
2026-01-30 23:08:10,377974,-1981.000,-4802.000,7045.000,1731.000,-1122.000,612.000,0.000,0.000,0
2026-01-30 23:08:10,378014,-1247.000,-4522.000,7229.000,1942.000,-1406.000,1162.000,0.000,0.000,0
2026-01-30 23:08:10,378054,-1469.000,-3611.000,7687.000,1826.000,-926.000,1631.000,0.000,0.000,0
2026-01-30 23:08:10,378094,-1325.000,-3453.000,7754.000,1623.000,-824.000,1825.000,0.000,0.000,0
2026-01-30 23:08:11,378134,-1292.000,-3379.000,7855.000,1888.000,-721.000,1920.000,0.000,0.000,0
2026-01-30 23:08:11,378174,-1389.000,-3168.000,7939.000,2136.000,-441.000,1949.000,0.000,0.000,0
2026-01-30 23:08:11,378214,-1936.000,-2628.000,8201.000,2194.000,-183.000,1869.000,0.000,0.000,0
2026-01-30 23:08:11,378254,-1978.000,-2014.000,8325.000,1923.000,15.000,1717.000,0.000,0.000,0
2026-01-30 23:08:11,378294,-2226.000,-1693.000,8407.000,1373.000,486.000,1549.000,0.000,0.000,0
2026-01-30 23:08:11,378334,-2193.000,-1337.000,8682.000,1124.000,684.000,1385.000,0.000,0.000,0
2026-01-30 23:08:11,378374,-2451.000,-1529.000,8614.000,1125.000,1111.000,878.000,0.000,0.000,0
2026-01-30 23:08:11,378414,-2013.000,-1012.000,8566.000,1600.000,1071.000,-62.000,0.000,0.000,0
2026-01-30 23:08:11,378454,-1592.000,-866.000,8344.000,1210.000,891.000,-662.000,0.000,0.000,0
2026-01-30 23:08:11,378494,-1242.000,-1035.000,8148.000,829.000,656.000,-976.000,0.000,0.000,0
2026-01-30 23:08:11,378534,-1392.000,-1000.000,7890.000,785.000,465.000,-853.000,0.000,0.000,0
2026-01-30 23:08:11,378574,-1694.000,-948.000,8006.000,750.000,193.000,-645.000,0.000,0.000,0
2026-01-30 23:08:11,378614,-1529.000,-1145.000,8370.000,926.000,-178.000,-569.000,0.000,0.000,0
2026-01-30 23:08:11,378654,-1454.000,-611.000,8481.000,953.000,-188.000,-369.000,0.000,0.000,0
2026-01-30 23:08:11,378694,-1731.000,-836.000,8453.000,311.000,62.000,72.000,0.000,0.000,0
2026-01-30 23:08:11,378734,-2110.000,-358.000,8274.000,263.000,218.000,510.000,0.000,0.000,0
2026-01-30 23:08:11,378774,-2347.000,-203.000,8110.000,-104.000,231.000,644.000,0.000,0.000,0
2026-01-30 23:08:11,378814,-1701.000,-322.000,8201.000,-355.000,0.000,300.000,0.000,0.000,0
2026-01-30 23:08:11,378856,-1460.000,-251.000,8120.000,82.000,105.000,115.000,0.000,0.000,0
2026-01-30 23:08:11,378895,-2148.000,-644.000,7966.000,318.000,215.000,-164.000,0.000,0.000,0
2026-01-30 23:08:11,378934,-2174.000,-606.000,8191.000,511.000,-272.000,-374.000,0.000,0.000,0
2026-01-30 23:08:11,378974,-1976.000,-678.000,8347.000,46.000,-554.000,-550.000,0.000,0.000,0
2026-01-30 23:08:11,379014,-1882.000,-1133.000,8466.000,-478.000,-507.000,-483.000,0.000,0.000,0
2026-01-30 23:08:11,379054,-1789.000,-1359.000,8358.000,-395.000,-367.000,-213.000,0.000,0.000,0
2026-01-30 23:08:11,379094,-1850.000,-1377.000,8399.000,-337.000,-99.000,11.000,0.000,0.000,0
2026-01-30 23:08:12,379135,-1953.000,-1419.000,8147.000,-178.000,24.000,105.000,0.000,0.000,0
2026-01-30 23:08:12,379174,-1923.000,-1223.000,8186.000,-243.000,-78.000,92.000,0.000,0.000,0
2026-01-30 23:08:12,379214,-1889.000,-1152.000,8037.000,113.000,-149.000,-39.000,0.000,0.000,0
2026-01-30 23:08:12,379254,-1839.000,-1089.000,8087.000,180.000,-259.000,-82.000,0.000,0.000,0
2026-01-30 23:08:12,379294,-1508.000,-705.000,8464.000,471.000,-337.000,-153.000,0.000,0.000,0
2026-01-30 23:08:12,379334,-1367.000,-433.000,8240.000,512.000,-245.000,-271.000,0.000,0.000,0
2026-01-30 23:08:12,379374,-1213.000,-766.000,8057.000,-109.000,-139.000,-306.000,0.000,0.000,0
2026-01-30 23:08:12,379414,-1177.000,-727.000,8097.000,261.000,-206.000,-158.000,0.000,0.000,0
2026-01-30 23:08:12,379454,-1297.000,-478.000,8169.000,332.000,-206.000,29.000,0.000,0.000,0
2026-01-30 23:08:12,379494,-1644.000,-487.000,8274.000,167.000,-163.000,195.000,0.000,0.000,0
2026-01-30 23:08:12,379534,-1656.000,-266.000,8273.000,182.000,-245.000,394.000,0.000,0.000,0
2026-01-30 23:08:12,379574,-1525.000,-286.000,8319.000,-91.000,-304.000,346.000,0.000,0.000,0
2026-01-30 23:08:12,379614,-1354.000,-305.000,8191.000,-73.000,-468.000,41.000,0.000,0.000,0
2026-01-30 23:08:12,379654,-1256.000,-253.000,8261.000,48.000,-553.000,-234.000,0.000,0.000,0
2026-01-30 23:08:12,379694,-1081.000,-244.000,8429.000,127.000,-562.000,-382.000,0.000,0.000,0
2026-01-30 23:08:12,379734,-839.000,-287.000,8538.000,52.000,-458.000,-416.000,0.000,0.000,0
2026-01-30 23:08:12,379774,-755.000,-418.000,8599.000,105.000,-289.000,-374.000,0.000,0.000,0
2026-01-30 23:08:12,379814,-615.000,-292.000,8604.000,219.000,-193.000,-260.000,0.000,0.000,0
2026-01-30 23:08:12,379854,-522.000,-216.000,8474.000,124.000,-80.000,-165.000,0.000,0.000,0
2026-01-30 23:08:12,379894,-720.000,-311.000,8266.000,-79.000,39.000,-106.000,0.000,0.000,0
2026-01-30 23:08:12,379934,-695.000,-94.000,8205.000,69.000,-73.000,45.000,0.000,0.000,0
2026-01-30 23:08:12,379974,-792.000,-202.000,8088.000,-25.000,-85.000,181.000,0.000,0.000,0
2026-01-30 23:08:12,380014,-1058.000,-206.000,8294.000,221.000,-122.000,169.000,0.000,0.000,0
2026-01-30 23:08:12,380054,-981.000,-77.000,8522.000,379.000,-254.000,173.000,0.000,0.000,0
2026-01-30 23:08:12,380094,-992.000,-144.000,8539.000,245.000,-214.000,105.000,0.000,0.000,0
2026-01-30 23:08:13,380134,-1025.000,-433.000,8691.000,39.000,-184.000,27.000,0.000,0.000,0
2026-01-30 23:08:13,380174,-955.000,-321.000,8481.000,231.000,-152.000,-60.000,0.000,0.000,0
2026-01-30 23:08:13,380214,-1078.000,-326.000,8344.000,56.000,-95.000,-110.000,0.000,0.000,0
2026-01-30 23:08:13,380254,-951.000,-157.000,8597.000,42.000,-202.000,-38.000,0.000,0.000,0
2026-01-30 23:08:13,380294,-970.000,-35.000,8296.000,-237.000,-206.000,-120.000,0.000,0.000,0
2026-01-30 23:08:13,380334,-945.000,-368.000,8323.000,-58.000,-236.000,-393.000,0.000,0.000,0
2026-01-30 23:08:13,380374,-892.000,-361.000,8309.000,209.000,-303.000,-507.000,0.000,0.000,0
2026-01-30 23:08:13,380414,-861.000,-341.000,8606.000,82.000,-359.000,-450.000,0.000,0.000,0
2026-01-30 23:08:13,380454,-956.000,-408.000,8527.000,-56.000,-345.000,-439.000,0.000,0.000,0
2026-01-30 23:08:13,380494,-830.000,-357.000,8440.000,-236.000,-346.000,-582.000,0.000,0.000,0
2026-01-30 23:08:13,380534,-845.000,-513.000,8423.000,-243.000,-155.000,-689.000,0.000,0.000,0
2026-01-30 23:08:13,380574,-739.000,-766.000,8594.000,377.000,-4.000,-736.000,0.000,0.000,0
2026-01-30 23:08:13,380614,-760.000,-262.000,8438.000,1177.000,74.000,-855.000,0.000,0.000,0
2026-01-30 23:08:13,380654,-866.000,-380.000,8461.000,1179.000,233.000,-1036.000,0.000,0.000,0
2026-01-30 23:08:13,380694,-911.000,-461.000,8343.000,1804.000,365.000,-1114.000,0.000,0.000,0
2026-01-30 23:08:13,380734,-845.000,168.000,8349.000,2849.000,195.000,-1137.000,0.000,0.000,0
2026-01-30 23:08:13,380774,-895.000,752.000,8540.000,2816.000,117.000,-1147.000,0.000,0.000,0
2026-01-30 23:08:13,380814,-849.000,1143.000,8357.000,1968.000,-110.000,-1091.000,0.000,0.000,0
2026-01-30 23:08:13,380854,-764.000,1093.000,8421.000,958.000,-249.000,-1055.000,0.000,0.000,0
2026-01-30 23:08:13,380894,-457.000,680.000,8484.000,885.000,-226.000,-998.000,0.000,0.000,0
2026-01-30 23:08:13,380934,-362.000,634.000,8507.000,2192.000,286.000,-1077.000,0.000,0.000,0
2026-01-30 23:08:13,380974,-517.000,683.000,8112.000,3787.000,1143.000,-1102.000,0.000,0.000,0
2026-01-30 23:08:13,381014,-780.000,1711.000,7835.000,6284.000,1920.000,-1121.000,0.000,0.000,0
2026-01-30 23:08:13,381054,-829.000,2054.000,7446.000,7474.000,2516.000,-1014.000,0.000,0.000,0
2026-01-30 23:08:13,381094,-1062.000,4284.000,6818.000,9402.000,2726.000,-1007.000,0.000,0.000,0
2026-01-30 23:08:14,381136,-1529.000,5491.000,6652.000,8817.000,2713.000,-938.000,0.000,0.000,0
2026-01-30 23:08:14,381174,-1831.000,5071.000,6317.000,9718.000,2885.000,-892.000,0.000,0.000,0
2026-01-30 23:08:14,381214,-2507.000,6514.000,5091.000,10355.000,2747.000,-1474.000,0.000,0.000,0
2026-01-30 23:08:14,381254,-2771.000,7091.000,4402.000,9588.000,2918.000,-1707.000,0.000,0.000,0
2026-01-30 23:08:14,381294,-2671.000,7610.000,4431.000,8096.000,3029.000,-1861.000,0.000,0.000,0
2026-01-30 23:08:14,381334,-2634.000,7171.000,3589.000,6036.000,3047.000,-1775.000,0.000,0.000,0
2026-01-30 23:08:14,381374,-2575.000,7254.000,3154.000,4201.000,2795.000,-1327.000,0.000,0.000,0
2026-01-30 23:08:14,381414,-2933.000,5465.000,2262.000,3492.000,3111.000,-211.000,0.000,0.000,0
2026-01-30 23:08:14,381454,-3416.000,7235.000,1458.000,3502.000,3203.000,331.000,0.000,0.000,0
2026-01-30 23:08:14,381494,-3856.000,4233.000,532.000,-239.000,3261.000,993.000,0.000,0.000,0
2026-01-30 23:08:14,381534,-3475.000,9594.000,625.000,7706.000,2588.000,-25.000,0.000,0.000,0
2026-01-30 23:08:14,381574,-3910.000,6801.000,1433.000,-3085.000,2437.000,1336.000,0.000,0.000,0
2026-01-30 23:08:14,381614,-3475.000,6474.000,67.000,2362.000,1667.000,1105.000,0.000,0.000,0
2026-01-30 23:08:14,381654,-3675.000,7566.000,-1382.000,3327.000,948.000,1320.000,0.000,0.000,0
2026-01-30 23:08:14,381694,-2945.000,8832.000,-453.000,4865.000,212.000,1085.000,0.000,0.000,0
2026-01-30 23:08:14,381734,-3107.000,10211.000,-298.000,2283.000,475.000,1222.000,0.000,0.000,0
2026-01-30 23:08:14,381774,-2422.000,8969.000,72.000,-2747.000,151.000,999.000,0.000,0.000,0
2026-01-30 23:08:14,381814,-2553.000,7477.000,-667.000,-4299.000,432.000,769.000,0.000,0.000,0
2026-01-30 23:08:14,381854,-2500.000,8372.000,-1648.000,-566.000,420.000,628.000,0.000,0.000,0
2026-01-30 23:08:14,381894,-2025.000,8013.000,-809.000,-1756.000,-329.000,312.000,0.000,0.000,0
2026-01-30 23:08:14,381934,-2097.000,8570.000,-789.000,-2146.000,-58.000,-98.000,0.000,0.000,0
2026-01-30 23:08:14,381974,-2417.000,8125.000,-1433.000,-2203.000,-28.000,-887.000,0.000,0.000,0
2026-01-30 23:08:14,382014,-2441.000,10505.000,-1423.000,-8249.000,36.000,-1720.000,0.000,0.000,0
2026-01-30 23:08:14,382054,-1852.000,7632.000,2432.000,-14136.000,1637.000,-2372.000,0.000,0.000,0
2026-01-30 23:08:14,382094,-3930.000,9107.000,3252.000,-18799.000,-324.000,-3603.000,0.000,0.000,0
2026-01-30 23:08:15,382134,-4408.000,7594.000,3033.000,-21156.000,-4135.000,-5037.000,0.000,0.000,0
2026-01-30 23:08:15,382174,-4017.000,5754.000,5278.000,-17450.000,-6450.000,-6163.000,0.000,0.000,0
2026-01-30 23:08:15,382214,-3601.000,3481.000,5199.000,-14959.000,-7245.000,-5503.000,0.000,0.000,0
2026-01-30 23:08:15,382254,-1875.000,-31.000,3098.000,-12903.000,-7401.000,-6035.000,0.000,0.000,0
2026-01-30 23:08:15,382294,517.000,-2735.000,4881.000,-10139.000,-7591.000,-5007.000,0.000,0.000,0
2026-01-30 23:08:15,382334,1482.000,-3196.000,7082.000,-6184.000,-5840.000,-3539.000,0.000,0.000,0
2026-01-30 23:08:15,382374,1283.000,-2302.000,9218.000,-1920.000,-5161.000,-2130.000,0.000,0.000,0
2026-01-30 23:08:15,382414,3508.000,-1167.000,8568.000,-2422.000,-4980.000,-910.000,0.000,0.000,0
2026-01-30 23:08:15,382454,2336.000,-2148.000,8272.000,-3291.000,-2466.000,-459.000,0.000,0.000,0
2026-01-30 23:08:15,382494,1100.000,-2950.000,9318.000,-17.000,-1395.000,-1057.000,0.000,0.000,0
2026-01-30 23:08:15,382534,1071.000,-2574.000,7957.000,1840.000,-2299.000,-560.000,0.000,0.000,0
2026-01-30 23:08:15,382574,1657.000,-2120.000,7637.000,2449.000,-2573.000,147.000,0.000,0.000,0
2026-01-30 23:08:15,382614,1661.000,-275.000,8043.000,3287.000,-2673.000,-74.000,0.000,0.000,0
2026-01-30 23:08:15,382654,2906.000,-2978.000,11276.000,1819.000,-828.000,567.000,0.000,0.000,0
2026-01-30 23:08:15,382694,1369.000,-749.000,10278.000,2383.000,743.000,515.000,0.000,0.000,0
2026-01-30 23:08:15,382734,1108.000,-9.000,7478.000,516.000,593.000,330.000,0.000,0.000,0
2026-01-30 23:08:15,382774,1219.000,-1574.000,7270.000,240.000,-37.000,-250.000,0.000,0.000,0
2026-01-30 23:08:15,382814,1080.000,-1388.000,7119.000,1554.000,-317.000,-78.000,0.000,0.000,0
2026-01-30 23:08:15,382856,1979.000,-1190.000,8013.000,1562.000,-307.000,258.000,0.000,0.000,0
2026-01-30 23:08:15,382898,1718.000,11.000,9449.000,1873.000,489.000,271.000,0.000,0.000,0
2026-01-30 23:08:15,382934,1331.000,1440.000,9701.000,1866.000,686.000,72.000,0.000,0.000,0
2026-01-30 23:08:15,382974,1074.000,128.000,8029.000,421.000,620.000,-226.000,0.000,0.000,0
2026-01-30 23:08:15,383014,1571.000,-140.000,8554.000,793.000,244.000,-528.000,0.000,0.000,0
2026-01-30 23:08:15,383054,1525.000,138.000,8281.000,394.000,-129.000,-217.000,0.000,0.000,0
2026-01-30 23:08:15,383094,1234.000,-152.000,8093.000,289.000,-79.000,-130.000,0.000,0.000,0
2026-01-30 23:08:16,383136,1248.000,55.000,7983.000,548.000,130.000,-54.000,0.000,0.000,0
2026-01-30 23:08:16,383174,1338.000,224.000,7880.000,258.000,154.000,208.000,0.000,0.000,0
2026-01-30 23:08:16,383214,1359.000,496.000,8469.000,314.000,128.000,261.000,0.000,0.000,0
2026-01-30 23:08:16,383254,957.000,495.000,8769.000,109.000,168.000,157.000,0.000,0.000,0
2026-01-30 23:08:16,383294,862.000,-289.000,7597.000,-105.000,-114.000,393.000,0.000,0.000,0
2026-01-30 23:08:16,383334,1009.000,-1073.000,8035.000,-386.000,-292.000,409.000,0.000,0.000,0
2026-01-30 23:08:16,383374,1040.000,-1077.000,8656.000,-174.000,-164.000,440.000,0.000,0.000,0
2026-01-30 23:08:16,383414,835.000,-755.000,8448.000,-321.000,-88.000,384.000,0.000,0.000,0
2026-01-30 23:08:16,383454,918.000,-836.000,8538.000,-235.000,-151.000,239.000,0.000,0.000,0
2026-01-30 23:08:16,383494,880.000,-913.000,8583.000,-112.000,-136.000,219.000,0.000,0.000,0
2026-01-30 23:08:16,383534,1279.000,-783.000,8293.000,95.000,-196.000,190.000,0.000,0.000,0
2026-01-30 23:08:16,383574,1385.000,-971.000,8207.000,53.000,-179.000,-36.000,0.000,0.000,0
2026-01-30 23:08:16,383614,1276.000,-1181.000,8435.000,-128.000,-52.000,-114.000,0.000,0.000,0
2026-01-30 23:08:16,383654,1421.000,-966.000,8973.000,79.000,225.000,-88.000,0.000,0.000,0
2026-01-30 23:08:16,383694,1344.000,-410.000,8874.000,274.000,501.000,-87.000,0.000,0.000,0
2026-01-30 23:08:16,383734,987.000,-169.000,8075.000,97.000,358.000,-49.000,0.000,0.000,0
2026-01-30 23:08:16,383774,891.000,-663.000,7632.000,-82.000,-12.000,18.000,0.000,0.000,0
2026-01-30 23:08:16,383814,938.000,-1085.000,8120.000,-121.000,-14.000,141.000,0.000,0.000,0
2026-01-30 23:08:16,383854,855.000,-778.000,8377.000,104.000,187.000,210.000,0.000,0.000,0
2026-01-30 23:08:16,383894,854.000,-535.000,8461.000,-17.000,252.000,167.000,0.000,0.000,0
2026-01-30 23:08:16,383934,806.000,-876.000,8439.000,-105.000,110.000,199.000,0.000,0.000,0
2026-01-30 23:08:16,383974,879.000,-1068.000,8393.000,-82.000,-38.000,204.000,0.000,0.000,0
2026-01-30 23:08:16,384014,832.000,-1275.000,8310.000,-170.000,-82.000,145.000,0.000,0.000,0
2026-01-30 23:08:16,384054,782.000,-1203.000,8084.000,-151.000,-183.000,58.000,0.000,0.000,0
2026-01-30 23:08:16,384094,786.000,-1380.000,8153.000,-166.000,-214.000,67.000,0.000,0.000,0
2026-01-30 23:08:17,384134,833.000,-1580.000,8335.000,-211.000,-45.000,203.000,0.000,0.000,0
2026-01-30 23:08:17,384174,624.000,-1701.000,8626.000,-60.000,184.000,299.000,0.000,0.000,0
2026-01-30 23:08:17,384214,488.000,-1574.000,8378.000,-131.000,2.000,356.000,0.000,0.000,0
2026-01-30 23:08:17,384254,826.000,-2035.000,8291.000,-355.000,-328.000,284.000,0.000,0.000,0
2026-01-30 23:08:17,384294,905.000,-2245.000,8429.000,-318.000,-344.000,169.000,0.000,0.000,0
2026-01-30 23:08:17,384334,881.000,-2226.000,8306.000,-178.000,-194.000,80.000,0.000,0.000,0
2026-01-30 23:08:17,384374,1020.000,-2227.000,8213.000,-105.000,-217.000,88.000,0.000,0.000,0
2026-01-30 23:08:17,384414,882.000,-2077.000,8386.000,-34.000,-109.000,98.000,0.000,0.000,0
2026-01-30 23:08:17,384454,633.000,-2055.000,8371.000,-129.000,-75.000,117.000,0.000,0.000,0
2026-01-30 23:08:17,384494,473.000,-2029.000,8600.000,-208.000,-161.000,9.000,0.000,0.000,0
2026-01-30 23:08:17,384534,621.000,-1520.000,8162.000,-224.000,-226.000,-161.000,0.000,0.000,0
2026-01-30 23:08:17,384574,1177.000,-1454.000,8840.000,-511.000,-218.000,-261.000,0.000,0.000,0
2026-01-30 23:08:17,384614,1294.000,-1527.000,9906.000,-735.000,142.000,-285.000,0.000,0.000,0
2026-01-30 23:08:17,384654,1030.000,-1098.000,10848.000,-1530.000,849.000,-349.000,0.000,0.000,0
2026-01-30 23:08:17,384694,2336.000,-2593.000,11431.000,-4241.000,1542.000,-381.000,0.000,0.000,0
2026-01-30 23:08:17,384734,698.000,-2958.000,11374.000,-1246.000,4846.000,-667.000,0.000,0.000,0
2026-01-30 23:08:17,384774,-291.000,-73.000,11313.000,-141.000,6920.000,-2020.000,0.000,0.000,0
2026-01-30 23:08:17,384814,-2751.000,-1783.000,9392.000,-2006.000,9331.000,-2857.000,0.000,0.000,0
2026-01-30 23:08:17,384854,-4153.000,-1630.000,7925.000,3191.000,9509.000,-4786.000,0.000,0.000,0
2026-01-30 23:08:17,384896,-4806.000,1659.000,7179.000,6214.000,8706.000,-7261.000,0.000,0.000,0
2026-01-30 23:08:17,384935,-4245.000,-603.000,5143.000,1207.000,4601.000,-6866.000,0.000,0.000,0
2026-01-30 23:08:17,384974,-4822.000,-642.000,5222.000,-31.000,2499.000,-6650.000,0.000,0.000,0
2026-01-30 23:08:17,385014,-2705.000,-2176.000,5974.000,-1699.000,-203.000,-4894.000,0.000,0.000,0
2026-01-30 23:08:17,385054,-3055.000,-4997.000,3951.000,1193.000,-1103.000,-4242.000,0.000,0.000,0
2026-01-30 23:08:17,385094,-1262.000,-2895.000,6483.000,6921.000,-2734.000,-3154.000,0.000,0.000,0
2026-01-30 23:08:18,385136,-311.000,-2806.000,5845.000,6098.000,-3507.000,-1224.000,0.000,0.000,0
2026-01-30 23:08:18,385174,-83.000,-3160.000,5997.000,4796.000,-4066.000,-739.000,0.000,0.000,0
2026-01-30 23:08:18,385214,837.000,-666.000,7157.000,3624.000,-4029.000,-562.000,0.000,0.000,0
2026-01-30 23:08:18,385254,-310.000,-120.000,11017.000,2241.000,-3214.000,-372.000,0.000,0.000,0
2026-01-30 23:08:18,385294,277.000,235.000,9282.000,338.000,-4220.000,-69.000,0.000,0.000,0
2026-01-30 23:08:18,385334,1001.000,41.000,5683.000,-1895.000,-5393.000,-260.000,0.000,0.000,0
2026-01-30 23:08:18,385374,3002.000,-107.000,3975.000,-2813.000,-6248.000,-307.000,0.000,0.000,0
2026-01-30 23:08:18,385414,3609.000,-1177.000,4312.000,-3542.000,-5890.000,113.000,0.000,0.000,0
2026-01-30 23:08:18,385454,4486.000,-1044.000,5004.000,-6263.000,-5861.000,-24.000,0.000,0.000,0
2026-01-30 23:08:18,385494,1722.000,-2317.000,2793.000,-8270.000,-4052.000,-588.000,0.000,0.000,0
2026-01-30 23:08:18,385534,-2268.000,-19697.000,28639.000,2313.000,29.000,-621.000,0.000,0.000,0
2026-01-30 23:08:18,385574,2407.000,-1815.000,9306.000,7581.000,-397.000,-209.000,0.000,0.000,0
2026-01-30 23:08:18,385614,2846.000,-176.000,7131.000,-916.000,569.000,3514.000,0.000,0.000,0
2026-01-30 23:08:18,385654,2441.000,-3603.000,7383.000,-3532.000,2537.000,2066.000,0.000,0.000,0
2026-01-30 23:08:18,385694,3443.000,2495.000,9259.000,3842.000,299.000,-1526.000,0.000,0.000,0
2026-01-30 23:08:18,385734,3985.000,-1536.000,8055.000,-1091.000,1884.000,-693.000,0.000,0.000,0
2026-01-30 23:08:18,385774,2925.000,-3103.000,7784.000,966.000,2838.000,293.000,0.000,0.000,0
2026-01-30 23:08:18,385814,1801.000,915.000,9134.000,2301.000,2155.000,307.000,0.000,0.000,0
2026-01-30 23:08:18,385854,868.000,495.000,8293.000,-1963.000,2011.000,348.000,0.000,0.000,0
2026-01-30 23:08:18,385894,72.000,-3015.000,7190.000,-3114.000,1596.000,205.000,0.000,0.000,0
2026-01-30 23:08:18,385934,295.000,-2036.000,7619.000,651.000,-130.000,42.000,0.000,0.000,0
2026-01-30 23:08:18,385974,100.000,-576.000,7602.000,191.000,38.000,486.000,0.000,0.000,0
2026-01-30 23:08:18,386014,91.000,-1083.000,7695.000,-703.000,-110.000,700.000,0.000,0.000,0
2026-01-30 23:08:18,386054,512.000,-932.000,7924.000,-361.000,-201.000,535.000,0.000,0.000,0
2026-01-30 23:08:18,386094,1066.000,-794.000,8338.000,-683.000,-501.000,153.000,0.000,0.000,0
2026-01-30 23:08:19,386134,1257.000,-1627.000,8129.000,-533.000,-629.000,-93.000,0.000,0.000,0
2026-01-30 23:08:19,386174,1704.000,-1434.000,8553.000,196.000,-825.000,-389.000,0.000,0.000,0
2026-01-30 23:08:19,386214,1878.000,-1055.000,8636.000,437.000,-887.000,-696.000,0.000,0.000,0
2026-01-30 23:08:19,386254,1862.000,-1455.000,7887.000,405.000,-870.000,-802.000,0.000,0.000,0
2026-01-30 23:08:19,386294,2343.000,-1057.000,8711.000,990.000,-1036.000,-694.000,0.000,0.000,0
2026-01-30 23:08:19,386334,2522.000,-746.000,8261.000,521.000,-762.000,-700.000,0.000,0.000,0
2026-01-30 23:08:19,386374,2414.000,-1028.000,8185.000,-88.000,-361.000,-326.000,0.000,0.000,0
2026-01-30 23:08:19,386414,2072.000,-1163.000,8306.000,-70.000,-72.000,-42.000,0.000,0.000,0
2026-01-30 23:08:19,386454,1537.000,-1316.000,8276.000,-367.000,346.000,333.000,0.000,0.000,0
2026-01-30 23:08:19,386494,1562.000,-1359.000,8036.000,-216.000,458.000,482.000,0.000,0.000,0
2026-01-30 23:08:19,386534,1404.000,-1224.000,7876.000,-188.000,535.000,602.000,0.000,0.000,0
2026-01-30 23:08:19,386574,1296.000,-1579.000,7896.000,-330.000,532.000,589.000,0.000,0.000,0
2026-01-30 23:08:19,386614,1714.000,-995.000,8120.000,213.000,132.000,211.000,0.000,0.000,0
2026-01-30 23:08:19,386654,1718.000,-1283.000,7987.000,-221.000,55.000,224.000,0.000,0.000,0
2026-01-30 23:08:19,386694,1724.000,-1258.000,8210.000,144.000,-26.000,127.000,0.000,0.000,0
2026-01-30 23:08:19,386734,1551.000,-1092.000,8092.000,280.000,-22.000,-68.000,0.000,0.000,0
2026-01-30 23:08:19,386774,1706.000,-1126.000,8100.000,294.000,-26.000,-319.000,0.000,0.000,0
2026-01-30 23:08:19,386814,1899.000,-966.000,8127.000,585.000,-91.000,-367.000,0.000,0.000,0
2026-01-30 23:08:19,386854,1775.000,-745.000,8023.000,784.000,120.000,-141.000,0.000,0.000,0
2026-01-30 23:08:19,386894,1591.000,-914.000,8190.000,635.000,252.000,-219.000,0.000,0.000,0
2026-01-30 23:08:19,386934,1907.000,-689.000,8048.000,388.000,-8.000,-295.000,0.000,0.000,0
2026-01-30 23:08:19,386974,1579.000,-1228.000,8280.000,-171.000,28.000,-43.000,0.000,0.000,0
2026-01-30 23:08:19,387014,1746.000,-837.000,8298.000,174.000,-225.000,176.000,0.000,0.000,0
2026-01-30 23:08:19,387054,1481.000,-849.000,8135.000,-80.000,-27.000,284.000,0.000,0.000,0
2026-01-30 23:08:19,387094,1591.000,-858.000,8226.000,-141.000,-111.000,75.000,0.000,0.000,0
2026-01-30 23:08:20,387136,1920.000,-959.000,8209.000,-152.000,8.000,15.000,0.000,0.000,0
2026-01-30 23:08:20,387174,1732.000,-759.000,8105.000,68.000,214.000,148.000,0.000,0.000,0
2026-01-30 23:08:20,387214,1295.000,-924.000,8067.000,2.000,293.000,49.000,0.000,0.000,0
2026-01-30 23:08:20,387254,1664.000,-927.000,8024.000,138.000,-162.000,-116.000,0.000,0.000,0
2026-01-30 23:08:20,387294,2062.000,-534.000,8258.000,238.000,-439.000,-89.000,0.000,0.000,0
2026-01-30 23:08:20,387334,2065.000,-989.000,8352.000,-11.000,-158.000,53.000,0.000,0.000,0
2026-01-30 23:08:20,387374,1914.000,-789.000,8038.000,104.000,89.000,135.000,0.000,0.000,0
2026-01-30 23:08:20,387414,1766.000,-975.000,7885.000,1.000,54.000,38.000,0.000,0.000,0
2026-01-30 23:08:20,387454,1587.000,-754.000,8131.000,185.000,-193.000,100.000,0.000,0.000,0
2026-01-30 23:08:20,387494,1932.000,-927.000,8383.000,20.000,-379.000,-9.000,0.000,0.000,0
2026-01-30 23:08:20,387534,2077.000,-913.000,8228.000,289.000,-89.000,-35.000,0.000,0.000,0
2026-01-30 23:08:20,387574,1679.000,-716.000,7823.000,99.000,269.000,145.000,0.000,0.000,0
2026-01-30 23:08:20,387614,1717.000,-1190.000,7871.000,-86.000,-163.000,136.000,0.000,0.000,0
2026-01-30 23:08:20,387654,2025.000,-966.000,8380.000,146.000,-524.000,69.000,0.000,0.000,0
2026-01-30 23:08:20,387694,1841.000,-1068.000,7961.000,268.000,-319.000,139.000,0.000,0.000,0
2026-01-30 23:08:20,387734,2110.000,-772.000,8140.000,517.000,15.000,157.000,0.000,0.000,0
2026-01-30 23:08:20,387774,1587.000,-639.000,8165.000,313.000,581.000,202.000,0.000,0.000,0
2026-01-30 23:08:20,387814,1912.000,-539.000,8248.000,171.000,286.000,76.000,0.000,0.000,0
2026-01-30 23:08:20,387854,2154.000,-712.000,8069.000,33.000,-25.000,102.000,0.000,0.000,0
2026-01-30 23:08:20,387894,2072.000,-683.000,7972.000,191.000,-94.000,144.000,0.000,0.000,0
2026-01-30 23:08:20,387934,1864.000,-447.000,8377.000,164.000,-39.000,77.000,0.000,0.000,0
2026-01-30 23:08:20,387974,2009.000,-885.000,7981.000,-179.000,-129.000,3.000,0.000,0.000,0
2026-01-30 23:08:20,388014,1904.000,-826.000,8333.000,206.000,-31.000,115.000,0.000,0.000,0
2026-01-30 23:08:20,388054,1706.000,-651.000,8176.000,206.000,61.000,77.000,0.000,0.000,0
2026-01-30 23:08:20,388094,1724.000,-754.000,7972.000,-16.000,-27.000,65.000,0.000,0.000,0
2026-01-30 23:08:21,388134,1954.000,-870.000,7830.000,-24.000,-70.000,109.000,0.000,0.000,0
2026-01-30 23:08:21,388174,1643.000,-742.000,7746.000,-67.000,-21.000,199.000,0.000,0.000,0
2026-01-30 23:08:21,388214,1981.000,-1011.000,8290.000,-338.000,-181.000,131.000,0.000,0.000,0
2026-01-30 23:08:21,388254,1896.000,-1268.000,8044.000,-439.000,-23.000,198.000,0.000,0.000,0
2026-01-30 23:08:21,388294,1731.000,-1376.000,7998.000,-422.000,125.000,325.000,0.000,0.000,0
2026-01-30 23:08:21,388334,1762.000,-985.000,8122.000,60.000,-51.000,297.000,0.000,0.000,0
2026-01-30 23:08:21,388374,1768.000,-1063.000,8365.000,-110.000,-401.000,-4.000,0.000,0.000,0
2026-01-30 23:08:21,388414,1975.000,-1177.000,8361.000,1.000,-244.000,1.000,0.000,0.000,0
2026-01-30 23:08:21,388454,1934.000,-925.000,8086.000,224.000,115.000,38.000,0.000,0.000,0
2026-01-30 23:08:21,388494,1598.000,-775.000,8245.000,204.000,326.000,60.000,0.000,0.000,0
2026-01-30 23:08:21,388534,1512.000,-893.000,7956.000,-15.000,149.000,-108.000,0.000,0.000,0
2026-01-30 23:08:21,388574,1695.000,-942.000,7965.000,-89.000,-28.000,-199.000,0.000,0.000,0
2026-01-30 23:08:21,388614,1820.000,-874.000,8163.000,-71.000,-73.000,-116.000,0.000,0.000,0
2026-01-30 23:08:21,388654,1457.000,-1419.000,8144.000,-474.000,93.000,6.000,0.000,0.000,0
2026-01-30 23:08:21,388694,1817.000,-1519.000,8108.000,-587.000,7.000,26.000,0.000,0.000,0
2026-01-30 23:08:21,388734,1682.000,-1678.000,7694.000,-699.000,208.000,182.000,0.000,0.000,0
2026-01-30 23:08:21,388774,1828.000,-1680.000,7963.000,-732.000,-615.000,72.000,0.000,0.000,0
2026-01-30 23:08:21,388814,2085.000,-2190.000,8109.000,-959.000,-762.000,121.000,0.000,0.000,0
2026-01-30 23:08:21,388854,2265.000,-2213.000,7902.000,-558.000,-622.000,122.000,0.000,0.000,0
2026-01-30 23:08:21,388894,2048.000,-2328.000,7842.000,-161.000,-208.000,177.000,0.000,0.000,0
2026-01-30 23:08:21,388934,2104.000,-1764.000,8345.000,371.000,-162.000,80.000,0.000,0.000,0
2026-01-30 23:08:21,388974,1742.000,-1873.000,8044.000,-19.000,-203.000,-89.000,0.000,0.000,0
2026-01-30 23:08:21,389014,2075.000,-1940.000,8198.000,46.000,-258.000,-225.000,0.000,0.000,0
2026-01-30 23:08:21,389054,1863.000,-1890.000,8312.000,293.000,342.000,-80.000,0.000,0.000,0
2026-01-30 23:08:21,389094,1799.000,-1618.000,8083.000,372.000,573.000,-83.000,0.000,0.000,0
2026-01-30 23:08:22,389136,1757.000,-1169.000,7965.000,519.000,512.000,-176.000,0.000,0.000,0
2026-01-30 23:08:22,389174,1621.000,-1130.000,7888.000,293.000,282.000,-308.000,0.000,0.000,0
2026-01-30 23:08:22,389214,1527.000,-1381.000,7906.000,33.000,213.000,-383.000,0.000,0.000,0
2026-01-30 23:08:22,389254,1968.000,-1333.000,8141.000,181.000,-10.000,-311.000,0.000,0.000,0
2026-01-30 23:08:22,389294,1846.000,-1293.000,7595.000,-197.000,308.000,-96.000,0.000,0.000,0
2026-01-30 23:08:22,389334,1277.000,-1664.000,8003.000,-248.000,374.000,-28.000,0.000,0.000,0
2026-01-30 23:08:22,389374,1549.000,-1446.000,8265.000,-250.000,-121.000,-130.000,0.000,0.000,0
2026-01-30 23:08:22,389414,1675.000,-1924.000,8140.000,-772.000,-684.000,-152.000,0.000,0.000,0
2026-01-30 23:08:22,389454,2086.000,-2412.000,7853.000,-590.000,-838.000,-115.000,0.000,0.000,0
2026-01-30 23:08:22,389494,1640.000,-1371.000,8162.000,261.000,-734.000,32.000,0.000,0.000,0
2026-01-30 23:08:22,389534,2041.000,-1837.000,8179.000,-224.000,-1080.000,18.000,0.000,0.000,0
2026-01-30 23:08:22,389574,2025.000,-1889.000,8030.000,437.000,-820.000,-158.000,0.000,0.000,0
2026-01-30 23:08:22,389614,2249.000,-1214.000,7994.000,339.000,-710.000,-39.000,0.000,0.000,0
2026-01-30 23:08:22,389654,2192.000,-1698.000,8313.000,262.000,-320.000,89.000,0.000,0.000,0
2026-01-30 23:08:22,389694,2068.000,-1295.000,8358.000,525.000,77.000,-214.000,0.000,0.000,0
2026-01-30 23:08:22,389734,2109.000,-938.000,7981.000,300.000,122.000,-390.000,0.000,0.000,0
2026-01-30 23:08:22,389774,1832.000,-1605.000,7748.000,-310.000,463.000,-111.000,0.000,0.000,0
2026-01-30 23:08:22,389814,1568.000,-1284.000,7698.000,75.000,3.000,-208.000,0.000,0.000,0
2026-01-30 23:08:22,389854,1582.000,-951.000,7841.000,-106.000,-687.000,-414.000,0.000,0.000,0
2026-01-30 23:08:22,389894,2816.000,-1769.000,8116.000,-1521.000,-1918.000,-581.000,0.000,0.000,0
2026-01-30 23:08:22,389934,2760.000,-2159.000,7670.000,-399.000,-1140.000,-545.000,0.000,0.000,0
2026-01-30 23:08:22,389974,2527.000,-1598.000,7926.000,217.000,-687.000,-325.000,0.000,0.000,0
2026-01-30 23:08:22,390014,1817.000,-1940.000,8352.000,436.000,-1252.000,-419.000,0.000,0.000,0
2026-01-30 23:08:22,390054,2392.000,106.000,9133.000,390.000,-4172.000,-952.000,0.000,0.000,0
2026-01-30 23:08:22,390094,3591.000,-463.000,9144.000,-2690.000,-5023.000,-145.000,0.000,0.000,0
2026-01-30 23:08:23,390134,1136.000,-363.000,9600.000,-11549.000,892.000,-452.000,0.000,0.000,0
2026-01-30 23:08:23,390174,3547.000,-2209.000,7130.000,-5722.000,-3218.000,1908.000,0.000,0.000,0
2026-01-30 23:08:23,390214,4381.000,-2618.000,5055.000,-13759.000,-2871.000,3396.000,0.000,0.000,0
2026-01-30 23:08:23,390254,4508.000,-6974.000,3541.000,-15348.000,-2370.000,3533.000,0.000,0.000,0
2026-01-30 23:08:23,390294,4723.000,-6827.000,2957.000,-5720.000,-1857.000,1998.000,0.000,0.000,0
2026-01-30 23:08:23,390334,4190.000,-5369.000,3641.000,-1823.000,-1007.000,996.000,0.000,0.000,0
2026-01-30 23:08:23,390374,4201.000,-6350.000,3666.000,-969.000,-447.000,245.000,0.000,0.000,0
2026-01-30 23:08:23,390414,3597.000,-6025.000,4075.000,1195.000,20.000,-404.000,0.000,0.000,0
2026-01-30 23:08:23,390454,3335.000,-5978.000,4259.000,612.000,281.000,-686.000,0.000,0.000,0
2026-01-30 23:08:23,390494,3525.000,-6733.000,4480.000,-13.000,324.000,-564.000,0.000,0.000,0
2026-01-30 23:08:23,390534,3556.000,-7445.000,4643.000,690.000,315.000,-843.000,0.000,0.000,0
2026-01-30 23:08:23,390574,4338.000,-5848.000,4765.000,1507.000,223.000,-541.000,0.000,0.000,0
2026-01-30 23:08:23,390614,4101.000,-6319.000,4353.000,-559.000,778.000,33.000,0.000,0.000,0
2026-01-30 23:08:23,390654,3925.000,-6552.000,3940.000,108.000,639.000,315.000,0.000,0.000,0
2026-01-30 23:08:23,390694,3702.000,-5901.000,4034.000,1636.000,534.000,216.000,0.000,0.000,0
2026-01-30 23:08:23,390734,3541.000,-5384.000,4535.000,1550.000,333.000,275.000,0.000,0.000,0
2026-01-30 23:08:23,390774,3624.000,-5208.000,4673.000,1083.000,124.000,400.000,0.000,0.000,0
2026-01-30 23:08:23,390814,3505.000,-5289.000,4879.000,382.000,86.000,372.000,0.000,0.000,0
2026-01-30 23:08:23,390854,3558.000,-5890.000,4784.000,501.000,65.000,66.000,0.000,0.000,0
2026-01-30 23:08:23,390894,3615.000,-5233.000,5069.000,540.000,14.000,-25.000,0.000,0.000,0
2026-01-30 23:08:23,390934,3465.000,-5774.000,4947.000,-303.000,226.000,-93.000,0.000,0.000,0
2026-01-30 23:08:23,390974,3665.000,-5633.000,4752.000,-264.000,249.000,61.000,0.000,0.000,0
2026-01-30 23:08:23,391014,3625.000,-6139.000,4247.000,-789.000,644.000,20.000,0.000,0.000,0
2026-01-30 23:08:23,391054,3655.000,-6118.000,4083.000,332.000,833.000,-505.000,0.000,0.000,0
2026-01-30 23:08:23,391094,4091.000,-5837.000,3984.000,445.000,667.000,-855.000,0.000,0.000,0
2026-01-30 23:08:24,391136,3972.000,-6251.000,4081.000,-252.000,719.000,-657.000,0.000,0.000,0
2026-01-30 23:08:24,391174,3679.000,-6631.000,3970.000,2.000,812.000,-494.000,0.000,0.000,0
2026-01-30 23:08:24,391214,3564.000,-6421.000,4281.000,1099.000,540.000,-335.000,0.000,0.000,0
2026-01-30 23:08:24,391254,3322.000,-6138.000,4763.000,949.000,258.000,-267.000,0.000,0.000,0
2026-01-30 23:08:24,391294,3543.000,-5938.000,5348.000,-38.000,-67.000,162.000,0.000,0.000,0
2026-01-30 23:08:24,391334,3488.000,-5835.000,5199.000,-528.000,-54.000,562.000,0.000,0.000,0
2026-01-30 23:08:24,391374,3374.000,-5367.000,4909.000,-428.000,43.000,945.000,0.000,0.000,0
2026-01-30 23:08:24,391414,3481.000,-4998.000,5256.000,-419.000,-57.000,422.000,0.000,0.000,0
2026-01-30 23:08:24,391454,4128.000,-5561.000,5191.000,-244.000,-153.000,119.000,0.000,0.000,0
2026-01-30 23:08:24,391494,3809.000,-5148.000,5241.000,130.000,331.000,153.000,0.000,0.000,0
2026-01-30 23:08:24,391534,4263.000,-5827.000,5313.000,-129.000,418.000,67.000,0.000,0.000,0
2026-01-30 23:08:24,391574,3726.000,-5792.000,5123.000,579.000,679.000,-19.000,0.000,0.000,0
2026-01-30 23:08:24,391614,3684.000,-5188.000,5288.000,597.000,273.000,-120.000,0.000,0.000,0
2026-01-30 23:08:24,391654,3654.000,-5471.000,5443.000,-361.000,26.000,146.000,0.000,0.000,0
2026-01-30 23:08:24,391694,3478.000,-5803.000,5201.000,-588.000,-206.000,172.000,0.000,0.000,0
2026-01-30 23:08:24,391734,3313.000,-5937.000,5019.000,-18.000,-205.000,167.000,0.000,0.000,0
2026-01-30 23:08:24,391774,3313.000,-5256.000,5393.000,248.000,-213.000,324.000,0.000,0.000,0
2026-01-30 23:08:24,391814,3327.000,-4928.000,5335.000,158.000,-167.000,811.000,0.000,0.000,0
2026-01-30 23:08:24,391854,3332.000,-5372.000,5534.000,-411.000,-15.000,375.000,0.000,0.000,0
2026-01-30 23:08:24,391894,3274.000,-5594.000,5746.000,494.000,20.000,68.000,0.000,0.000,0
2026-01-30 23:08:24,391934,3743.000,-5056.000,5703.000,813.000,-44.000,-65.000,0.000,0.000,0
2026-01-30 23:08:24,391974,3787.000,-4958.000,5691.000,454.000,78.000,104.000,0.000,0.000,0
2026-01-30 23:08:24,392014,3436.000,-4980.000,5772.000,90.000,268.000,160.000,0.000,0.000,0
2026-01-30 23:08:24,392054,3369.000,-5289.000,5561.000,111.000,121.000,-9.000,0.000,0.000,0
2026-01-30 23:08:24,392094,3545.000,-5287.000,5733.000,222.000,27.000,-41.000,0.000,0.000,0
2026-01-30 23:08:25,392134,3333.000,-4915.000,5765.000,-94.000,-130.000,116.000,0.000,0.000,0
2026-01-30 23:08:25,392174,3259.000,-5322.000,5776.000,-558.000,-6.000,330.000,0.000,0.000,0
2026-01-30 23:08:25,392214,2989.000,-5698.000,5858.000,-299.000,79.000,-4.000,0.000,0.000,0
2026-01-30 23:08:25,392254,3039.000,-5291.000,5733.000,541.000,-6.000,-363.000,0.000,0.000,0
2026-01-30 23:08:25,392294,3423.000,-5206.000,5865.000,-45.000,-94.000,-388.000,0.000,0.000,0
2026-01-30 23:08:25,392334,3242.000,-5608.000,5552.000,-458.000,196.000,-50.000,0.000,0.000,0
2026-01-30 23:08:25,392374,2941.000,-5432.000,5316.000,150.000,407.000,-83.000,0.000,0.000,0
2026-01-30 23:08:25,392414,3348.000,-5513.000,5410.000,600.000,154.000,-95.000,0.000,0.000,0
2026-01-30 23:08:25,392454,2972.000,-4953.000,5453.000,480.000,216.000,-56.000,0.000,0.000,0
2026-01-30 23:08:25,392494,3274.000,-5664.000,5652.000,-407.000,-111.000,-52.000,0.000,0.000,0
2026-01-30 23:08:25,392534,3136.000,-5247.000,5771.000,118.000,-541.000,-91.000,0.000,0.000,0
2026-01-30 23:08:25,392574,3444.000,-5598.000,5524.000,-808.000,-203.000,353.000,0.000,0.000,0
2026-01-30 23:08:25,392614,3419.000,-5391.000,5403.000,14.000,119.000,434.000,0.000,0.000,0
2026-01-30 23:08:25,392654,3470.000,-5229.000,5844.000,251.000,273.000,74.000,0.000,0.000,0
2026-01-30 23:08:25,392694,3304.000,-5139.000,5408.000,391.000,142.000,-147.000,0.000,0.000,0
2026-01-30 23:08:25,392734,3477.000,-4866.000,5554.000,385.000,-222.000,-141.000,0.000,0.000,0
2026-01-30 23:08:25,392774,3566.000,-5492.000,5641.000,-268.000,-174.000,-91.000,0.000,0.000,0
2026-01-30 23:08:25,392814,3026.000,-5506.000,5669.000,-175.000,38.000,110.000,0.000,0.000,0
2026-01-30 23:08:25,392854,3373.000,-5471.000,5698.000,94.000,9.000,272.000,0.000,0.000,0
2026-01-30 23:08:25,392896,3239.000,-5094.000,5667.000,75.000,55.000,196.000,0.000,0.000,0
2026-01-30 23:08:25,392938,3502.000,-5314.000,5606.000,-182.000,17.000,13.000,0.000,0.000,0
2026-01-30 23:08:25,392974,3725.000,-4970.000,5860.000,241.000,-175.000,-13.000,0.000,0.000,0
2026-01-30 23:08:25,393014,3650.000,-5680.000,5606.000,-443.000,122.000,104.000,0.000,0.000,0
2026-01-30 23:08:25,393054,3016.000,-5475.000,5454.000,452.000,329.000,194.000,0.000,0.000,0
2026-01-30 23:08:25,393094,3316.000,-5160.000,5594.000,429.000,45.000,261.000,0.000,0.000,0
2026-01-30 23:08:26,393135,2831.000,-5238.000,5688.000,-151.000,56.000,287.000,0.000,0.000,0
2026-01-30 23:08:26,393174,2984.000,-5254.000,5339.000,-67.000,-127.000,399.000,0.000,0.000,0
2026-01-30 23:08:26,393214,2955.000,-5329.000,5566.000,185.000,-79.000,170.000,0.000,0.000,0
2026-01-30 23:08:26,393254,2968.000,-4961.000,5856.000,87.000,-334.000,205.000,0.000,0.000,0
2026-01-30 23:08:26,393294,3064.000,-5240.000,5802.000,-461.000,-322.000,248.000,0.000,0.000,0
2026-01-30 23:08:26,393334,3337.000,-5316.000,5747.000,-29.000,-338.000,38.000,0.000,0.000,0
2026-01-30 23:08:26,393374,3244.000,-5295.000,5793.000,-242.000,-143.000,-136.000,0.000,0.000,0
2026-01-30 23:08:26,393414,3281.000,-5268.000,5469.000,84.000,77.000,118.000,0.000,0.000,0
2026-01-30 23:08:26,393454,3020.000,-5542.000,5296.000,247.000,291.000,23.000,0.000,0.000,0
2026-01-30 23:08:26,393494,3215.000,-5208.000,5689.000,644.000,-162.000,-93.000,0.000,0.000,0
2026-01-30 23:08:26,393534,3210.000,-5175.000,5597.000,-251.000,-326.000,83.000,0.000,0.000,0
2026-01-30 23:08:26,393574,3205.000,-5571.000,5661.000,-320.000,-318.000,78.000,0.000,0.000,0
2026-01-30 23:08:26,393614,3154.000,-5452.000,5609.000,67.000,-133.000,55.000,0.000,0.000,0
2026-01-30 23:08:26,393654,3350.000,-5135.000,5809.000,15.000,-88.000,95.000,0.000,0.000,0
2026-01-30 23:08:26,393694,3399.000,-5490.000,5574.000,-207.000,-117.000,35.000,0.000,0.000,0
2026-01-30 23:08:26,393734,3422.000,-5204.000,5707.000,175.000,-115.000,-56.000,0.000,0.000,0
2026-01-30 23:08:26,393774,3233.000,-5268.000,5416.000,-11.000,36.000,155.000,0.000,0.000,0
2026-01-30 23:08:26,393814,2887.000,-5483.000,5498.000,-92.000,112.000,55.000,0.000,0.000,0
2026-01-30 23:08:26,393854,3170.000,-5228.000,5650.000,17.000,-220.000,6.000,0.000,0.000,0
2026-01-30 23:08:26,393894,3108.000,-5551.000,5481.000,-229.000,-164.000,-47.000,0.000,0.000,0
2026-01-30 23:08:26,393934,3282.000,-5652.000,5498.000,-82.000,-109.000,64.000,0.000,0.000,0
2026-01-30 23:08:26,393974,3134.000,-5268.000,5589.000,472.000,76.000,-115.000,0.000,0.000,0
2026-01-30 23:08:26,394014,3302.000,-5017.000,5783.000,59.000,-155.000,70.000,0.000,0.000,0
2026-01-30 23:08:26,394054,3177.000,-5532.000,5531.000,-417.000,-12.000,129.000,0.000,0.000,0
2026-01-30 23:08:26,394094,3225.000,-5355.000,5640.000,-156.000,40.000,17.000,0.000,0.000,0
2026-01-30 23:08:27,394134,3292.000,-4946.000,5550.000,249.000,-11.000,-84.000,0.000,0.000,0
2026-01-30 23:08:27,394174,3304.000,-5399.000,5505.000,-169.000,72.000,-230.000,0.000,0.000,0
2026-01-30 23:08:27,394214,3512.000,-5431.000,5449.000,205.000,-33.000,-255.000,0.000,0.000,0
2026-01-30 23:08:27,394254,3261.000,-5416.000,5533.000,187.000,115.000,-223.000,0.000,0.000,0
2026-01-30 23:08:27,394294,3256.000,-5273.000,5435.000,84.000,102.000,28.000,0.000,0.000,0
2026-01-30 23:08:27,394334,3133.000,-5507.000,5401.000,34.000,69.000,5.000,0.000,0.000,0
2026-01-30 23:08:27,394374,3088.000,-5249.000,5437.000,216.000,-89.000,-30.000,0.000,0.000,0
2026-01-30 23:08:27,394414,3341.000,-5409.000,5532.000,-324.000,-383.000,64.000,0.000,0.000,0
2026-01-30 23:08:27,394454,3133.000,-5411.000,5394.000,-164.000,-241.000,186.000,0.000,0.000,0
2026-01-30 23:08:27,394494,3176.000,-5261.000,5697.000,96.000,-88.000,60.000,0.000,0.000,0
2026-01-30 23:08:27,394534,3381.000,-4751.000,5884.000,360.000,-155.000,50.000,0.000,0.000,0
2026-01-30 23:08:27,394574,3438.000,-5645.000,5850.000,-733.000,91.000,211.000,0.000,0.000,0
2026-01-30 23:08:27,394614,3574.000,-5754.000,5657.000,-143.000,201.000,87.000,0.000,0.000,0
2026-01-30 23:08:27,394654,3518.000,-5305.000,5547.000,707.000,372.000,-13.000,0.000,0.000,0
2026-01-30 23:08:27,394694,3220.000,-5009.000,5597.000,617.000,403.000,60.000,0.000,0.000,0
2026-01-30 23:08:27,394734,3074.000,-5528.000,5371.000,209.000,242.000,57.000,0.000,0.000,0
2026-01-30 23:08:27,394774,3002.000,-4925.000,5689.000,628.000,-138.000,-65.000,0.000,0.000,0
2026-01-30 23:08:27,394814,3005.000,-5304.000,5923.000,-54.000,-318.000,-71.000,0.000,0.000,0
2026-01-30 23:08:27,394854,3144.000,-5627.000,5986.000,-179.000,-166.000,113.000,0.000,0.000,0
2026-01-30 23:08:27,394896,3154.000,-5248.000,6078.000,343.000,26.000,217.000,0.000,0.000,0
2026-01-30 23:08:27,394935,3175.000,-4940.000,5943.000,188.000,148.000,392.000,0.000,0.000,0
2026-01-30 23:08:27,394974,2892.000,-4863.000,5996.000,153.000,367.000,488.000,0.000,0.000,0
2026-01-30 23:08:27,395014,2954.000,-4811.000,5938.000,337.000,579.000,597.000,0.000,0.000,0
2026-01-30 23:08:27,395054,2533.000,-4437.000,5586.000,926.000,854.000,535.000,0.000,0.000,0
2026-01-30 23:08:27,395094,2201.000,-3868.000,6275.000,1336.000,733.000,275.000,0.000,0.000,0
2026-01-30 23:08:28,395136,3000.000,-3853.000,6747.000,217.000,207.000,469.000,0.000,0.000,0
2026-01-30 23:08:28,395174,2435.000,-4037.000,6784.000,-1549.000,553.000,1035.000,0.000,0.000,0
2026-01-30 23:08:28,395214,2539.000,-4577.000,6528.000,-2859.000,397.000,1320.000,0.000,0.000,0
2026-01-30 23:08:28,395254,2229.000,-5197.000,6357.000,-1237.000,253.000,1149.000,0.000,0.000,0
2026-01-30 23:08:28,395294,2702.000,-4442.000,6110.000,-90.000,131.000,807.000,0.000,0.000,0
2026-01-30 23:08:28,395334,3130.000,-5857.000,6415.000,-274.000,456.000,542.000,0.000,0.000,0
2026-01-30 23:08:28,395374,3992.000,-8373.000,7143.000,2950.000,1132.000,-709.000,0.000,0.000,0
2026-01-30 23:08:28,395414,3165.000,-2571.000,5586.000,4219.000,1392.000,991.000,0.000,0.000,0
2026-01-30 23:08:28,395454,1298.000,-6388.000,6101.000,-4415.000,1393.000,1915.000,0.000,0.000,0
2026-01-30 23:08:28,395494,41.000,-6237.000,4761.000,-773.000,-716.000,1576.000,0.000,0.000,0
2026-01-30 23:08:28,395534,1396.000,-6573.000,5760.000,2569.000,-2685.000,-268.000,0.000,0.000,0
2026-01-30 23:08:28,395574,2857.000,-4237.000,7563.000,3798.000,-2518.000,-92.000,0.000,0.000,0
2026-01-30 23:08:28,395614,3119.000,-4782.000,6345.000,-1027.000,-353.000,646.000,0.000,0.000,0
2026-01-30 23:08:28,395654,2494.000,-5178.000,6264.000,498.000,280.000,-439.000,0.000,0.000,0
2026-01-30 23:08:28,395694,2823.000,-5019.000,6081.000,660.000,-1.000,-1115.000,0.000,0.000,0
2026-01-30 23:08:28,395734,1950.000,-6387.000,5988.000,533.000,432.000,-370.000,0.000,0.000,0
2026-01-30 23:08:28,395774,2074.000,-4810.000,6083.000,1811.000,-157.000,-86.000,0.000,0.000,0
2026-01-30 23:08:28,395814,1789.000,-4300.000,6036.000,1358.000,-832.000,174.000,0.000,0.000,0
2026-01-30 23:08:28,395854,1658.000,-4847.000,6100.000,627.000,-1172.000,347.000,0.000,0.000,0
2026-01-30 23:08:28,395894,2066.000,-4126.000,7167.000,1956.000,-1567.000,-241.000,0.000,0.000,0
2026-01-30 23:08:28,395934,2621.000,-4705.000,7099.000,232.000,-1232.000,-328.000,0.000,0.000,0
2026-01-30 23:08:28,395974,3645.000,-5064.000,7071.000,618.000,-210.000,-244.000,0.000,0.000,0
2026-01-30 23:08:28,396014,3872.000,-4446.000,7448.000,908.000,1180.000,-741.000,0.000,0.000,0
2026-01-30 23:08:28,396054,3069.000,-4398.000,6688.000,11.000,1570.000,-765.000,0.000,0.000,0
2026-01-30 23:08:28,396094,2498.000,-4587.000,7191.000,382.000,644.000,-1085.000,0.000,0.000,0
2026-01-30 23:08:29,396134,2944.000,-3670.000,6776.000,1578.000,-297.000,-1292.000,0.000,0.000,0
2026-01-30 23:08:29,396174,2961.000,-4235.000,7488.000,70.000,-46.000,-447.000,0.000,0.000,0
2026-01-30 23:08:29,396214,2902.000,-4055.000,7192.000,633.000,313.000,94.000,0.000,0.000,0
2026-01-30 23:08:29,396254,2256.000,-2722.000,7262.000,989.000,569.000,386.000,0.000,0.000,0
2026-01-30 23:08:29,396294,2204.000,-2572.000,6975.000,438.000,499.000,345.000,0.000,0.000,0
2026-01-30 23:08:29,396334,1704.000,-3444.000,7429.000,107.000,310.000,73.000,0.000,0.000,0
2026-01-30 23:08:29,396374,2748.000,-2749.000,7353.000,712.000,-378.000,-461.000,0.000,0.000,0
2026-01-30 23:08:29,396414,2826.000,-3872.000,7363.000,-465.000,142.000,-83.000,0.000,0.000,0
2026-01-30 23:08:29,396454,2673.000,-3241.000,7173.000,691.000,91.000,-176.000,0.000,0.000,0
2026-01-30 23:08:29,396494,2398.000,-2901.000,7433.000,488.000,-159.000,-98.000,0.000,0.000,0
2026-01-30 23:08:29,396534,2262.000,-2603.000,7379.000,345.000,-515.000,-197.000,0.000,0.000,0
2026-01-30 23:08:29,396574,2649.000,-3020.000,7678.000,-288.000,-1023.000,-245.000,0.000,0.000,0
2026-01-30 23:08:29,396614,3595.000,-3639.000,7752.000,394.000,-921.000,-289.000,0.000,0.000,0
2026-01-30 23:08:29,396654,3425.000,-2895.000,7226.000,566.000,-82.000,36.000,0.000,0.000,0
2026-01-30 23:08:29,396694,2888.000,-3162.000,7201.000,-26.000,461.000,127.000,0.000,0.000,0
2026-01-30 23:08:29,396734,2699.000,-3062.000,7678.000,185.000,-77.000,-168.000,0.000,0.000,0
2026-01-30 23:08:29,396774,2977.000,-3574.000,7645.000,248.000,-726.000,-395.000,0.000,0.000,0
2026-01-30 23:08:29,396814,3144.000,-2899.000,7212.000,413.000,-61.000,47.000,0.000,0.000,0
2026-01-30 23:08:29,396856,2981.000,-2787.000,7477.000,284.000,485.000,292.000,0.000,0.000,0
2026-01-30 23:08:29,396898,2282.000,-2383.000,7565.000,449.000,247.000,-70.000,0.000,0.000,0
2026-01-30 23:08:29,396934,2714.000,-2864.000,7430.000,345.000,-425.000,-520.000,0.000,0.000,0
2026-01-30 23:08:29,396974,3360.000,-2842.000,7420.000,728.000,-306.000,-500.000,0.000,0.000,0
2026-01-30 23:08:29,397014,3474.000,-2384.000,7578.000,595.000,219.000,-118.000,0.000,0.000,0
2026-01-30 23:08:29,397054,2740.000,-2784.000,7259.000,84.000,460.000,53.000,0.000,0.000,0
2026-01-30 23:08:29,397094,2703.000,-2531.000,7722.000,530.000,-28.000,-101.000,0.000,0.000,0
2026-01-30 23:08:30,397137,3169.000,-3005.000,7825.000,130.000,-218.000,18.000,0.000,0.000,0
2026-01-30 23:08:30,397174,3487.000,-2693.000,7608.000,209.000,148.000,95.000,0.000,0.000,0
2026-01-30 23:08:30,397214,3166.000,-2609.000,7446.000,440.000,246.000,-84.000,0.000,0.000,0
2026-01-30 23:08:30,397254,2678.000,-2365.000,7388.000,459.000,133.000,-42.000,0.000,0.000,0
2026-01-30 23:08:30,397294,2734.000,-2505.000,7770.000,184.000,-24.000,159.000,0.000,0.000,0
2026-01-30 23:08:30,397334,2771.000,-2579.000,7994.000,180.000,-135.000,290.000,0.000,0.000,0
2026-01-30 23:08:30,397374,3123.000,-2202.000,8105.000,330.000,185.000,306.000,0.000,0.000,0
2026-01-30 23:08:30,397414,2770.000,-2046.000,8039.000,426.000,808.000,235.000,0.000,0.000,0
2026-01-30 23:08:30,397454,2482.000,-1615.000,8000.000,820.000,737.000,-193.000,0.000,0.000,0
2026-01-30 23:08:30,397494,2532.000,-1367.000,8173.000,632.000,233.000,-636.000,0.000,0.000,0
2026-01-30 23:08:30,397534,2701.000,-1386.000,8079.000,435.000,69.000,-773.000,0.000,0.000,0
2026-01-30 23:08:30,397574,2905.000,-1661.000,8068.000,-40.000,299.000,-698.000,0.000,0.000,0
2026-01-30 23:08:30,397614,2708.000,-1772.000,8033.000,78.000,509.000,-434.000,0.000,0.000,0
2026-01-30 23:08:30,397654,2614.000,-1474.000,8144.000,255.000,280.000,-171.000,0.000,0.000,0
2026-01-30 23:08:30,397694,2597.000,-1585.000,8080.000,-119.000,-65.000,114.000,0.000,0.000,0
2026-01-30 23:08:30,397734,2541.000,-1798.000,7827.000,-228.000,-245.000,312.000,0.000,0.000,0
2026-01-30 23:08:30,397774,2494.000,-1689.000,7989.000,137.000,-353.000,306.000,0.000,0.000,0
2026-01-30 23:08:30,397814,2843.000,-1619.000,8084.000,174.000,-454.000,276.000,0.000,0.000,0
2026-01-30 23:08:30,397854,3019.000,-1729.000,8261.000,-18.000,-304.000,283.000,0.000,0.000,0
2026-01-30 23:08:30,397894,2726.000,-1901.000,7992.000,-142.000,-86.000,220.000,0.000,0.000,0
2026-01-30 23:08:30,397934,2745.000,-1987.000,7902.000,2.000,115.000,-95.000,0.000,0.000,0
2026-01-30 23:08:30,397974,2837.000,-1883.000,7617.000,-99.000,-76.000,-12.000,0.000,0.000,0
2026-01-30 23:08:30,398014,2786.000,-2280.000,7691.000,-487.000,-321.000,125.000,0.000,0.000,0
2026-01-30 23:08:30,398054,2938.000,-2471.000,7614.000,-296.000,-506.000,233.000,0.000,0.000,0
2026-01-30 23:08:30,398094,2909.000,-2495.000,7724.000,-57.000,-426.000,363.000,0.000,0.000,0
2026-01-30 23:08:31,398134,2948.000,-2360.000,7818.000,51.000,-341.000,397.000,0.000,0.000,0
2026-01-30 23:08:31,398174,3088.000,-2437.000,7708.000,64.000,-170.000,346.000,0.000,0.000,0
2026-01-30 23:08:31,398214,2869.000,-2310.000,7674.000,192.000,122.000,183.000,0.000,0.000,0
2026-01-30 23:08:31,398254,2754.000,-2396.000,7708.000,459.000,117.000,-158.000,0.000,0.000,0
2026-01-30 23:08:31,398294,3115.000,-2223.000,7894.000,538.000,54.000,-415.000,0.000,0.000,0
2026-01-30 23:08:31,398334,3039.000,-2158.000,7657.000,387.000,398.000,-347.000,0.000,0.000,0
2026-01-30 23:08:31,398374,2863.000,-2233.000,7555.000,92.000,410.000,-211.000,0.000,0.000,0
2026-01-30 23:08:31,398414,2764.000,-2298.000,7579.000,153.000,110.000,-203.000,0.000,0.000,0
2026-01-30 23:08:31,398454,3030.000,-2374.000,7656.000,75.000,-176.000,-142.000,0.000,0.000,0
2026-01-30 23:08:31,398494,3061.000,-2714.000,7463.000,-96.000,-38.000,38.000,0.000,0.000,0
2026-01-30 23:08:31,398534,3167.000,-2740.000,7399.000,27.000,-41.000,255.000,0.000,0.000,0
2026-01-30 23:08:31,398574,2975.000,-2898.000,7359.000,54.000,-107.000,384.000,0.000,0.000,0
2026-01-30 23:08:31,398614,2874.000,-2858.000,7337.000,-25.000,-322.000,484.000,0.000,0.000,0
2026-01-30 23:08:31,398654,3004.000,-2960.000,7240.000,53.000,-518.000,421.000,0.000,0.000,0
2026-01-30 23:08:31,398694,2928.000,-2811.000,7295.000,228.000,-312.000,123.000,0.000,0.000,0
2026-01-30 23:08:31,398734,3041.000,-3069.000,7311.000,550.000,-118.000,-79.000,0.000,0.000,0
2026-01-30 23:08:31,398774,3065.000,-2716.000,7444.000,730.000,107.000,-185.000,0.000,0.000,0
2026-01-30 23:08:31,398814,2999.000,-3161.000,7034.000,70.000,241.000,-45.000,0.000,0.000,0
2026-01-30 23:08:31,398854,2988.000,-3498.000,7045.000,0.000,58.000,73.000,0.000,0.000,0
2026-01-30 23:08:31,398896,2959.000,-3321.000,7082.000,-140.000,-207.000,243.000,0.000,0.000,0
2026-01-30 23:08:31,398935,3080.000,-3659.000,6991.000,-367.000,-503.000,330.000,0.000,0.000,0
2026-01-30 23:08:31,398974,3210.000,-3518.000,7057.000,82.000,-646.000,206.000,0.000,0.000,0
2026-01-30 23:08:31,399014,3391.000,-3197.000,7199.000,369.000,-549.000,-26.000,0.000,0.000,0
2026-01-30 23:08:31,399054,3489.000,-3261.000,7117.000,76.000,82.000,-117.000,0.000,0.000,0
2026-01-30 23:08:31,399094,3375.000,-3111.000,7182.000,344.000,360.000,-230.000,0.000,0.000,0
2026-01-30 23:08:32,399136,3220.000,-2995.000,7119.000,389.000,416.000,-295.000,0.000,0.000,0
2026-01-30 23:08:32,399174,3071.000,-3069.000,7342.000,312.000,366.000,-265.000,0.000,0.000,0
2026-01-30 23:08:32,399214,3096.000,-3004.000,7265.000,111.000,284.000,-56.000,0.000,0.000,0
2026-01-30 23:08:32,399254,3097.000,-3117.000,7210.000,220.000,267.000,46.000,0.000,0.000,0
2026-01-30 23:08:32,399294,2858.000,-2837.000,7235.000,308.000,242.000,10.000,0.000,0.000,0
2026-01-30 23:08:32,399334,2922.000,-2744.000,6968.000,362.000,-64.000,-121.000,0.000,0.000,0
2026-01-30 23:08:32,399374,3109.000,-2899.000,7093.000,-187.000,-438.000,-119.000,0.000,0.000,0
2026-01-30 23:08:32,399414,3518.000,-3239.000,7238.000,-195.000,-451.000,-24.000,0.000,0.000,0
2026-01-30 23:08:32,399454,3199.000,-2851.000,7045.000,292.000,417.000,-4.000,0.000,0.000,0
2026-01-30 23:08:32,399494,2874.000,-2873.000,7073.000,363.000,461.000,-58.000,0.000,0.000,0
2026-01-30 23:08:32,399534,2734.000,-2795.000,7229.000,223.000,81.000,-30.000,0.000,0.000,0
2026-01-30 23:08:32,399574,2837.000,-2996.000,7213.000,-208.000,-314.000,84.000,0.000,0.000,0
2026-01-30 23:08:32,399614,3231.000,-3127.000,7354.000,-203.000,-371.000,77.000,0.000,0.000,0
2026-01-30 23:08:32,399654,3465.000,-2988.000,7218.000,7.000,-16.000,-3.000,0.000,0.000,0
2026-01-30 23:08:32,399694,3311.000,-2913.000,7199.000,200.000,243.000,-253.000,0.000,0.000,0
2026-01-30 23:08:32,399734,3279.000,-2701.000,7199.000,221.000,114.000,-365.000,0.000,0.000,0
2026-01-30 23:08:32,399774,3278.000,-2887.000,7281.000,-96.000,-70.000,-289.000,0.000,0.000,0
2026-01-30 23:08:32,399814,3444.000,-2986.000,7308.000,-128.000,26.000,8.000,0.000,0.000,0
2026-01-30 23:08:32,399854,3146.000,-2849.000,7257.000,-64.000,236.000,156.000,0.000,0.000,0
2026-01-30 23:08:32,399894,2907.000,-2715.000,7129.000,8.000,105.000,138.000,0.000,0.000,0
2026-01-30 23:08:32,399934,2889.000,-2716.000,7114.000,-144.000,-140.000,82.000,0.000,0.000,0
2026-01-30 23:08:32,399974,3051.000,-3005.000,7090.000,-446.000,-335.000,131.000,0.000,0.000,0
2026-01-30 23:08:32,400014,3317.000,-3286.000,7188.000,-299.000,-317.000,162.000,0.000,0.000,0
2026-01-30 23:08:32,400054,3524.000,-3175.000,7285.000,19.000,53.000,161.000,0.000,0.000,0
2026-01-30 23:08:32,400094,3352.000,-3028.000,7093.000,130.000,502.000,84.000,0.000,0.000,0
2026-01-30 23:08:33,400134,3044.000,-2812.000,7116.000,168.000,401.000,-105.000,0.000,0.000,0
2026-01-30 23:08:33,400174,2967.000,-2919.000,7234.000,-196.000,-8.000,-187.000,0.000,0.000,0
2026-01-30 23:08:33,400214,3470.000,-3303.000,7281.000,-515.000,106.000,60.000,0.000,0.000,0
2026-01-30 23:08:33,400254,3549.000,-2942.000,7482.000,7.000,635.000,250.000,0.000,0.000,0
2026-01-30 23:08:33,400294,4177.000,-3595.000,7397.000,-291.000,1151.000,542.000,0.000,0.000,0
2026-01-30 23:08:33,400334,2522.000,-4109.000,7311.000,1041.000,3331.000,251.000,0.000,0.000,0
2026-01-30 23:08:33,400374,2629.000,-3548.000,9765.000,1094.000,3635.000,-684.000,0.000,0.000,0
2026-01-30 23:08:33,400414,2759.000,-2700.000,8825.000,3368.000,5667.000,-345.000,0.000,0.000,0
2026-01-30 23:08:33,400454,1764.000,-850.000,8923.000,2515.000,5316.000,-437.000,0.000,0.000,0
2026-01-30 23:08:33,400494,2915.000,-1501.000,8100.000,-689.000,4695.000,-527.000,0.000,0.000,0
2026-01-30 23:08:33,400534,1246.000,-2659.000,7514.000,-408.000,4894.000,-1258.000,0.000,0.000,0
2026-01-30 23:08:33,400574,1900.000,-1040.000,7588.000,242.000,3565.000,-1448.000,0.000,0.000,0
2026-01-30 23:08:33,400614,1735.000,-2094.000,6585.000,-3169.000,3897.000,-881.000,0.000,0.000,0
2026-01-30 23:08:33,400654,2015.000,-2763.000,6385.000,-2347.000,3849.000,-429.000,0.000,0.000,0
2026-01-30 23:08:33,400694,789.000,-2351.000,6887.000,-1231.000,4041.000,-689.000,0.000,0.000,0
2026-01-30 23:08:33,400734,-627.000,-3297.000,6495.000,-1468.000,3833.000,-714.000,0.000,0.000,0
2026-01-30 23:08:33,400774,-385.000,-3782.000,6577.000,-515.000,2575.000,51.000,0.000,0.000,0
2026-01-30 23:08:33,400814,-1603.000,-3247.000,7163.000,-1532.000,2286.000,758.000,0.000,0.000,0
2026-01-30 23:08:33,400854,-54.000,-4161.000,6800.000,-2390.000,1350.000,2274.000,0.000,0.000,0
2026-01-30 23:08:33,400896,-2233.000,-3741.000,7766.000,-2139.000,1964.000,2722.000,0.000,0.000,0
2026-01-30 23:08:33,400934,-580.000,-4078.000,6588.000,-1487.000,460.000,3532.000,0.000,0.000,0
2026-01-30 23:08:33,400974,-3675.000,-3554.000,6130.000,42.000,848.000,3157.000,0.000,0.000,0
2026-01-30 23:08:33,401014,-2475.000,-3047.000,4722.000,585.000,-2071.000,3683.000,0.000,0.000,0
2026-01-30 23:08:33,401054,-3611.000,-3071.000,5041.000,688.000,-2916.000,3829.000,0.000,0.000,0
2026-01-30 23:08:33,401094,-3806.000,-2206.000,5422.000,1324.000,-5086.000,4524.000,0.000,0.000,0
2026-01-30 23:08:34,401136,-3264.000,-2652.000,6201.000,1162.000,-6017.000,4597.000,0.000,0.000,0
2026-01-30 23:08:34,401174,-3637.000,-495.000,6630.000,2928.000,-6446.000,4785.000,0.000,0.000,0
2026-01-30 23:08:34,401214,-864.000,713.000,9175.000,563.000,-6661.000,4247.000,0.000,0.000,0
2026-01-30 23:08:34,401254,-2568.000,-1768.000,8702.000,-1081.000,-4648.000,3041.000,0.000,0.000,0
2026-01-30 23:08:34,401294,-1492.000,-4038.000,8862.000,550.000,-4806.000,1775.000,0.000,0.000,0
2026-01-30 23:08:34,401334,-980.000,-2237.000,9399.000,3145.000,-4195.000,606.000,0.000,0.000,0
2026-01-30 23:08:34,401374,2598.000,-4266.000,11519.000,-139.000,-3675.000,1965.000,0.000,0.000,0
2026-01-30 23:08:34,401414,1452.000,-1974.000,12294.000,-708.000,823.000,735.000,0.000,0.000,0
2026-01-30 23:08:34,401454,-372.000,-2248.000,9253.000,-472.000,813.000,62.000,0.000,0.000,0
2026-01-30 23:08:34,401494,398.000,-2194.000,8063.000,-981.000,-188.000,-102.000,0.000,0.000,0
2026-01-30 23:08:34,401534,391.000,-3133.000,7698.000,-875.000,-219.000,-484.000,0.000,0.000,0
2026-01-30 23:08:34,401574,976.000,-2465.000,7716.000,484.000,-619.000,-181.000,0.000,0.000,0
2026-01-30 23:08:34,401614,1270.000,-1567.000,8158.000,1163.000,-714.000,212.000,0.000,0.000,0
2026-01-30 23:08:34,401654,1198.000,-1595.000,7831.000,479.000,-496.000,244.000,0.000,0.000,0
2026-01-30 23:08:34,401694,1302.000,-1437.000,8171.000,-577.000,-279.000,-235.000,0.000,0.000,0
2026-01-30 23:08:34,401734,1180.000,-2597.000,8218.000,-1285.000,-230.000,-236.000,0.000,0.000,0
2026-01-30 23:08:34,401774,1040.000,-2905.000,8219.000,-1295.000,54.000,-50.000,0.000,0.000,0
2026-01-30 23:08:34,401814,1110.000,-2886.000,8168.000,-1048.000,-9.000,39.000,0.000,0.000,0
2026-01-30 23:08:34,401854,1009.000,-2988.000,8177.000,-1079.000,-76.000,176.000,0.000,0.000,0
2026-01-30 23:08:34,401894,945.000,-3090.000,7875.000,-756.000,-38.000,221.000,0.000,0.000,0
2026-01-30 23:08:34,401934,836.000,-3220.000,7817.000,-761.000,-24.000,169.000,0.000,0.000,0
2026-01-30 23:08:34,401974,552.000,-3025.000,7981.000,-455.000,-67.000,35.000,0.000,0.000,0
2026-01-30 23:08:34,402014,635.000,-3062.000,9792.000,-1200.000,-198.000,-43.000,0.000,0.000,0
2026-01-30 23:08:34,402054,1270.000,-3947.000,12097.000,-2654.000,221.000,-148.000,0.000,0.000,0
2026-01-30 23:08:34,402094,1417.000,-4589.000,10532.000,-1212.000,3118.000,-488.000,0.000,0.000,0
2026-01-30 23:08:35,402134,-6.000,-5423.000,9739.000,-1906.000,7216.000,630.000,0.000,0.000,0
2026-01-30 23:08:35,402174,-2294.000,-3374.000,8622.000,-1294.000,8711.000,411.000,0.000,0.000,0
2026-01-30 23:08:35,402214,-3073.000,-2157.000,6795.000,-2005.000,8461.000,-59.000,0.000,0.000,0
2026-01-30 23:08:35,402254,-4393.000,-2481.000,5014.000,-4156.000,7807.000,-862.000,0.000,0.000,0
2026-01-30 23:08:35,402294,-5317.000,-3750.000,3284.000,-3340.000,6257.000,-1758.000,0.000,0.000,0
2026-01-30 23:08:35,402334,-5761.000,-3406.000,3192.000,-216.000,3950.000,-2811.000,0.000,0.000,0
2026-01-30 23:08:35,402374,-4581.000,-2475.000,5425.000,-100.000,803.000,-2917.000,0.000,0.000,0
2026-01-30 23:08:35,402414,-3467.000,-3650.000,5796.000,-1652.000,-1232.000,-2562.000,0.000,0.000,0
2026-01-30 23:08:35,402454,-2510.000,-4671.000,6601.000,-2262.000,-2789.000,-1892.000,0.000,0.000,0
2026-01-30 23:08:35,402494,-181.000,-4831.000,6236.000,-3269.000,-937.000,-874.000,0.000,0.000,0
2026-01-30 23:08:35,402534,-427.000,-4684.000,4594.000,726.000,-1075.000,-781.000,0.000,0.000,0
2026-01-30 23:08:35,402574,-180.000,-3496.000,4686.000,1764.000,-1546.000,-1588.000,0.000,0.000,0
2026-01-30 23:08:35,402614,1084.000,-3459.000,3465.000,-1951.000,-2464.000,-1471.000,0.000,0.000,0
2026-01-30 23:08:35,402654,1229.000,-7138.000,4293.000,-3576.000,-2399.000,-2444.000,0.000,0.000,0
2026-01-30 23:08:35,402694,2060.000,-5149.000,3988.000,-478.000,-2829.000,-2640.000,0.000,0.000,0
2026-01-30 23:08:35,402734,3077.000,-11214.000,10313.000,426.000,-3124.000,-3020.000,0.000,0.000,0
2026-01-30 23:08:35,402774,2245.000,-3026.000,4331.000,3902.000,-2781.000,-2517.000,0.000,0.000,0
2026-01-30 23:08:35,402814,-242.000,-9465.000,4902.000,-2095.000,-697.000,-1215.000,0.000,0.000,0
2026-01-30 23:08:35,402856,1073.000,-3627.000,7779.000,8071.000,-4514.000,2856.000,0.000,0.000,0
2026-01-30 23:08:35,402895,179.000,-3626.000,7795.000,383.000,-2147.000,463.000,0.000,0.000,0
2026-01-30 23:08:35,402934,1473.000,-5367.000,6707.000,-1388.000,-1097.000,-1032.000,0.000,0.000,0
2026-01-30 23:08:35,402974,1137.000,-5262.000,6893.000,-656.000,503.000,-35.000,0.000,0.000,0
2026-01-30 23:08:35,403014,488.000,-5615.000,6794.000,-841.000,741.000,1091.000,0.000,0.000,0
2026-01-30 23:08:35,403054,59.000,-5560.000,6542.000,237.000,262.000,965.000,0.000,0.000,0
2026-01-30 23:08:35,403094,338.000,-4613.000,6912.000,856.000,-355.000,-98.000,0.000,0.000,0
2026-01-30 23:08:36,403137,722.000,-5017.000,6649.000,140.000,-594.000,-297.000,0.000,0.000,0
2026-01-30 23:08:36,403174,929.000,-4915.000,6643.000,354.000,-482.000,-311.000,0.000,0.000,0
2026-01-30 23:08:36,403214,823.000,-5014.000,6703.000,394.000,-65.000,-69.000,0.000,0.000,0
2026-01-30 23:08:36,403254,539.000,-4831.000,6911.000,63.000,167.000,112.000,0.000,0.000,0
2026-01-30 23:08:36,403294,490.000,-5122.000,6759.000,55.000,126.000,125.000,0.000,0.000,0
2026-01-30 23:08:36,403334,430.000,-4818.000,6934.000,516.000,160.000,187.000,0.000,0.000,0
2026-01-30 23:08:36,403374,386.000,-4685.000,7030.000,355.000,4.000,94.000,0.000,0.000,0
2026-01-30 23:08:36,403414,504.000,-4802.000,7006.000,279.000,-231.000,-215.000,0.000,0.000,0
2026-01-30 23:08:36,403454,812.000,-4826.000,6984.000,331.000,-299.000,-285.000,0.000,0.000,0
2026-01-30 23:08:36,403494,837.000,-4669.000,7033.000,403.000,-141.000,-146.000,0.000,0.000,0
2026-01-30 23:08:36,403534,720.000,-4645.000,6935.000,271.000,19.000,-16.000,0.000,0.000,0
2026-01-30 23:08:36,403574,607.000,-4532.000,6988.000,351.000,-40.000,-105.000,0.000,0.000,0
2026-01-30 23:08:36,403614,683.000,-4608.000,7079.000,194.000,-255.000,-183.000,0.000,0.000,0
2026-01-30 23:08:36,403654,860.000,-4443.000,7266.000,357.000,-252.000,-91.000,0.000,0.000,0
2026-01-30 23:08:36,403694,801.000,-4412.000,7282.000,327.000,-19.000,1.000,0.000,0.000,0
2026-01-30 23:08:36,403734,813.000,-4431.000,7195.000,248.000,164.000,57.000,0.000,0.000,0
2026-01-30 23:08:36,403774,780.000,-4314.000,7182.000,281.000,134.000,-18.000,0.000,0.000,0
2026-01-30 23:08:36,403814,710.000,-4336.000,7148.000,67.000,-58.000,-98.000,0.000,0.000,0
2026-01-30 23:08:36,403854,842.000,-4355.000,7116.000,65.000,-259.000,-142.000,0.000,0.000,0
2026-01-30 23:08:36,403894,936.000,-4403.000,7099.000,83.000,-204.000,-46.000,0.000,0.000,0
2026-01-30 23:08:36,403934,929.000,-4295.000,7229.000,79.000,-45.000,9.000,0.000,0.000,0
2026-01-30 23:08:36,403974,929.000,-4469.000,7174.000,9.000,41.000,57.000,0.000,0.000,0
2026-01-30 23:08:36,404014,711.000,-4178.000,7231.000,287.000,50.000,-25.000,0.000,0.000,0
2026-01-30 23:08:36,404054,793.000,-4364.000,7166.000,19.000,-131.000,-102.000,0.000,0.000,0
2026-01-30 23:08:36,404094,875.000,-4321.000,7322.000,97.000,-164.000,-171.000,0.000,0.000,0
2026-01-30 23:08:37,404134,1007.000,-4542.000,7225.000,11.000,-46.000,-34.000,0.000,0.000,0
2026-01-30 23:08:37,404174,785.000,-4232.000,7204.000,209.000,237.000,180.000,0.000,0.000,0
2026-01-30 23:08:37,404214,675.000,-4217.000,7204.000,85.000,199.000,146.000,0.000,0.000,0
2026-01-30 23:08:37,404254,770.000,-4313.000,7305.000,75.000,-6.000,-55.000,0.000,0.000,0
2026-01-30 23:08:37,404294,1000.000,-4245.000,7324.000,183.000,-132.000,-204.000,0.000,0.000,0
2026-01-30 23:08:37,404334,988.000,-4230.000,7257.000,221.000,-16.000,-93.000,0.000,0.000,0
2026-01-30 23:08:37,404374,889.000,-4078.000,7289.000,277.000,163.000,17.000,0.000,0.000,0
2026-01-30 23:08:37,404414,571.000,-4205.000,7378.000,6.000,271.000,169.000,0.000,0.000,0
2026-01-30 23:08:37,404454,590.000,-4174.000,7356.000,54.000,232.000,218.000,0.000,0.000,0
2026-01-30 23:08:37,404494,562.000,-4084.000,7459.000,100.000,174.000,193.000,0.000,0.000,0
2026-01-30 23:08:37,404534,632.000,-4092.000,7347.000,-106.000,-54.000,2.000,0.000,0.000,0
2026-01-30 23:08:37,404574,857.000,-4258.000,7254.000,-107.000,-234.000,-167.000,0.000,0.000,0
2026-01-30 23:08:37,404614,900.000,-4228.000,7239.000,53.000,-174.000,-189.000,0.000,0.000,0
2026-01-30 23:08:37,404654,939.000,-4122.000,7238.000,141.000,-77.000,-198.000,0.000,0.000,0
2026-01-30 23:08:37,404694,937.000,-4266.000,7194.000,47.000,-65.000,-191.000,0.000,0.000,0
2026-01-30 23:08:37,404734,934.000,-4127.000,7156.000,135.000,-35.000,-68.000,0.000,0.000,0
2026-01-30 23:08:37,404774,679.000,-4078.000,7300.000,38.000,20.000,107.000,0.000,0.000,0
2026-01-30 23:08:37,404814,744.000,-4246.000,7436.000,-205.000,43.000,174.000,0.000,0.000,0
2026-01-30 23:08:37,404854,766.000,-4322.000,7354.000,-101.000,113.000,174.000,0.000,0.000,0
2026-01-30 23:08:37,404894,596.000,-4192.000,7351.000,71.000,200.000,164.000,0.000,0.000,0
2026-01-30 23:08:37,404936,587.000,-4159.000,7357.000,60.000,123.000,33.000,0.000,0.000,0
2026-01-30 23:08:37,404974,625.000,-4193.000,7354.000,15.000,-13.000,-90.000,0.000,0.000,0
2026-01-30 23:08:37,405018,759.000,-4237.000,7311.000,66.000,-71.000,-116.000,0.000,0.000,0
2026-01-30 23:08:37,405054,692.000,-4076.000,7289.000,220.000,94.000,-37.000,0.000,0.000,0
2026-01-30 23:08:37,405094,647.000,-3913.000,7266.000,59.000,145.000,60.000,0.000,0.000,0
2026-01-30 23:08:38,405136,674.000,-4022.000,7334.000,-22.000,-14.000,-22.000,0.000,0.000,0
2026-01-30 23:08:38,405174,785.000,-4233.000,7342.000,-46.000,-56.000,-30.000,0.000,0.000,0
2026-01-30 23:08:38,405214,731.000,-4027.000,7374.000,66.000,151.000,69.000,0.000,0.000,0
2026-01-30 23:08:38,405254,612.000,-4059.000,7415.000,31.000,124.000,58.000,0.000,0.000,0
2026-01-30 23:08:38,405294,726.000,-4174.000,7503.000,3.000,-58.000,-85.000,0.000,0.000,0
2026-01-30 23:08:38,405334,971.000,-4243.000,7509.000,49.000,-118.000,-105.000,0.000,0.000,0
2026-01-30 23:08:38,405374,857.000,-4090.000,7389.000,207.000,102.000,36.000,0.000,0.000,0
2026-01-30 23:08:38,405414,718.000,-3875.000,7342.000,178.000,76.000,-4.000,0.000,0.000,0
2026-01-30 23:08:38,405454,688.000,-3887.000,7312.000,61.000,-166.000,-153.000,0.000,0.000,0
2026-01-30 23:08:38,405494,925.000,-3968.000,7338.000,-11.000,-301.000,-170.000,0.000,0.000,0
2026-01-30 23:08:38,405534,930.000,-3918.000,7423.000,54.000,15.000,34.000,0.000,0.000,0
2026-01-30 23:08:38,405574,744.000,-4096.000,7341.000,-182.000,275.000,220.000,0.000,0.000,0
2026-01-30 23:08:38,405614,589.000,-4119.000,7361.000,-130.000,118.000,196.000,0.000,0.000,0
2026-01-30 23:08:38,405654,647.000,-4147.000,7387.000,-210.000,-210.000,60.000,0.000,0.000,0
2026-01-30 23:08:38,405694,799.000,-4290.000,7298.000,-142.000,-323.000,-46.000,0.000,0.000,0
2026-01-30 23:08:38,405734,876.000,-4098.000,7351.000,12.000,-210.000,-92.000,0.000,0.000,0
2026-01-30 23:08:38,405774,860.000,-4171.000,7328.000,76.000,-90.000,-82.000,0.000,0.000,0
2026-01-30 23:08:38,405814,854.000,-4046.000,7353.000,117.000,-43.000,-78.000,0.000,0.000,0
2026-01-30 23:08:38,405854,853.000,-4094.000,7313.000,64.000,-19.000,-47.000,0.000,0.000,0
2026-01-30 23:08:38,405894,816.000,-4071.000,7389.000,72.000,15.000,-20.000,0.000,0.000,0
2026-01-30 23:08:38,405934,743.000,-4066.000,7284.000,3.000,-1.000,61.000,0.000,0.000,0
2026-01-30 23:08:38,405974,747.000,-4054.000,7324.000,-16.000,-55.000,79.000,0.000,0.000,0
2026-01-30 23:08:38,406014,785.000,-4104.000,7318.000,-6.000,-31.000,61.000,0.000,0.000,0
2026-01-30 23:08:38,406054,824.000,-4074.000,7445.000,52.000,-22.000,78.000,0.000,0.000,0
2026-01-30 23:08:38,406094,806.000,-4125.000,7311.000,-73.000,-17.000,23.000,0.000,0.000,0
2026-01-30 23:08:39,406134,842.000,-4180.000,7296.000,-84.000,8.000,52.000,0.000,0.000,0
2026-01-30 23:08:39,406174,786.000,-4129.000,7318.000,19.000,26.000,53.000,0.000,0.000,0
2026-01-30 23:08:39,406214,840.000,-4197.000,7289.000,54.000,-50.000,-76.000,0.000,0.000,0
2026-01-30 23:08:39,406254,919.000,-4119.000,7468.000,128.000,-59.000,-103.000,0.000,0.000,0
2026-01-30 23:08:39,406294,931.000,-4077.000,7508.000,178.000,48.000,-47.000,0.000,0.000,0
2026-01-30 23:08:39,406334,767.000,-3982.000,7492.000,159.000,243.000,73.000,0.000,0.000,0
2026-01-30 23:08:39,406374,694.000,-4055.000,7355.000,2.000,127.000,61.000,0.000,0.000,0
2026-01-30 23:08:39,406414,813.000,-4041.000,7250.000,-58.000,-145.000,-86.000,0.000,0.000,0
2026-01-30 23:08:39,406454,935.000,-4105.000,7143.000,-23.000,-243.000,-119.000,0.000,0.000,0
2026-01-30 23:08:39,406494,928.000,-4080.000,7158.000,-145.000,-136.000,-30.000,0.000,0.000,0
2026-01-30 23:08:39,406534,889.000,-4386.000,7085.000,-294.000,7.000,139.000,0.000,0.000,0
2026-01-30 23:08:39,406574,750.000,-4369.000,7093.000,-198.000,149.000,286.000,0.000,0.000,0
2026-01-30 23:08:39,406614,636.000,-4421.000,7146.000,-94.000,157.000,248.000,0.000,0.000,0
2026-01-30 23:08:39,406654,673.000,-4413.000,7221.000,-18.000,41.000,107.000,0.000,0.000,0
2026-01-30 23:08:39,406694,766.000,-4341.000,7163.000,51.000,-100.000,-106.000,0.000,0.000,0
2026-01-30 23:08:39,406734,792.000,-4339.000,7114.000,66.000,-64.000,-126.000,0.000,0.000,0
2026-01-30 23:08:39,406774,830.000,-4360.000,7101.000,17.000,20.000,-58.000,0.000,0.000,0
2026-01-30 23:08:39,406814,794.000,-4320.000,7147.000,22.000,131.000,29.000,0.000,0.000,0
2026-01-30 23:08:39,406854,827.000,-4469.000,7205.000,-57.000,116.000,36.000,0.000,0.000,0
2026-01-30 23:08:39,406894,795.000,-4489.000,7184.000,-17.000,95.000,25.000,0.000,0.000,0
2026-01-30 23:08:39,406934,785.000,-4432.000,7210.000,60.000,46.000,-3.000,0.000,0.000,0
2026-01-30 23:08:39,406974,733.000,-4392.000,7197.000,13.000,-2.000,-28.000,0.000,0.000,0
2026-01-30 23:08:39,407014,757.000,-4397.000,7225.000,15.000,-54.000,-58.000,0.000,0.000,0
2026-01-30 23:08:39,407054,806.000,-4355.000,7242.000,13.000,-38.000,-34.000,0.000,0.000,0
2026-01-30 23:08:39,407094,805.000,-4382.000,7139.000,7.000,50.000,23.000,0.000,0.000,0
2026-01-30 23:08:40,407136,701.000,-4379.000,7127.000,-30.000,67.000,43.000,0.000,0.000,0
2026-01-30 23:08:40,407174,723.000,-4348.000,7127.000,-9.000,-10.000,-27.000,0.000,0.000,0
2026-01-30 23:08:40,407214,772.000,-4471.000,7223.000,3.000,-39.000,-34.000,0.000,0.000,0
2026-01-30 23:08:40,407254,795.000,-4459.000,7189.000,33.000,22.000,-37.000,0.000,0.000,0
2026-01-30 23:08:40,407294,753.000,-4357.000,7265.000,95.000,121.000,17.000,0.000,0.000,0
2026-01-30 23:08:40,407334,742.000,-4379.000,7212.000,56.000,56.000,-30.000,0.000,0.000,0
2026-01-30 23:08:40,407374,738.000,-4303.000,7192.000,81.000,-28.000,-59.000,0.000,0.000,0
2026-01-30 23:08:40,407414,781.000,-4280.000,7201.000,80.000,-64.000,-88.000,0.000,0.000,0
2026-01-30 23:08:40,407454,811.000,-4388.000,7265.000,44.000,16.000,3.000,0.000,0.000,0
2026-01-30 23:08:40,407494,789.000,-4334.000,7242.000,-36.000,118.000,84.000,0.000,0.000,0
2026-01-30 23:08:40,407534,681.000,-4240.000,7201.000,-68.000,131.000,118.000,0.000,0.000,0
2026-01-30 23:08:40,407574,631.000,-4336.000,7185.000,-185.000,-59.000,22.000,0.000,0.000,0
2026-01-30 23:08:40,407614,785.000,-4367.000,7174.000,-115.000,-255.000,-104.000,0.000,0.000,0
2026-01-30 23:08:40,407654,940.000,-4399.000,7198.000,-78.000,-188.000,-75.000,0.000,0.000,0
2026-01-30 23:08:40,407694,891.000,-4370.000,7161.000,-21.000,51.000,16.000,0.000,0.000,0
2026-01-30 23:08:40,407734,797.000,-4355.000,7154.000,-54.000,108.000,64.000,0.000,0.000,0
2026-01-30 23:08:40,407774,757.000,-4434.000,7075.000,-99.000,0.000,30.000,0.000,0.000,0
2026-01-30 23:08:40,407814,833.000,-4383.000,7125.000,-17.000,-96.000,-56.000,0.000,0.000,0
2026-01-30 23:08:40,407854,884.000,-4420.000,7133.000,-96.000,-46.000,-8.000,0.000,0.000,0
2026-01-30 23:08:40,407894,850.000,-4436.000,7135.000,-19.000,41.000,14.000,0.000,0.000,0
2026-01-30 23:08:40,407934,831.000,-4416.000,7166.000,-33.000,94.000,46.000,0.000,0.000,0
2026-01-30 23:08:40,407974,783.000,-4378.000,7174.000,-80.000,90.000,60.000,0.000,0.000,0
2026-01-30 23:08:40,408014,751.000,-4487.000,7123.000,-153.000,19.000,40.000,0.000,0.000,0
2026-01-30 23:08:40,408054,703.000,-4372.000,7143.000,-171.000,-6.000,57.000,0.000,0.000,0
2026-01-30 23:08:40,408094,763.000,-4371.000,7131.000,-311.000,-24.000,56.000,0.000,0.000,0
2026-01-30 23:08:41,408134,713.000,-4572.000,7052.000,-308.000,14.000,10.000,0.000,0.000,0
2026-01-30 23:08:41,408174,812.000,-4573.000,7077.000,-152.000,-37.000,-20.000,0.000,0.000,0
2026-01-30 23:08:41,408214,769.000,-4422.000,7164.000,21.000,25.000,-13.000,0.000,0.000,0
2026-01-30 23:08:41,408254,769.000,-4500.000,7079.000,-87.000,1.000,-11.000,0.000,0.000,0
2026-01-30 23:08:41,408294,756.000,-4573.000,6997.000,-63.000,-22.000,-10.000,0.000,0.000,0
2026-01-30 23:08:41,408334,859.000,-4491.000,7106.000,32.000,-71.000,-65.000,0.000,0.000,0
2026-01-30 23:08:41,408374,932.000,-4585.000,7102.000,-14.000,-58.000,-63.000,0.000,0.000,0
2026-01-30 23:08:41,408414,944.000,-4493.000,7155.000,97.000,32.000,-64.000,0.000,0.000,0
2026-01-30 23:08:41,408454,843.000,-4441.000,7094.000,126.000,153.000,13.000,0.000,0.000,0
2026-01-30 23:08:41,408494,721.000,-4316.000,7082.000,120.000,158.000,38.000,0.000,0.000,0
2026-01-30 23:08:41,408534,689.000,-4355.000,7120.000,29.000,-8.000,-29.000,0.000,0.000,0
2026-01-30 23:08:41,408574,898.000,-4439.000,7160.000,-33.000,-130.000,-81.000,0.000,0.000,0
2026-01-30 23:08:41,408614,868.000,-4466.000,7141.000,-38.000,151.000,143.000,0.000,0.000,0
2026-01-30 23:08:41,408654,643.000,-4334.000,7084.000,19.000,240.000,181.000,0.000,0.000,0
2026-01-30 23:08:41,408694,589.000,-4351.000,7176.000,38.000,14.000,19.000,0.000,0.000,0
2026-01-30 23:08:41,408734,726.000,-4408.000,7222.000,107.000,-186.000,-161.000,0.000,0.000,0
2026-01-30 23:08:41,408774,937.000,-4342.000,7261.000,162.000,-98.000,-145.000,0.000,0.000,0
2026-01-30 23:08:41,408814,844.000,-4287.000,7259.000,215.000,143.000,3.000,0.000,0.000,0
2026-01-30 23:08:41,408854,703.000,-4133.000,7270.000,171.000,172.000,37.000,0.000,0.000,0
2026-01-30 23:08:41,408894,720.000,-4220.000,7247.000,46.000,-53.000,-79.000,0.000,0.000,0
2026-01-30 23:08:41,408936,799.000,-4283.000,7241.000,52.000,-173.000,-141.000,0.000,0.000,0
2026-01-30 23:08:41,408976,957.000,-4243.000,7220.000,90.000,-87.000,-105.000,0.000,0.000,0
2026-01-30 23:08:41,409014,876.000,-4115.000,7268.000,46.000,8.000,22.000,0.000,0.000,0
2026-01-30 23:08:41,409054,817.000,-4196.000,7233.000,-31.000,-65.000,17.000,0.000,0.000,0
2026-01-30 23:08:41,409094,852.000,-4177.000,7285.000,5.000,-121.000,-46.000,0.000,0.000,0
2026-01-30 23:08:42,409136,924.000,-4170.000,7305.000,62.000,-60.000,-67.000,0.000,0.000,0
2026-01-30 23:08:42,409174,859.000,-4159.000,7302.000,43.000,59.000,2.000,0.000,0.000,0
2026-01-30 23:08:42,409214,782.000,-4119.000,7247.000,14.000,72.000,29.000,0.000,0.000,0
2026-01-30 23:08:42,409254,817.000,-4104.000,7276.000,9.000,-22.000,-8.000,0.000,0.000,0
2026-01-30 23:08:42,409294,885.000,-4177.000,7309.000,66.000,-26.000,-34.000,0.000,0.000,0
2026-01-30 23:08:42,409334,888.000,-4058.000,7404.000,124.000,58.000,8.000,0.000,0.000,0
2026-01-30 23:08:42,409374,916.000,-4104.000,7431.000,125.000,77.000,-46.000,0.000,0.000,0
2026-01-30 23:08:42,409414,889.000,-3982.000,7408.000,145.000,91.000,-1.000,0.000,0.000,0
2026-01-30 23:08:42,409454,827.000,-3974.000,7382.000,125.000,98.000,2.000,0.000,0.000,0
2026-01-30 23:08:42,409494,820.000,-3938.000,7405.000,20.000,47.000,6.000,0.000,0.000,0
2026-01-30 23:08:42,409534,840.000,-3984.000,7442.000,-5.000,8.000,-1.000,0.000,0.000,0
2026-01-30 23:08:42,409574,830.000,-4043.000,7430.000,-52.000,59.000,49.000,0.000,0.000,0
2026-01-30 23:08:42,409614,777.000,-4031.000,7410.000,-49.000,102.000,72.000,0.000,0.000,0
2026-01-30 23:08:42,409654,659.000,-4011.000,7441.000,-66.000,86.000,81.000,0.000,0.000,0
2026-01-30 23:08:42,409694,676.000,-4040.000,7421.000,-35.000,31.000,23.000,0.000,0.000,0
2026-01-30 23:08:42,409734,779.000,-4027.000,7467.000,20.000,-24.000,-53.000,0.000,0.000,0
2026-01-30 23:08:42,409774,821.000,-3977.000,7521.000,107.000,89.000,-60.000,0.000,0.000,0
2026-01-30 23:08:42,409814,817.000,-3943.000,7531.000,96.000,129.000,-17.000,0.000,0.000,0
2026-01-30 23:08:42,409854,750.000,-3926.000,7465.000,100.000,149.000,23.000,0.000,0.000,0
2026-01-30 23:08:42,409894,768.000,-3863.000,7481.000,117.000,97.000,-12.000,0.000,0.000,0
2026-01-30 23:08:42,409934,798.000,-3838.000,7509.000,38.000,32.000,0.000,0.000,0.000,0
2026-01-30 23:08:42,409974,810.000,-3943.000,7450.000,-23.000,-20.000,-11.000,0.000,0.000,0
2026-01-30 23:08:42,410014,829.000,-3823.000,7434.000,9.000,1.000,14.000,0.000,0.000,0
2026-01-30 23:08:42,410054,742.000,-3902.000,7446.000,-39.000,65.000,66.000,0.000,0.000,0
2026-01-30 23:08:42,410094,800.000,-3908.000,7520.000,-24.000,89.000,64.000,0.000,0.000,0
2026-01-30 23:08:43,410134,736.000,-3979.000,7499.000,12.000,118.000,57.000,0.000,0.000,0
2026-01-30 23:08:43,410174,685.000,-3935.000,7452.000,13.000,21.000,17.000,0.000,0.000,0
2026-01-30 23:08:43,410214,752.000,-3931.000,7414.000,-14.000,-91.000,-42.000,0.000,0.000,0
2026-01-30 23:08:43,410254,808.000,-3896.000,7371.000,3.000,-112.000,-46.000,0.000,0.000,0
2026-01-30 23:08:43,410294,790.000,-3897.000,7385.000,20.000,-88.000,-45.000,0.000,0.000,0
2026-01-30 23:08:43,410334,870.000,-3884.000,7390.000,4.000,-46.000,-37.000,0.000,0.000,0
2026-01-30 23:08:43,410374,833.000,-3915.000,7409.000,23.000,61.000,15.000,0.000,0.000,0
2026-01-30 23:08:43,410414,838.000,-3916.000,7431.000,9.000,71.000,5.000,0.000,0.000,0
2026-01-30 23:08:43,410454,691.000,-3977.000,7422.000,-35.000,74.000,63.000,0.000,0.000,0
2026-01-30 23:08:43,410494,710.000,-3975.000,7426.000,-85.000,16.000,57.000,0.000,0.000,0
2026-01-30 23:08:43,410534,740.000,-4026.000,7406.000,-41.000,28.000,62.000,0.000,0.000,0
2026-01-30 23:08:43,410574,707.000,-3893.000,7472.000,66.000,25.000,3.000,0.000,0.000,0
2026-01-30 23:08:43,410614,785.000,-3916.000,7412.000,24.000,-31.000,-49.000,0.000,0.000,0
2026-01-30 23:08:43,410654,776.000,-3894.000,7458.000,91.000,8.000,-58.000,0.000,0.000,0
2026-01-30 23:08:43,410694,860.000,-3978.000,7466.000,1.000,-10.000,-73.000,0.000,0.000,0
2026-01-30 23:08:43,410734,804.000,-4006.000,7420.000,-5.000,45.000,-5.000,0.000,0.000,0
2026-01-30 23:08:43,410774,706.000,-3886.000,7416.000,5.000,52.000,51.000,0.000,0.000,0
2026-01-30 23:08:43,410814,750.000,-3990.000,7438.000,-111.000,-96.000,-29.000,0.000,0.000,0
2026-01-30 23:08:43,410854,864.000,-4079.000,7419.000,-8.000,-112.000,-54.000,0.000,0.000,0
2026-01-30 23:08:43,410894,701.000,-3922.000,7443.000,-22.000,71.000,85.000,0.000,0.000,0
2026-01-30 23:08:43,410934,716.000,-3962.000,7455.000,-53.000,69.000,53.000,0.000,0.000,0
2026-01-30 23:08:43,410976,729.000,-3973.000,7430.000,-28.000,39.000,37.000,0.000,0.000,0
2026-01-30 23:08:43,411015,789.000,-3899.000,7465.000,37.000,15.000,13.000,0.000,0.000,0
2026-01-30 23:08:43,411054,791.000,-3934.000,7471.000,56.000,72.000,-5.000,0.000,0.000,0
2026-01-30 23:08:43,411094,736.000,-3907.000,7459.000,101.000,68.000,-25.000,0.000,0.000,0
2026-01-30 23:08:44,411134,737.000,-3838.000,7460.000,103.000,20.000,-38.000,0.000,0.000,0
2026-01-30 23:08:44,411174,763.000,-3844.000,7506.000,85.000,-9.000,-54.000,0.000,0.000,0
2026-01-30 23:08:44,411214,751.000,-3894.000,7511.000,16.000,30.000,3.000,0.000,0.000,0
2026-01-30 23:08:44,411254,744.000,-3876.000,7528.000,6.000,48.000,17.000,0.000,0.000,0
2026-01-30 23:08:44,411294,759.000,-3905.000,7492.000,-72.000,23.000,40.000,0.000,0.000,0
2026-01-30 23:08:44,411334,774.000,-3879.000,7489.000,1.000,-29.000,6.000,0.000,0.000,0
2026-01-30 23:08:44,411374,790.000,-3867.000,7482.000,-31.000,-43.000,47.000,0.000,0.000,0
2026-01-30 23:08:44,411414,777.000,-3874.000,7469.000,-38.000,16.000,122.000,0.000,0.000,0
2026-01-30 23:08:44,411454,670.000,-3910.000,7483.000,-10.000,75.000,121.000,0.000,0.000,0
2026-01-30 23:08:44,411494,655.000,-3934.000,7451.000,8.000,61.000,69.000,0.000,0.000,0
2026-01-30 23:08:44,411534,689.000,-3878.000,7484.000,103.000,45.000,92.000,0.000,0.000,0
2026-01-30 23:08:44,411574,641.000,-3820.000,7483.000,-14.000,21.000,106.000,0.000,0.000,0
2026-01-30 23:08:44,411614,599.000,-4002.000,7404.000,-38.000,-78.000,9.000,0.000,0.000,0
2026-01-30 23:08:44,411654,767.000,-3961.000,7457.000,13.000,-214.000,-11.000,0.000,0.000,0
2026-01-30 23:08:44,411694,830.000,-3950.000,7479.000,-7.000,-120.000,44.000,0.000,0.000,0
2026-01-30 23:08:44,411734,715.000,-4008.000,7441.000,29.000,5.000,26.000,0.000,0.000,0
2026-01-30 23:08:44,411774,740.000,-3980.000,7425.000,76.000,-30.000,10.000,0.000,0.000,0
2026-01-30 23:08:44,411814,738.000,-3940.000,7435.000,138.000,-25.000,-15.000,0.000,0.000,0
2026-01-30 23:08:44,411854,811.000,-3934.000,7433.000,75.000,18.000,11.000,0.000,0.000,0
2026-01-30 23:08:44,411894,722.000,-3918.000,7467.000,113.000,84.000,22.000,0.000,0.000,0
2026-01-30 23:08:44,411934,785.000,-3897.000,7455.000,56.000,17.000,-23.000,0.000,0.000,0
2026-01-30 23:08:44,411974,712.000,-4002.000,7379.000,77.000,47.000,-6.000,0.000,0.000,0
2026-01-30 23:08:44,412014,760.000,-3822.000,7455.000,130.000,10.000,-20.000,0.000,0.000,0
2026-01-30 23:08:44,412054,759.000,-3917.000,7458.000,2.000,-86.000,-27.000,0.000,0.000,0
2026-01-30 23:08:44,412094,747.000,-3969.000,7459.000,17.000,-67.000,-42.000,0.000,0.000,0
2026-01-30 23:08:45,412134,745.000,-3949.000,7442.000,119.000,-121.000,-87.000,0.000,0.000,0
2026-01-30 23:08:45,412174,821.000,-3958.000,7482.000,185.000,-151.000,-171.000,0.000,0.000,0
2026-01-30 23:08:45,412214,1303.000,-4029.000,7428.000,260.000,183.000,98.000,0.000,0.000,0
2026-01-30 23:08:45,412254,659.000,-4030.000,7450.000,629.000,949.000,592.000,0.000,0.000,0
2026-01-30 23:08:45,412294,352.000,-3656.000,7499.000,630.000,664.000,557.000,0.000,0.000,0
2026-01-30 23:08:45,412334,422.000,-3517.000,7531.000,148.000,-37.000,403.000,0.000,0.000,0
2026-01-30 23:08:45,412374,427.000,-3929.000,7472.000,11.000,-505.000,267.000,0.000,0.000,0
2026-01-30 23:08:45,412414,614.000,-3914.000,7480.000,26.000,-737.000,327.000,0.000,0.000,0
2026-01-30 23:08:45,412454,743.000,-3838.000,7506.000,27.000,-731.000,246.000,0.000,0.000,0
2026-01-30 23:08:45,412494,805.000,-3899.000,7503.000,251.000,-523.000,200.000,0.000,0.000,0
2026-01-30 23:08:45,412534,865.000,-3730.000,7538.000,209.000,-327.000,168.000,0.000,0.000,0
2026-01-30 23:08:45,412574,769.000,-3704.000,7506.000,247.000,-218.000,3.000,0.000,0.000,0
2026-01-30 23:08:45,412614,842.000,-3726.000,7519.000,166.000,-293.000,-134.000,0.000,0.000,0
2026-01-30 23:08:45,412654,894.000,-3771.000,7482.000,161.000,-261.000,-92.000,0.000,0.000,0
2026-01-30 23:08:45,412694,900.000,-3595.000,7571.000,156.000,-203.000,-87.000,0.000,0.000,0
2026-01-30 23:08:45,412734,920.000,-3848.000,7510.000,2.000,-116.000,-70.000,0.000,0.000,0
2026-01-30 23:08:45,412774,938.000,-3749.000,7574.000,120.000,-36.000,-112.000,0.000,0.000,0
2026-01-30 23:08:45,412814,962.000,-3740.000,7525.000,212.000,91.000,-22.000,0.000,0.000,0
2026-01-30 23:08:45,412854,918.000,-3641.000,7543.000,240.000,90.000,-22.000,0.000,0.000,0
2026-01-30 23:08:45,412894,891.000,-3681.000,7549.000,171.000,100.000,-2.000,0.000,0.000,0
2026-01-30 23:08:45,412936,918.000,-3666.000,7570.000,139.000,56.000,-16.000,0.000,0.000,0
2026-01-30 23:08:45,412976,888.000,-3707.000,7549.000,172.000,29.000,-19.000,0.000,0.000,0
2026-01-30 23:08:45,413014,893.000,-3621.000,7568.000,223.000,0.000,-7.000,0.000,0.000,0
2026-01-30 23:08:45,413054,898.000,-3526.000,7608.000,204.000,24.000,0.000,0.000,0.000,0
2026-01-30 23:08:45,413094,868.000,-3649.000,7584.000,73.000,40.000,-3.000,0.000,0.000,0
2026-01-30 23:08:46,413134,909.000,-3637.000,7579.000,188.000,28.000,-26.000,0.000,0.000,0
2026-01-30 23:08:46,413174,885.000,-3556.000,7603.000,216.000,20.000,-33.000,0.000,0.000,0
2026-01-30 23:08:46,413214,918.000,-3516.000,7607.000,140.000,-38.000,-30.000,0.000,0.000,0
2026-01-30 23:08:46,413254,928.000,-3532.000,7621.000,48.000,-44.000,-32.000,0.000,0.000,0
2026-01-30 23:08:46,413294,916.000,-3516.000,7601.000,45.000,-22.000,-42.000,0.000,0.000,0
2026-01-30 23:08:46,413334,898.000,-3548.000,7619.000,-66.000,-63.000,-58.000,0.000,0.000,0
2026-01-30 23:08:46,413374,995.000,-3616.000,7580.000,-58.000,-61.000,-45.000,0.000,0.000,0
2026-01-30 23:08:46,413414,894.000,-3558.000,7626.000,24.000,46.000,-5.000,0.000,0.000,0
2026-01-30 23:08:46,413454,896.000,-3589.000,7591.000,-110.000,27.000,7.000,0.000,0.000,0
2026-01-30 23:08:46,413494,896.000,-3643.000,7566.000,-60.000,-5.000,-24.000,0.000,0.000,0
2026-01-30 23:08:46,413534,910.000,-3611.000,7574.000,-17.000,-53.000,-16.000,0.000,0.000,0
2026-01-30 23:08:46,413574,974.000,-3587.000,7583.000,47.000,-7.000,-43.000,0.000,0.000,0
2026-01-30 23:08:46,413614,914.000,-3613.000,7570.000,-4.000,40.000,-23.000,0.000,0.000,0
2026-01-30 23:08:46,413654,918.000,-3644.000,7536.000,-8.000,-31.000,-65.000,0.000,0.000,0
2026-01-30 23:08:46,413694,965.000,-3629.000,7557.000,57.000,-37.000,-58.000,0.000,0.000,0
2026-01-30 23:08:46,413734,935.000,-3583.000,7569.000,-48.000,21.000,15.000,0.000,0.000,0
2026-01-30 23:08:46,413774,928.000,-3687.000,7557.000,-88.000,21.000,30.000,0.000,0.000,0
2026-01-30 23:08:46,413814,903.000,-3636.000,7558.000,-54.000,-15.000,35.000,0.000,0.000,0
2026-01-30 23:08:46,413854,932.000,-3641.000,7552.000,-74.000,-38.000,22.000,0.000,0.000,0
2026-01-30 23:08:46,413894,946.000,-3733.000,7535.000,-13.000,-55.000,-72.000,0.000,0.000,0
2026-01-30 23:08:46,413934,983.000,-3585.000,7564.000,125.000,-37.000,-77.000,0.000,0.000,0
2026-01-30 23:08:46,413974,1008.000,-3602.000,7580.000,69.000,34.000,-52.000,0.000,0.000,0
2026-01-30 23:08:46,414014,919.000,-3577.000,7593.000,-61.000,108.000,-21.000,0.000,0.000,0
2026-01-30 23:08:46,414054,919.000,-3714.000,7534.000,-43.000,16.000,-71.000,0.000,0.000,0
2026-01-30 23:08:46,414094,951.000,-3606.000,7582.000,30.000,-42.000,-76.000,0.000,0.000,0
2026-01-30 23:08:47,414134,989.000,-3644.000,7557.000,-14.000,-11.000,-80.000,0.000,0.000,0
2026-01-30 23:08:47,414174,979.000,-3559.000,7567.000,120.000,-13.000,-163.000,0.000,0.000,0
2026-01-30 23:08:47,414214,1031.000,-3515.000,7576.000,28.000,-6.000,-67.000,0.000,0.000,0
2026-01-30 23:08:47,414254,932.000,-3661.000,7546.000,-89.000,28.000,-6.000,0.000,0.000,0
2026-01-30 23:08:47,414294,1020.000,-3657.000,7534.000,-60.000,-5.000,-21.000,0.000,0.000,0
2026-01-30 23:08:47,414334,932.000,-3729.000,7511.000,-226.000,30.000,62.000,0.000,0.000,0
2026-01-30 23:08:47,414374,941.000,-3809.000,7493.000,-161.000,-36.000,8.000,0.000,0.000,0
2026-01-30 23:08:47,414414,954.000,-3802.000,7509.000,-76.000,-66.000,22.000,0.000,0.000,0
2026-01-30 23:08:47,414454,985.000,-3749.000,7505.000,-58.000,-53.000,8.000,0.000,0.000,0
2026-01-30 23:08:47,414494,966.000,-3865.000,7467.000,1.000,-7.000,-26.000,0.000,0.000,0
2026-01-30 23:08:47,414534,953.000,-3739.000,7494.000,127.000,-43.000,-63.000,0.000,0.000,0
2026-01-30 23:08:47,414574,1020.000,-3715.000,7480.000,82.000,-102.000,-67.000,0.000,0.000,0
2026-01-30 23:08:47,414614,1012.000,-3753.000,7486.000,-3.000,-50.000,-53.000,0.000,0.000,0
2026-01-30 23:08:47,414654,1048.000,-3767.000,7477.000,-33.000,-24.000,-35.000,0.000,0.000,0
2026-01-30 23:08:47,414694,961.000,-3822.000,7489.000,-27.000,17.000,35.000,0.000,0.000,0
2026-01-30 23:08:47,414734,1038.000,-3836.000,7465.000,-18.000,-126.000,-41.000,0.000,0.000,0
2026-01-30 23:08:47,414774,1065.000,-3818.000,7502.000,-2.000,-44.000,17.000,0.000,0.000,0
2026-01-30 23:08:47,414814,1032.000,-3683.000,7497.000,21.000,15.000,19.000,0.000,0.000,0
2026-01-30 23:08:47,414854,1040.000,-3821.000,7450.000,-56.000,13.000,-16.000,0.000,0.000,0
2026-01-30 23:08:47,414894,1023.000,-3746.000,7490.000,32.000,25.000,0.000,0.000,0.000,0
2026-01-30 23:08:47,414934,1046.000,-3801.000,7456.000,-16.000,11.000,28.000,0.000,0.000,0
2026-01-30 23:08:47,414974,990.000,-3735.000,7484.000,38.000,50.000,25.000,0.000,0.000,0
2026-01-30 23:08:47,415014,985.000,-3820.000,7471.000,31.000,6.000,-11.000,0.000,0.000,0
2026-01-30 23:08:47,415054,1025.000,-3750.000,7487.000,95.000,-89.000,-64.000,0.000,0.000,0
2026-01-30 23:08:47,415094,1076.000,-3710.000,7522.000,101.000,-44.000,-39.000,0.000,0.000,0
2026-01-30 23:08:48,415136,1027.000,-3673.000,7516.000,59.000,2.000,-15.000,0.000,0.000,0
2026-01-30 23:08:48,415174,1034.000,-3674.000,7523.000,39.000,-35.000,-34.000,0.000,0.000,0
2026-01-30 23:08:48,415214,1021.000,-3694.000,7522.000,59.000,-60.000,-42.000,0.000,0.000,0
2026-01-30 23:08:48,415254,1033.000,-3645.000,7508.000,77.000,-73.000,-40.000,0.000,0.000,0
2026-01-30 23:08:48,415294,1085.000,-3642.000,7564.000,100.000,-73.000,-43.000,0.000,0.000,0
2026-01-30 23:08:48,415334,1063.000,-3640.000,7549.000,29.000,-48.000,-16.000,0.000,0.000,0
2026-01-30 23:08:48,415374,1090.000,-3652.000,7550.000,89.000,-51.000,-44.000,0.000,0.000,0
2026-01-30 23:08:48,415414,1095.000,-3584.000,7551.000,126.000,-42.000,-37.000,0.000,0.000,0
2026-01-30 23:08:48,415454,1068.000,-3589.000,7538.000,50.000,-59.000,-42.000,0.000,0.000,0
2026-01-30 23:08:48,415494,1121.000,-3580.000,7566.000,56.000,-57.000,-28.000,0.000,0.000,0
2026-01-30 23:08:48,415534,1094.000,-3584.000,7556.000,29.000,-48.000,-25.000,0.000,0.000,0
2026-01-30 23:08:48,415574,1112.000,-3601.000,7539.000,6.000,-63.000,-33.000,0.000,0.000,0
2026-01-30 23:08:48,415614,1157.000,-3580.000,7554.000,43.000,-81.000,-27.000,0.000,0.000,0
2026-01-30 23:08:48,415654,1134.000,-3595.000,7579.000,70.000,-47.000,-20.000,0.000,0.000,0
2026-01-30 23:08:48,415694,1128.000,-3497.000,7592.000,65.000,-91.000,-46.000,0.000,0.000,0
2026-01-30 23:08:48,415734,1196.000,-3505.000,7599.000,-27.000,-122.000,-56.000,0.000,0.000,0
2026-01-30 23:08:48,415774,1247.000,-3519.000,7593.000,-1.000,-97.000,-60.000,0.000,0.000,0
2026-01-30 23:08:48,415814,1252.000,-3511.000,7630.000,45.000,0.000,-44.000,0.000,0.000,0
2026-01-30 23:08:48,415854,1257.000,-3490.000,7625.000,42.000,37.000,-35.000,0.000,0.000,0
2026-01-30 23:08:48,415894,1234.000,-3426.000,7658.000,104.000,110.000,-40.000,0.000,0.000,0
2026-01-30 23:08:48,415934,1152.000,-3325.000,7654.000,83.000,64.000,-20.000,0.000,0.000,0
2026-01-30 23:08:48,415974,1187.000,-3422.000,7623.000,-48.000,1.000,-19.000,0.000,0.000,0
2026-01-30 23:08:48,416014,1227.000,-3381.000,7656.000,-35.000,38.000,10.000,0.000,0.000,0
2026-01-30 23:08:48,416054,1119.000,-3420.000,7628.000,-20.000,119.000,33.000,0.000,0.000,0
2026-01-30 23:08:48,416094,1124.000,-3357.000,7640.000,-18.000,65.000,17.000,0.000,0.000,0
2026-01-30 23:08:49,416134,1119.000,-3349.000,7638.000,-40.000,37.000,22.000,0.000,0.000,0
2026-01-30 23:08:49,416174,1184.000,-3339.000,7735.000,-48.000,36.000,20.000,0.000,0.000,0
2026-01-30 23:08:49,416214,1220.000,-3408.000,7748.000,-5.000,72.000,-17.000,0.000,0.000,0
2026-01-30 23:08:49,416254,1146.000,-3254.000,7653.000,108.000,183.000,-24.000,0.000,0.000,0
2026-01-30 23:08:49,416294,1019.000,-3242.000,7653.000,65.000,175.000,-55.000,0.000,0.000,0
2026-01-30 23:08:49,416334,1110.000,-3315.000,7662.000,-39.000,7.000,-88.000,0.000,0.000,0
2026-01-30 23:08:49,416374,1156.000,-3325.000,7676.000,-26.000,-9.000,-53.000,0.000,0.000,0
2026-01-30 23:08:49,416414,1155.000,-3287.000,7702.000,27.000,106.000,37.000,0.000,0.000,0
2026-01-30 23:08:49,416454,1067.000,-3278.000,7735.000,-21.000,181.000,106.000,0.000,0.000,0
2026-01-30 23:08:49,416494,1011.000,-3345.000,7686.000,-184.000,76.000,62.000,0.000,0.000,0
2026-01-30 23:08:49,416534,1055.000,-3495.000,7649.000,-242.000,-107.000,-15.000,0.000,0.000,0
2026-01-30 23:08:49,416574,1151.000,-3590.000,7602.000,-241.000,-128.000,24.000,0.000,0.000,0
2026-01-30 23:08:49,416614,1139.000,-3439.000,7548.000,82.000,-74.000,-40.000,0.000,0.000,0
2026-01-30 23:08:49,416654,1027.000,-3428.000,7528.000,68.000,-164.000,-46.000,0.000,0.000,0
2026-01-30 23:08:49,416694,1164.000,-3422.000,7588.000,70.000,-297.000,-107.000,0.000,0.000,0
2026-01-30 23:08:49,416734,1275.000,-3454.000,7641.000,-53.000,-151.000,-27.000,0.000,0.000,0
2026-01-30 23:08:49,416774,1200.000,-3578.000,7620.000,-135.000,106.000,94.000,0.000,0.000,0
2026-01-30 23:08:49,416814,1124.000,-3515.000,7622.000,-49.000,238.000,163.000,0.000,0.000,0
2026-01-30 23:08:49,416854,1039.000,-3507.000,7616.000,-93.000,108.000,57.000,0.000,0.000,0
2026-01-30 23:08:49,416896,1126.000,-3607.000,7584.000,-16.000,-74.000,-40.000,0.000,0.000,0
2026-01-30 23:08:49,416935,1208.000,-3573.000,7599.000,113.000,-161.000,-126.000,0.000,0.000,0
2026-01-30 23:08:49,416974,1310.000,-3416.000,7608.000,260.000,-27.000,-85.000,0.000,0.000,0
2026-01-30 23:08:49,417014,1177.000,-3336.000,7668.000,171.000,133.000,-6.000,0.000,0.000,0
2026-01-30 23:08:49,417054,1191.000,-3384.000,7685.000,95.000,151.000,35.000,0.000,0.000,0
2026-01-30 23:08:49,417094,1095.000,-3309.000,7703.000,147.000,159.000,33.000,0.000,0.000,0
2026-01-30 23:08:50,417137,1069.000,-3272.000,7639.000,65.000,82.000,45.000,0.000,0.000,0
2026-01-30 23:08:50,417174,988.000,-3212.000,7699.000,44.000,-53.000,-22.000,0.000,0.000,0
2026-01-30 23:08:50,417214,1151.000,-3314.000,7732.000,-47.000,-256.000,-97.000,0.000,0.000,0
2026-01-30 23:08:50,417254,1253.000,-3327.000,7714.000,49.000,-189.000,-84.000,0.000,0.000,0
2026-01-30 23:08:50,417294,1236.000,-3238.000,7698.000,31.000,-15.000,-17.000,0.000,0.000,0
2026-01-30 23:08:50,417334,1083.000,-3205.000,7671.000,-40.000,66.000,36.000,0.000,0.000,0
2026-01-30 23:08:50,417374,1165.000,-3334.000,7682.000,-127.000,-117.000,-48.000,0.000,0.000,0
2026-01-30 23:08:50,417414,1238.000,-3333.000,7686.000,-44.000,-250.000,-131.000,0.000,0.000,0
2026-01-30 23:08:50,417454,1275.000,-3261.000,7678.000,-65.000,-216.000,-95.000,0.000,0.000,0
2026-01-30 23:08:50,417494,1263.000,-3266.000,7649.000,-153.000,-140.000,-22.000,0.000,0.000,0
2026-01-30 23:08:50,417534,1244.000,-3372.000,7653.000,-184.000,-143.000,-16.000,0.000,0.000,0
2026-01-30 23:08:50,417574,1314.000,-3378.000,7658.000,-228.000,-143.000,23.000,0.000,0.000,0
2026-01-30 23:08:50,417614,1287.000,-3515.000,7588.000,-187.000,-60.000,42.000,0.000,0.000,0
2026-01-30 23:08:50,417654,1244.000,-3308.000,7599.000,-40.000,-41.000,10.000,0.000,0.000,0
2026-01-30 23:08:50,417694,1234.000,-3374.000,7590.000,-99.000,-156.000,-49.000,0.000,0.000,0
2026-01-30 23:08:50,417734,1297.000,-3372.000,7626.000,-161.000,-199.000,-71.000,0.000,0.000,0
2026-01-30 23:08:50,417774,1338.000,-3362.000,7649.000,-262.000,-179.000,-88.000,0.000,0.000,0
2026-01-30 23:08:50,417814,1348.000,-3538.000,7560.000,-499.000,-246.000,0.000,0.000,0.000,0
2026-01-30 23:08:50,417854,1314.000,-3490.000,7523.000,-430.000,-327.000,-16.000,0.000,0.000,0
2026-01-30 23:08:50,417894,1337.000,-3364.000,7592.000,-632.000,-446.000,-123.000,0.000,0.000,0
2026-01-30 23:08:50,417934,1393.000,-3920.000,7428.000,-1190.000,-573.000,-93.000,0.000,0.000,0
2026-01-30 23:08:50,417974,1608.000,-3638.000,7387.000,-627.000,-661.000,-340.000,0.000,0.000,0
2026-01-30 23:08:50,418014,1869.000,-3578.000,7494.000,-633.000,-502.000,-286.000,0.000,0.000,0
2026-01-30 23:08:50,418054,1737.000,-4138.000,7257.000,-668.000,15.000,38.000,0.000,0.000,0
2026-01-30 23:08:50,418094,1538.000,-3808.000,7310.000,-139.000,218.000,118.000,0.000,0.000,0
2026-01-30 23:08:51,418134,1568.000,-3903.000,7370.000,-108.000,95.000,40.000,0.000,0.000,0
2026-01-30 23:08:51,418174,1606.000,-3901.000,7262.000,-112.000,-7.000,44.000,0.000,0.000,0
2026-01-30 23:08:51,418214,1522.000,-3861.000,7332.000,11.000,93.000,40.000,0.000,0.000,0
2026-01-30 23:08:51,418254,1550.000,-3813.000,7398.000,-174.000,-1.000,11.000,0.000,0.000,0
2026-01-30 23:08:51,418294,1552.000,-3973.000,7289.000,-218.000,-29.000,56.000,0.000,0.000,0
2026-01-30 23:08:51,418334,1546.000,-3850.000,7344.000,-17.000,-6.000,-40.000,0.000,0.000,0
2026-01-30 23:08:51,418374,1572.000,-4078.000,7242.000,-277.000,12.000,32.000,0.000,0.000,0
2026-01-30 23:08:51,418414,1527.000,-4136.000,7167.000,-230.000,1.000,87.000,0.000,0.000,0
2026-01-30 23:08:51,418454,1620.000,-4237.000,7191.000,-270.000,-86.000,48.000,0.000,0.000,0
2026-01-30 23:08:51,418494,1592.000,-4325.000,7120.000,-201.000,37.000,145.000,0.000,0.000,0
2026-01-30 23:08:51,418534,1429.000,-4172.000,7157.000,-90.000,95.000,139.000,0.000,0.000,0
2026-01-30 23:08:51,418574,1560.000,-4061.000,7225.000,72.000,-145.000,-86.000,0.000,0.000,0
2026-01-30 23:08:51,418614,1642.000,-4095.000,7212.000,123.000,-61.000,-120.000,0.000,0.000,0
2026-01-30 23:08:51,418654,1723.000,-3884.000,7274.000,230.000,223.000,-48.000,0.000,0.000,0
2026-01-30 23:08:51,418694,1527.000,-4068.000,7255.000,78.000,421.000,67.000,0.000,0.000,0
2026-01-30 23:08:51,418734,1491.000,-3983.000,7243.000,77.000,307.000,67.000,0.000,0.000,0
2026-01-30 23:08:51,418774,1435.000,-4107.000,7227.000,-47.000,95.000,40.000,0.000,0.000,0
2026-01-30 23:08:51,418814,1526.000,-4168.000,7193.000,-52.000,-68.000,18.000,0.000,0.000,0
2026-01-30 23:08:51,418854,1483.000,-4156.000,7207.000,-3.000,-71.000,18.000,0.000,0.000,0
2026-01-30 23:08:51,418896,1589.000,-4086.000,7229.000,42.000,-69.000,12.000,0.000,0.000,0
2026-01-30 23:08:51,418934,1454.000,-4048.000,7252.000,112.000,138.000,33.000,0.000,0.000,0
2026-01-30 23:08:51,418974,1487.000,-3967.000,7284.000,137.000,87.000,-15.000,0.000,0.000,0
2026-01-30 23:08:51,419014,1441.000,-3977.000,7269.000,65.000,34.000,-21.000,0.000,0.000,0
2026-01-30 23:08:51,419054,1538.000,-3972.000,7267.000,60.000,-21.000,-42.000,0.000,0.000,0
2026-01-30 23:08:51,419094,1521.000,-4076.000,7265.000,-26.000,54.000,40.000,0.000,0.000,0
2026-01-30 23:08:52,419137,1483.000,-4101.000,7241.000,-26.000,98.000,53.000,0.000,0.000,0
2026-01-30 23:08:52,419175,1438.000,-4082.000,7242.000,-18.000,3.000,5.000,0.000,0.000,0
2026-01-30 23:08:52,419214,1508.000,-4072.000,7236.000,3.000,-88.000,-38.000,0.000,0.000,0
2026-01-30 23:08:52,419254,1511.000,-4047.000,7254.000,25.000,-35.000,-21.000,0.000,0.000,0
2026-01-30 23:08:52,419294,1494.000,-3951.000,7284.000,75.000,31.000,-11.000,0.000,0.000,0
2026-01-30 23:08:52,419334,1492.000,-4045.000,7254.000,55.000,35.000,-15.000,0.000,0.000,0
2026-01-30 23:08:52,419374,1508.000,-3885.000,7283.000,54.000,52.000,14.000,0.000,0.000,0
2026-01-30 23:08:52,419414,1485.000,-3993.000,7275.000,-57.000,20.000,40.000,0.000,0.000,0
2026-01-30 23:08:52,419454,1498.000,-4115.000,7253.000,-101.000,9.000,58.000,0.000,0.000,0
2026-01-30 23:08:52,419494,1532.000,-4071.000,7252.000,-15.000,-3.000,120.000,0.000,0.000,0
2026-01-30 23:08:52,419534,1454.000,-4038.000,7257.000,-78.000,37.000,161.000,0.000,0.000,0
2026-01-30 23:08:52,419574,1428.000,-4156.000,7239.000,-94.000,35.000,53.000,0.000,0.000,0
2026-01-30 23:08:52,419614,1621.000,-3956.000,7311.000,-142.000,91.000,52.000,0.000,0.000,0
2026-01-30 23:08:52,419654,1503.000,-3892.000,7337.000,-374.000,215.000,168.000,0.000,0.000,0
2026-01-30 23:08:52,419694,1441.000,-4142.000,7229.000,-889.000,688.000,313.000,0.000,0.000,0
2026-01-30 23:08:52,419734,1516.000,-4038.000,7438.000,-945.000,1052.000,378.000,0.000,0.000,0
2026-01-30 23:08:52,419774,1296.000,-4415.000,7152.000,-2076.000,1785.000,943.000,0.000,0.000,0
2026-01-30 23:08:52,419814,894.000,-4833.000,6763.000,-2012.000,2431.000,1105.000,0.000,0.000,0
2026-01-30 23:08:52,419854,554.000,-4474.000,7062.000,-1850.000,2109.000,523.000,0.000,0.000,0
2026-01-30 23:08:52,419894,721.000,-5102.000,6776.000,-2080.000,1923.000,473.000,0.000,0.000,0
2026-01-30 23:08:52,419934,520.000,-4901.000,7006.000,-1766.000,2290.000,873.000,0.000,0.000,0
2026-01-30 23:08:52,419974,-409.000,-4798.000,7212.000,-3130.000,2546.000,608.000,0.000,0.000,0
2026-01-30 23:08:52,420014,106.000,-6205.000,6460.000,-5312.000,3381.000,-872.000,0.000,0.000,0
2026-01-30 23:08:52,420054,-346.000,-7563.000,6393.000,-6466.000,3563.000,-4064.000,0.000,0.000,0
2026-01-30 23:08:52,420094,-1093.000,-6866.000,5076.000,-4485.000,2361.000,-1006.000,0.000,0.000,0
2026-01-30 23:08:53,420134,783.000,-6994.000,4984.000,-3953.000,1904.000,-1451.000,0.000,0.000,0
2026-01-30 23:08:53,420174,258.000,-7592.000,4660.000,-3296.000,1192.000,-502.000,0.000,0.000,0
2026-01-30 23:08:53,420214,121.000,-7484.000,4447.000,-2671.000,391.000,-251.000,0.000,0.000,0
2026-01-30 23:08:53,420254,267.000,-7770.000,4035.000,-2079.000,245.000,-124.000,0.000,0.000,0
2026-01-30 23:08:53,420294,-61.000,-7189.000,4152.000,-1644.000,320.000,35.000,0.000,0.000,0
2026-01-30 23:08:53,420334,33.000,-7193.000,4062.000,-1500.000,237.000,228.000,0.000,0.000,0
2026-01-30 23:08:53,420374,-403.000,-7333.000,3619.000,-1769.000,198.000,149.000,0.000,0.000,0
2026-01-30 23:08:53,420414,-855.000,-7585.000,3439.000,-2319.000,266.000,-74.000,0.000,0.000,0
2026-01-30 23:08:53,420454,-1133.000,-7570.000,3701.000,-1959.000,-244.000,198.000,0.000,0.000,0
2026-01-30 23:08:53,420494,-1603.000,-7659.000,3279.000,-2018.000,-687.000,226.000,0.000,0.000,0
2026-01-30 23:08:53,420534,-1654.000,-8121.000,2634.000,-1187.000,-1181.000,124.000,0.000,0.000,0
2026-01-30 23:08:53,420574,-1981.000,-7936.000,2153.000,-504.000,-1747.000,39.000,0.000,0.000,0
2026-01-30 23:08:53,420614,-1316.000,-8053.000,2743.000,-765.000,-2742.000,-57.000,0.000,0.000,0
2026-01-30 23:08:53,420654,-925.000,-7877.000,2715.000,-1155.000,-3615.000,-110.000,0.000,0.000,0
2026-01-30 23:08:53,420694,-70.000,-8292.000,2504.000,-910.000,-4445.000,2.000,0.000,0.000,0
2026-01-30 23:08:53,420734,474.000,-8086.000,2227.000,-647.000,-4286.000,-82.000,0.000,0.000,0
2026-01-30 23:08:53,420774,1457.000,-7700.000,3274.000,-1276.000,-4301.000,398.000,0.000,0.000,0
2026-01-30 23:08:53,420814,2195.000,-8431.000,2774.000,-2104.000,-3913.000,405.000,0.000,0.000,0
2026-01-30 23:08:53,420854,2167.000,-7775.000,2716.000,-614.000,-3073.000,800.000,0.000,0.000,0
2026-01-30 23:08:53,420894,2289.000,-7743.000,2400.000,-1122.000,-1538.000,408.000,0.000,0.000,0
2026-01-30 23:08:53,420934,716.000,-8784.000,2720.000,-915.000,-76.000,-62.000,0.000,0.000,0
2026-01-30 23:08:53,420974,993.000,-7388.000,2547.000,374.000,-479.000,360.000,0.000,0.000,0
2026-01-30 23:08:53,421014,148.000,-6170.000,2011.000,-2832.000,914.000,1185.000,0.000,0.000,0
2026-01-30 23:08:53,421054,-125.000,-7270.000,1028.000,-4113.000,547.000,-465.000,0.000,0.000,0
2026-01-30 23:08:53,421094,665.000,-6537.000,1717.000,-3040.000,-449.000,-734.000,0.000,0.000,0
2026-01-30 23:08:54,421135,-464.000,-7700.000,758.000,-4201.000,12.000,-1705.000,0.000,0.000,0
2026-01-30 23:08:54,421174,255.000,-8370.000,207.000,-3872.000,-461.000,-1953.000,0.000,0.000,0
2026-01-30 23:08:54,421214,906.000,-8486.000,514.000,-1282.000,-721.000,-1269.000,0.000,0.000,0
2026-01-30 23:08:54,421254,655.000,-8828.000,529.000,-1949.000,-401.000,-408.000,0.000,0.000,0
2026-01-30 23:08:54,421294,880.000,-8978.000,87.000,-674.000,-401.000,-105.000,0.000,0.000,0
2026-01-30 23:08:54,421334,1021.000,-7993.000,326.000,-447.000,-48.000,168.000,0.000,0.000,0
2026-01-30 23:08:54,421374,961.000,-8587.000,148.000,-1689.000,509.000,86.000,0.000,0.000,0
2026-01-30 23:08:54,421414,870.000,-8267.000,-79.000,-279.000,467.000,-49.000,0.000,0.000,0
2026-01-30 23:08:54,421454,963.000,-7942.000,8.000,-550.000,615.000,-6.000,0.000,0.000,0
2026-01-30 23:08:54,421494,970.000,-8264.000,-230.000,-997.000,755.000,-13.000,0.000,0.000,0
2026-01-30 23:08:54,421534,827.000,-8273.000,-519.000,-252.000,859.000,169.000,0.000,0.000,0
2026-01-30 23:08:54,421574,1005.000,-8285.000,-422.000,-426.000,765.000,158.000,0.000,0.000,0
2026-01-30 23:08:54,421614,959.000,-8521.000,-689.000,-410.000,712.000,-127.000,0.000,0.000,0
2026-01-30 23:08:54,421654,544.000,-7611.000,-845.000,-696.000,255.000,133.000,0.000,0.000,0
2026-01-30 23:08:54,421694,1234.000,-8493.000,-1195.000,-1200.000,120.000,32.000,0.000,0.000,0
2026-01-30 23:08:54,421734,959.000,-8041.000,-1205.000,-904.000,305.000,-214.000,0.000,0.000,0
2026-01-30 23:08:54,421774,942.000,-8095.000,-1147.000,-817.000,-60.000,118.000,0.000,0.000,0
2026-01-30 23:08:54,421814,1063.000,-8168.000,-1355.000,-275.000,-284.000,43.000,0.000,0.000,0
2026-01-30 23:08:54,421854,1126.000,-8180.000,-1062.000,459.000,-120.000,39.000,0.000,0.000,0
2026-01-30 23:08:54,421894,1168.000,-7829.000,-617.000,847.000,655.000,-175.000,0.000,0.000,0
2026-01-30 23:08:54,421934,690.000,-8400.000,-976.000,342.000,117.000,98.000,0.000,0.000,0
2026-01-30 23:08:54,421974,839.000,-8077.000,-603.000,287.000,100.000,76.000,0.000,0.000,0
2026-01-30 23:08:54,422014,827.000,-8238.000,-744.000,148.000,0.000,66.000,0.000,0.000,0
2026-01-30 23:08:54,422054,943.000,-8180.000,-697.000,267.000,-31.000,-1.000,0.000,0.000,0
2026-01-30 23:08:54,422094,946.000,-8120.000,-626.000,338.000,35.000,14.000,0.000,0.000,0
2026-01-30 23:08:55,422134,971.000,-8179.000,-572.000,130.000,87.000,78.000,0.000,0.000,0
2026-01-30 23:08:55,422174,954.000,-8214.000,-622.000,283.000,122.000,48.000,0.000,0.000,0
2026-01-30 23:08:55,422214,1076.000,-8126.000,-559.000,376.000,161.000,-4.000,0.000,0.000,0
2026-01-30 23:08:55,422254,913.000,-8136.000,-551.000,303.000,232.000,-39.000,0.000,0.000,0
2026-01-30 23:08:55,422294,969.000,-8033.000,-524.000,445.000,197.000,-114.000,0.000,0.000,0
2026-01-30 23:08:55,422334,866.000,-7987.000,-410.000,601.000,216.000,-56.000,0.000,0.000,0
2026-01-30 23:08:55,422374,1102.000,-8550.000,-287.000,2352.000,127.000,-280.000,0.000,0.000,0
2026-01-30 23:08:55,422414,1142.000,-7621.000,-35.000,3016.000,293.000,-269.000,0.000,0.000,0
2026-01-30 23:08:55,422454,974.000,-8470.000,137.000,973.000,711.000,-385.000,0.000,0.000,0
2026-01-30 23:08:55,422494,1170.000,-8263.000,131.000,1367.000,419.000,-486.000,0.000,0.000,0
2026-01-30 23:08:55,422534,1214.000,-8529.000,169.000,-149.000,414.000,-198.000,0.000,0.000,0
2026-01-30 23:08:55,422574,1296.000,-8523.000,54.000,-221.000,313.000,-160.000,0.000,0.000,0
2026-01-30 23:08:55,422614,1449.000,-8228.000,422.000,377.000,113.000,55.000,0.000,0.000,0
2026-01-30 23:08:55,422654,1309.000,-8063.000,333.000,54.000,107.000,114.000,0.000,0.000,0
2026-01-30 23:08:55,422694,1220.000,-8322.000,201.000,-50.000,172.000,193.000,0.000,0.000,0
2026-01-30 23:08:55,422734,1216.000,-7909.000,491.000,332.000,124.000,99.000,0.000,0.000,0
2026-01-30 23:08:55,422774,1075.000,-8229.000,326.000,155.000,173.000,-40.000,0.000,0.000,0
2026-01-30 23:08:55,422814,1078.000,-8026.000,481.000,598.000,145.000,-38.000,0.000,0.000,0
2026-01-30 23:08:55,422854,966.000,-7910.000,526.000,525.000,163.000,77.000,0.000,0.000,0
2026-01-30 23:08:55,422896,900.000,-7982.000,393.000,1077.000,300.000,237.000,0.000,0.000,0
2026-01-30 23:08:55,422936,409.000,-7481.000,682.000,2632.000,678.000,774.000,0.000,0.000,0
2026-01-30 23:08:55,422974,-229.000,-7056.000,1313.000,4077.000,1002.000,1567.000,0.000,0.000,0
2026-01-30 23:08:55,423014,-526.000,-6983.000,1690.000,5238.000,1302.000,2004.000,0.000,0.000,0
2026-01-30 23:08:55,423054,-731.000,-7532.000,2542.000,6957.000,1125.000,2442.000,0.000,0.000,0
2026-01-30 23:08:55,423094,111.000,-7656.000,2733.000,8245.000,1165.000,2363.000,0.000,0.000,0
2026-01-30 23:08:56,423136,308.000,-7728.000,4550.000,8761.000,717.000,1685.000,0.000,0.000,0
2026-01-30 23:08:56,423174,122.000,-6863.000,5581.000,6727.000,758.000,1384.000,0.000,0.000,0
2026-01-30 23:08:56,423214,501.000,-6940.000,6259.000,4286.000,-189.000,891.000,0.000,0.000,0
2026-01-30 23:08:56,423254,586.000,-6056.000,5257.000,2021.000,-511.000,-452.000,0.000,0.000,0
2026-01-30 23:08:56,423294,4.000,-7196.000,4683.000,980.000,-708.000,-858.000,0.000,0.000,0
2026-01-30 23:08:56,423334,642.000,-6105.000,4085.000,2000.000,-1021.000,-417.000,0.000,0.000,0
2026-01-30 23:08:56,423374,-240.000,-6281.000,4276.000,996.000,-1570.000,-251.000,0.000,0.000,0
2026-01-30 23:08:56,423414,1270.000,-8396.000,6436.000,2266.000,-2474.000,-679.000,0.000,0.000,0
2026-01-30 23:08:56,423454,2201.000,-6779.000,10068.000,7893.000,-3378.000,-1861.000,0.000,0.000,0
2026-01-30 23:08:56,423494,-705.000,-4414.000,6731.000,-1246.000,512.000,2161.000,0.000,0.000,0
2026-01-30 23:08:56,423534,711.000,-3441.000,7055.000,957.000,-594.000,-1284.000,0.000,0.000,0
2026-01-30 23:08:56,423574,850.000,-5152.000,6824.000,-2152.000,-338.000,-334.000,0.000,0.000,0
2026-01-30 23:08:56,423614,461.000,-8813.000,5022.000,-1445.000,166.000,115.000,0.000,0.000,0
2026-01-30 23:08:56,423654,982.000,-5525.000,6300.000,2708.000,653.000,212.000,0.000,0.000,0
2026-01-30 23:08:56,423694,413.000,-5055.000,6666.000,2186.000,743.000,983.000,0.000,0.000,0
2026-01-30 23:08:56,423734,135.000,-5379.000,6523.000,1994.000,556.000,941.000,0.000,0.000,0
2026-01-30 23:08:56,423774,138.000,-4520.000,7017.000,2004.000,479.000,61.000,0.000,0.000,0
2026-01-30 23:08:56,423814,92.000,-4458.000,6994.000,337.000,279.000,-184.000,0.000,0.000,0
2026-01-30 23:08:56,423854,267.000,-5156.000,6696.000,-427.000,-69.000,-339.000,0.000,0.000,0
2026-01-30 23:08:56,423894,379.000,-5007.000,6772.000,237.000,-118.000,77.000,0.000,0.000,0
2026-01-30 23:08:56,423934,266.000,-4869.000,6895.000,169.000,21.000,104.000,0.000,0.000,0
2026-01-30 23:08:56,423974,398.000,-4934.000,6905.000,-197.000,53.000,-39.000,0.000,0.000,0
2026-01-30 23:08:56,424014,300.000,-5395.000,6716.000,-211.000,193.000,4.000,0.000,0.000,0
2026-01-30 23:08:56,424054,320.000,-4899.000,6802.000,247.000,142.000,-70.000,0.000,0.000,0
2026-01-30 23:08:56,424094,184.000,-5009.000,6736.000,60.000,14.000,-44.000,0.000,0.000,0
2026-01-30 23:08:57,424134,393.000,-4959.000,6824.000,78.000,-237.000,-235.000,0.000,0.000,0
2026-01-30 23:08:57,424174,485.000,-5112.000,6742.000,93.000,-121.000,-102.000,0.000,0.000,0
2026-01-30 23:08:57,424214,406.000,-4924.000,6889.000,418.000,36.000,-91.000,0.000,0.000,0
2026-01-30 23:08:57,424254,224.000,-4937.000,6879.000,301.000,192.000,175.000,0.000,0.000,0
2026-01-30 23:08:57,424294,234.000,-4709.000,6978.000,320.000,125.000,34.000,0.000,0.000,0
2026-01-30 23:08:57,424334,230.000,-5009.000,6909.000,46.000,-4.000,55.000,0.000,0.000,0
2026-01-30 23:08:57,424374,368.000,-4861.000,6969.000,134.000,-100.000,-30.000,0.000,0.000,0
2026-01-30 23:08:57,424414,352.000,-4952.000,6901.000,225.000,-27.000,-28.000,0.000,0.000,0
2026-01-30 23:08:57,424454,412.000,-4761.000,6964.000,365.000,-1.000,9.000,0.000,0.000,0
2026-01-30 23:08:57,424494,331.000,-4748.000,6980.000,336.000,28.000,46.000,0.000,0.000,0
2026-01-30 23:08:57,424534,324.000,-4608.000,7022.000,185.000,-11.000,-10.000,0.000,0.000,0
2026-01-30 23:08:57,424574,310.000,-4761.000,6956.000,-113.000,-58.000,6.000,0.000,0.000,0
2026-01-30 23:08:57,424614,326.000,-4857.000,6890.000,-150.000,-63.000,93.000,0.000,0.000,0
2026-01-30 23:08:57,424654,216.000,-4847.000,6805.000,-131.000,-113.000,178.000,0.000,0.000,0
2026-01-30 23:08:57,424694,276.000,-4859.000,6790.000,-251.000,-255.000,114.000,0.000,0.000,0
2026-01-30 23:08:57,424734,337.000,-5097.000,6719.000,-342.000,-268.000,102.000,0.000,0.000,0
2026-01-30 23:08:57,424774,378.000,-5200.000,6648.000,-308.000,-168.000,126.000,0.000,0.000,0
2026-01-30 23:08:57,424814,331.000,-5265.000,6583.000,-382.000,-141.000,194.000,0.000,0.000,0
2026-01-30 23:08:57,424854,228.000,-5566.000,6437.000,-406.000,-227.000,201.000,0.000,0.000,0
2026-01-30 23:08:57,424894,339.000,-5482.000,6463.000,-150.000,-428.000,71.000,0.000,0.000,0
2026-01-30 23:08:57,424934,355.000,-5586.000,6397.000,21.000,-445.000,8.000,0.000,0.000,0
2026-01-30 23:08:57,424974,537.000,-5404.000,6456.000,89.000,-393.000,-128.000,0.000,0.000,0
2026-01-30 23:08:57,425014,568.000,-5505.000,6419.000,41.000,-193.000,-87.000,0.000,0.000,0
2026-01-30 23:08:57,425054,521.000,-5522.000,6386.000,45.000,64.000,111.000,0.000,0.000,0
2026-01-30 23:08:57,425094,419.000,-5527.000,6379.000,227.000,216.000,225.000,0.000,0.000,0
2026-01-30 23:08:58,425136,166.000,-5510.000,6385.000,212.000,278.000,360.000,0.000,0.000,0
2026-01-30 23:08:58,425174,304.000,-5278.000,6503.000,227.000,-11.000,163.000,0.000,0.000,0
2026-01-30 23:08:58,425214,342.000,-5432.000,6485.000,155.000,-26.000,184.000,0.000,0.000,0
2026-01-30 23:08:58,425254,316.000,-5300.000,6557.000,251.000,18.000,138.000,0.000,0.000,0
2026-01-30 23:08:58,425294,372.000,-5374.000,6538.000,258.000,10.000,82.000,0.000,0.000,0
2026-01-30 23:08:58,425334,475.000,-5225.000,6606.000,332.000,-6.000,9.000,0.000,0.000,0
2026-01-30 23:08:58,425374,459.000,-5396.000,6574.000,263.000,7.000,78.000,0.000,0.000,0
2026-01-30 23:08:58,425414,389.000,-5099.000,6544.000,243.000,-57.000,39.000,0.000,0.000,0
2026-01-30 23:08:58,425454,385.000,-5213.000,6453.000,-298.000,-145.000,21.000,0.000,0.000,0
2026-01-30 23:08:58,425494,451.000,-5477.000,6417.000,-614.000,-385.000,113.000,0.000,0.000,0
2026-01-30 23:08:58,425534,587.000,-5815.000,6312.000,-682.000,-543.000,273.000,0.000,0.000,0
2026-01-30 23:08:58,425574,603.000,-5782.000,6198.000,-536.000,-471.000,421.000,0.000,0.000,0
2026-01-30 23:08:58,425614,469.000,-5752.000,6106.000,-306.000,-437.000,398.000,0.000,0.000,0
2026-01-30 23:08:58,425654,524.000,-5709.000,6195.000,-225.000,-578.000,236.000,0.000,0.000,0
2026-01-30 23:08:58,425694,664.000,-5873.000,6201.000,-97.000,-560.000,125.000,0.000,0.000,0
2026-01-30 23:08:58,425734,704.000,-5809.000,6134.000,50.000,-253.000,319.000,0.000,0.000,0
2026-01-30 23:08:58,425774,553.000,-5614.000,6292.000,293.000,23.000,545.000,0.000,0.000,0
2026-01-30 23:08:58,425814,426.000,-5621.000,6283.000,119.000,-185.000,388.000,0.000,0.000,0
2026-01-30 23:08:58,425854,635.000,-5687.000,6275.000,185.000,-399.000,158.000,0.000,0.000,0
2026-01-30 23:08:58,425894,792.000,-5583.000,6317.000,390.000,-393.000,153.000,0.000,0.000,0
2026-01-30 23:08:58,425934,859.000,-5463.000,6382.000,603.000,-334.000,160.000,0.000,0.000,0
2026-01-30 23:08:58,425974,876.000,-5402.000,6495.000,849.000,-308.000,19.000,0.000,0.000,0
2026-01-30 23:08:58,426014,970.000,-5066.000,6657.000,817.000,-295.000,112.000,0.000,0.000,0
2026-01-30 23:08:58,426054,976.000,-5020.000,6643.000,257.000,-155.000,438.000,0.000,0.000,0
2026-01-30 23:08:58,426094,681.000,-4966.000,6488.000,-101.000,36.000,722.000,0.000,0.000,0
2026-01-30 23:08:59,426134,479.000,-5194.000,6506.000,-424.000,-111.000,910.000,0.000,0.000,0
2026-01-30 23:08:59,426174,665.000,-5430.000,6427.000,-569.000,-801.000,652.000,0.000,0.000,0
2026-01-30 23:08:59,426214,838.000,-5365.000,6476.000,-74.000,-867.000,454.000,0.000,0.000,0
2026-01-30 23:08:59,426254,1053.000,-5191.000,6571.000,331.000,-600.000,429.000,0.000,0.000,0
2026-01-30 23:08:59,426294,1010.000,-4974.000,6633.000,538.000,-239.000,498.000,0.000,0.000,0
2026-01-30 23:08:59,426334,908.000,-4703.000,6729.000,148.000,-171.000,431.000,0.000,0.000,0
2026-01-30 23:08:59,426374,1025.000,-5285.000,6514.000,-515.000,-401.000,508.000,0.000,0.000,0
2026-01-30 23:08:59,426414,887.000,-5931.000,6391.000,-357.000,-547.000,411.000,0.000,0.000,0
2026-01-30 23:08:59,426454,1126.000,-5735.000,6312.000,-329.000,-1012.000,364.000,0.000,0.000,0
2026-01-30 23:08:59,426494,1251.000,-5849.000,6148.000,-682.000,-1397.000,523.000,0.000,0.000,0
2026-01-30 23:08:59,426534,1371.000,-6153.000,6212.000,-753.000,-1648.000,422.000,0.000,0.000,0
2026-01-30 23:08:59,426574,1759.000,-5897.000,5935.000,-326.000,-1450.000,453.000,0.000,0.000,0
2026-01-30 23:08:59,426614,1590.000,-5922.000,5726.000,-621.000,-1006.000,723.000,0.000,0.000,0
2026-01-30 23:08:59,426654,1235.000,-6253.000,5384.000,-647.000,-727.000,1081.000,0.000,0.000,0
2026-01-30 23:08:59,426694,1054.000,-5908.000,5606.000,-308.000,-1043.000,1290.000,0.000,0.000,0
2026-01-30 23:08:59,426734,1049.000,-6108.000,5848.000,-617.000,-1519.000,1249.000,0.000,0.000,0
2026-01-30 23:08:59,426774,1410.000,-6450.000,5704.000,-784.000,-1901.000,683.000,0.000,0.000,0
2026-01-30 23:08:59,426814,1949.000,-6605.000,5755.000,-150.000,-1750.000,286.000,0.000,0.000,0
2026-01-30 23:08:59,426854,2159.000,-6141.000,5707.000,556.000,-1154.000,365.000,0.000,0.000,0
2026-01-30 23:08:59,426896,2055.000,-5640.000,5748.000,799.000,-548.000,703.000,0.000,0.000,0
2026-01-30 23:08:59,426935,2187.000,-5634.000,6141.000,-46.000,-193.000,502.000,0.000,0.000,0
2026-01-30 23:08:59,426974,2398.000,-5991.000,6304.000,-260.000,237.000,162.000,0.000,0.000,0
2026-01-30 23:08:59,427014,2453.000,-5687.000,6388.000,137.000,511.000,277.000,0.000,0.000,0
2026-01-30 23:08:59,427054,1966.000,-5574.000,6122.000,521.000,850.000,819.000,0.000,0.000,0
2026-01-30 23:08:59,427094,1864.000,-5176.000,6379.000,1044.000,418.000,971.000,0.000,0.000,0
2026-01-30 23:09:00,427137,1787.000,-5287.000,6736.000,536.000,-67.000,1234.000,0.000,0.000,0
2026-01-30 23:09:00,427174,1687.000,-5322.000,6650.000,627.000,-297.000,1193.000,0.000,0.000,0
2026-01-30 23:09:00,427214,1550.000,-4993.000,6582.000,880.000,-397.000,1366.000,0.000,0.000,0
2026-01-30 23:09:00,427254,1522.000,-4637.000,6719.000,922.000,-531.000,1430.000,0.000,0.000,0
2026-01-30 23:09:00,427294,1475.000,-4564.000,6863.000,763.000,-731.000,1281.000,0.000,0.000,0
2026-01-30 23:09:00,427334,1365.000,-4573.000,6779.000,501.000,-957.000,901.000,0.000,0.000,0
2026-01-30 23:09:00,427374,1714.000,-4682.000,6988.000,516.000,-961.000,1074.000,0.000,0.000,0
2026-01-30 23:09:00,427414,1911.000,-4844.000,7555.000,960.000,-749.000,1200.000,0.000,0.000,0
2026-01-30 23:09:00,427454,1591.000,-4391.000,7418.000,1572.000,-436.000,1241.000,0.000,0.000,0
2026-01-30 23:09:00,427494,1362.000,-3698.000,7136.000,2215.000,-496.000,926.000,0.000,0.000,0
2026-01-30 23:09:00,427534,989.000,-2992.000,7388.000,2116.000,-508.000,798.000,0.000,0.000,0
2026-01-30 23:09:00,427574,828.000,-2768.000,7502.000,1405.000,-601.000,842.000,0.000,0.000,0
2026-01-30 23:09:00,427614,1066.000,-2536.000,7525.000,619.000,-654.000,856.000,0.000,0.000,0
2026-01-30 23:09:00,427654,1024.000,-2957.000,7268.000,-964.000,-318.000,971.000,0.000,0.000,0
2026-01-30 23:09:00,427694,542.000,-4235.000,7303.000,-1858.000,-550.000,1458.000,0.000,0.000,0
2026-01-30 23:09:00,427734,820.000,-4587.000,7260.000,-1054.000,-1364.000,1274.000,0.000,0.000,0
2026-01-30 23:09:00,427774,1037.000,-4559.000,7182.000,64.000,-1995.000,818.000,0.000,0.000,0
2026-01-30 23:09:00,427814,1588.000,-4136.000,7483.000,571.000,-2163.000,642.000,0.000,0.000,0
2026-01-30 23:09:00,427854,1647.000,-4269.000,7272.000,224.000,-1555.000,570.000,0.000,0.000,0
2026-01-30 23:09:00,427894,1864.000,-4285.000,7383.000,375.000,-890.000,513.000,0.000,0.000,0
2026-01-30 23:09:00,427934,1661.000,-4101.000,7374.000,372.000,-264.000,901.000,0.000,0.000,0
2026-01-30 23:09:00,427974,1264.000,-4082.000,7444.000,602.000,-181.000,1022.000,0.000,0.000,0
2026-01-30 23:09:00,428014,1291.000,-3699.000,7702.000,491.000,-573.000,717.000,0.000,0.000,0
2026-01-30 23:09:00,428054,1257.000,-3858.000,7553.000,-85.000,-761.000,491.000,0.000,0.000,0
2026-01-30 23:09:00,428094,1317.000,-3917.000,7288.000,-109.000,-679.000,799.000,0.000,0.000,0
2026-01-30 23:09:01,428134,1344.000,-4024.000,7432.000,-215.000,-630.000,1027.000,0.000,0.000,0
2026-01-30 23:09:01,428174,1096.000,-4325.000,7485.000,-182.000,-540.000,1183.000,0.000,0.000,0
2026-01-30 23:09:01,428214,1180.000,-4147.000,7557.000,37.000,-704.000,961.000,0.000,0.000,0
2026-01-30 23:09:01,428254,1122.000,-4076.000,7451.000,267.000,-668.000,900.000,0.000,0.000,0
2026-01-30 23:09:01,428294,1108.000,-3807.000,7399.000,510.000,-607.000,771.000,0.000,0.000,0
2026-01-30 23:09:01,428334,1149.000,-3634.000,7389.000,590.000,-596.000,356.000,0.000,0.000,0
2026-01-30 23:09:01,428374,1103.000,-3535.000,7287.000,506.000,-494.000,210.000,0.000,0.000,0
2026-01-30 23:09:01,428414,1193.000,-3514.000,7493.000,345.000,-412.000,248.000,0.000,0.000,0
2026-01-30 23:09:01,428454,1103.000,-3805.000,7755.000,91.000,-158.000,681.000,0.000,0.000,0
2026-01-30 23:09:01,428494,975.000,-4038.000,7568.000,-82.000,87.000,905.000,0.000,0.000,0
2026-01-30 23:09:01,428534,738.000,-3719.000,7544.000,384.000,5.000,854.000,0.000,0.000,0
