datetime_local,uptime_ms,acc_x,acc_y,acc_z,gyro_x,gyro_y,gyro_z,speed_mps,turn_rate_deg_s,gps_valid
2026-01-31 00:12:23,1254334,-1341.000,-6412.000,5357.000,-237.000,-42.000,112.000,0.000,0.000,0
2026-01-31 00:12:23,1254374,-1405.000,-6465.000,5575.000,273.000,68.000,-4.000,0.000,0.000,0
2026-01-31 00:12:23,1254415,-1225.000,-5804.000,5656.000,432.000,201.000,-24.000,0.000,0.000,0
2026-01-31 00:12:23,1254454,-1265.000,-6411.000,5610.000,-11.000,241.000,51.000,0.000,0.000,0
2026-01-31 00:12:23,1254494,-1234.000,-6088.000,5634.000,432.000,165.000,4.000,0.000,0.000,0
2026-01-31 00:12:23,1254535,-1137.000,-5885.000,5724.000,84.000,109.000,2.000,0.000,0.000,0
2026-01-31 00:12:23,1254574,-1216.000,-6400.000,5681.000,80.000,-1.000,-50.000,0.000,0.000,0
2026-01-31 00:12:23,1254614,-1125.000,-5917.000,5724.000,220.000,-80.000,-69.000,0.000,0.000,0
2026-01-31 00:12:23,1254654,-1170.000,-6191.000,5818.000,-59.000,-55.000,-21.000,0.000,0.000,0
2026-01-31 00:12:23,1254694,-1112.000,-6173.000,5742.000,214.000,-68.000,-20.000,0.000,0.000,0
2026-01-31 00:12:23,1254734,-1093.000,-5907.000,5758.000,123.000,-22.000,20.000,0.000,0.000,0
2026-01-31 00:12:23,1254774,-1111.000,-6189.000,5767.000,-29.000,22.000,-4.000,0.000,0.000,0
2026-01-31 00:12:24,1254816,-1137.000,-6025.000,5806.000,106.000,-51.000,9.000,0.000,0.000,0
2026-01-31 00:12:24,1254854,-1171.000,-6125.000,5768.000,-51.000,-77.000,-6.000,0.000,0.000,0
2026-01-31 00:12:24,1254894,-1244.000,-5928.000,5705.000,-64.000,-105.000,-14.000,0.000,0.000,0
2026-01-31 00:12:24,1254934,-1263.000,-6106.000,5695.000,-236.000,-101.000,8.000,0.000,0.000,0
2026-01-31 00:12:24,1254974,-1219.000,-6120.000,5716.000,-1.000,-70.000,9.000,0.000,0.000,0
2026-01-31 00:12:24,1255014,-1070.000,-6004.000,5760.000,105.000,2.000,66.000,0.000,0.000,0
2026-01-31 00:12:24,1255054,-1102.000,-6099.000,5773.000,141.000,114.000,72.000,0.000,0.000,0
2026-01-31 00:12:24,1255094,-1201.000,-6141.000,5775.000,225.000,130.000,14.000,0.000,0.000,0
2026-01-31 00:12:24,1255134,-1276.000,-5996.000,5751.000,174.000,67.000,-12.000,0.000,0.000,0
2026-01-31 00:12:24,1255174,-1218.000,-6076.000,5767.000,3.000,-5.000,67.000,0.000,0.000,0
2026-01-31 00:12:24,1255214,-1088.000,-5908.000,5698.000,120.000,10.000,149.000,0.000,0.000,0
2026-01-31 00:12:24,1255254,-1003.000,-5608.000,5479.000,409.000,74.000,159.000,0.000,0.000,0
2026-01-31 00:12:24,1255294,-919.000,-5333.000,5149.000,748.000,129.000,115.000,0.000,0.000,0
2026-01-31 00:12:24,1255334,-924.000,-4466.000,4600.000,1230.000,69.000,-237.000,0.000,0.000,0
2026-01-31 00:12:24,1255374,-1060.000,-4635.000,4426.000,1709.000,-169.000,-733.000,0.000,0.000,0
2026-01-31 00:12:24,1255414,-991.000,-4710.000,4405.000,3292.000,-818.000,-1283.000,0.000,0.000,0
2026-01-31 00:12:24,1255454,-1135.000,-3762.000,4961.000,5548.000,-1401.000,-1904.000,0.000,0.000,0
2026-01-31 00:12:24,1255494,-926.000,-3162.000,5872.000,6129.000,-2225.000,-2516.000,0.000,0.000,0
2026-01-31 00:12:24,1255534,-389.000,-3036.000,6950.000,6187.000,-2928.000,-2827.000,0.000,0.000,0
2026-01-31 00:12:24,1255574,-90.000,-3890.000,7268.000,7684.000,-3390.000,-3377.000,0.000,0.000,0
2026-01-31 00:12:24,1255614,1046.000,-3080.000,8471.000,9052.000,-4072.000,-3387.000,0.000,0.000,0
2026-01-31 00:12:24,1255654,1609.000,-1496.000,8997.000,8744.000,-3689.000,-3219.000,0.000,0.000,0
2026-01-31 00:12:24,1255694,2751.000,-1785.000,9957.000,6832.000,-3372.000,-1921.000,0.000,0.000,0
2026-01-31 00:12:24,1255734,3537.000,-2275.000,10453.000,8151.000,-2996.000,-2320.000,0.000,0.000,0
2026-01-31 00:12:24,1255774,3598.000,2234.000,10737.000,9282.000,-2979.000,-1572.000,0.000,0.000,0
2026-01-31 00:12:25,1255814,3399.000,1766.000,10060.000,2312.000,-1465.000,-431.000,0.000,0.000,0
2026-01-31 00:12:25,1255854,2726.000,1242.000,9453.000,280.000,-757.000,2.000,0.000,0.000,0
2026-01-31 00:12:25,1255894,2170.000,1586.000,7966.000,352.000,-275.000,-243.000,0.000,0.000,0
2026-01-31 00:12:25,1255934,2555.000,882.000,7419.000,-593.000,-564.000,68.000,0.000,0.000,0
2026-01-31 00:12:25,1255974,2892.000,917.000,8095.000,-210.000,-658.000,68.000,0.000,0.000,0
2026-01-31 00:12:25,1256014,2893.000,673.000,8323.000,-195.000,-361.000,101.000,0.000,0.000,0
2026-01-31 00:12:25,1256056,2852.000,837.000,8123.000,-13.000,-143.000,62.000,0.000,0.000,0
2026-01-31 00:12:25,1256095,2697.000,873.000,7812.000,-109.000,-80.000,64.000,0.000,0.000,0
2026-01-31 00:12:25,1256134,2660.000,867.000,7750.000,-173.000,-174.000,54.000,0.000,0.000,0
2026-01-31 00:12:25,1256174,2764.000,952.000,7851.000,-22.000,-196.000,-17.000,0.000,0.000,0
2026-01-31 00:12:25,1256214,2740.000,864.000,7873.000,-75.000,-56.000,-24.000,0.000,0.000,0
2026-01-31 00:12:25,1256254,2777.000,719.000,7911.000,-112.000,-23.000,29.000,0.000,0.000,0
2026-01-31 00:12:25,1256294,2761.000,445.000,8071.000,-323.000,-16.000,172.000,0.000,0.000,0
2026-01-31 00:12:25,1256335,2634.000,113.000,8102.000,-223.000,-3.000,280.000,0.000,0.000,0
2026-01-31 00:12:25,1256374,2519.000,365.000,7968.000,63.000,-97.000,262.000,0.000,0.000,0
2026-01-31 00:12:25,1256414,2533.000,567.000,7864.000,-59.000,-137.000,161.000,0.000,0.000,0
2026-01-31 00:12:25,1256454,2540.000,582.000,7805.000,3.000,-147.000,-57.000,0.000,0.000,0
2026-01-31 00:12:25,1256494,2730.000,733.000,7827.000,91.000,-127.000,-187.000,0.000,0.000,0
2026-01-31 00:12:25,1256534,2805.000,779.000,7831.000,109.000,-26.000,-179.000,0.000,0.000,0
2026-01-31 00:12:25,1256574,2852.000,745.000,7911.000,142.000,-13.000,-137.000,0.000,0.000,0
2026-01-31 00:12:25,1256614,2853.000,775.000,7981.000,78.000,-13.000,-56.000,0.000,0.000,0
2026-01-31 00:12:25,1256654,2797.000,526.000,7947.000,-159.000,47.000,23.000,0.000,0.000,0
2026-01-31 00:12:25,1256694,2685.000,267.000,7920.000,-76.000,60.000,13.000,0.000,0.000,0
2026-01-31 00:12:25,1256734,2650.000,375.000,7947.000,80.000,42.000,3.000,0.000,0.000,0
2026-01-31 00:12:25,1256774,2711.000,567.000,7949.000,214.000,28.000,-19.000,0.000,0.000,0
2026-01-31 00:12:26,1256814,2637.000,776.000,7842.000,204.000,59.000,-45.000,0.000,0.000,0
2026-01-31 00:12:26,1256854,2676.000,850.000,7843.000,57.000,-22.000,-67.000,0.000,0.000,0
2026-01-31 00:12:26,1256894,2745.000,751.000,7831.000,-16.000,-29.000,-86.000,0.000,0.000,0
2026-01-31 00:12:26,1256934,2771.000,689.000,7921.000,12.000,-18.000,-44.000,0.000,0.000,0
2026-01-31 00:12:26,1256974,2752.000,714.000,7996.000,22.000,-4.000,-27.000,0.000,0.000,0
2026-01-31 00:12:26,1257014,2854.000,589.000,7968.000,-9.000,15.000,17.000,0.000,0.000,0
2026-01-31 00:12:26,1257054,2754.000,474.000,7851.000,25.000,52.000,82.000,0.000,0.000,0
2026-01-31 00:12:26,1257094,2560.000,576.000,7939.000,80.000,-70.000,62.000,0.000,0.000,0
2026-01-31 00:12:26,1257134,2644.000,620.000,7981.000,-25.000,-114.000,-74.000,0.000,0.000,0
2026-01-31 00:12:26,1257174,2757.000,586.000,7798.000,70.000,-3.000,-87.000,0.000,0.000,0
2026-01-31 00:12:26,1257214,2730.000,766.000,7855.000,292.000,-24.000,-41.000,0.000,0.000,0
2026-01-31 00:12:26,1257254,2681.000,900.000,7945.000,71.000,-60.000,-28.000,0.000,0.000,0
2026-01-31 00:12:26,1257294,2781.000,716.000,7877.000,-72.000,-100.000,-84.000,0.000,0.000,0
2026-01-31 00:12:26,1257334,2796.000,683.000,7881.000,33.000,-48.000,-26.000,0.000,0.000,0
2026-01-31 00:12:26,1257374,2724.000,630.000,7959.000,68.000,-21.000,19.000,0.000,0.000,0
2026-01-31 00:12:26,1257414,2778.000,701.000,7939.000,-33.000,-59.000,-5.000,0.000,0.000,0
2026-01-31 00:12:26,1257454,2745.000,536.000,7820.000,-76.000,-24.000,13.000,0.000,0.000,0
2026-01-31 00:12:26,1257494,2743.000,728.000,7866.000,118.000,-68.000,-1.000,0.000,0.000,0
2026-01-31 00:12:26,1257534,2741.000,682.000,7901.000,-150.000,-51.000,21.000,0.000,0.000,0
2026-01-31 00:12:26,1257574,2755.000,238.000,8009.000,-183.000,12.000,92.000,0.000,0.000,0
2026-01-31 00:12:26,1257614,2697.000,299.000,8105.000,81.000,65.000,137.000,0.000,0.000,0
2026-01-31 00:12:26,1257654,2559.000,497.000,7993.000,62.000,108.000,152.000,0.000,0.000,0
2026-01-31 00:12:26,1257694,2469.000,537.000,7817.000,6.000,79.000,58.000,0.000,0.000,0
2026-01-31 00:12:26,1257734,2544.000,463.000,7853.000,-54.000,17.000,-14.000,0.000,0.000,0
2026-01-31 00:12:26,1257774,2593.000,290.000,7995.000,-63.000,67.000,-21.000,0.000,0.000,0
2026-01-31 00:12:27,1257814,2645.000,222.000,8069.000,30.000,108.000,0.000,0.000,0.000,0
2026-01-31 00:12:27,1257854,2570.000,241.000,7927.000,173.000,111.000,82.000,0.000,0.000,0
2026-01-31 00:12:27,1257894,2543.000,408.000,7940.000,212.000,19.000,103.000,0.000,0.000,0
2026-01-31 00:12:27,1257934,2496.000,284.000,7890.000,176.000,21.000,91.000,0.000,0.000,0
2026-01-31 00:12:27,1257974,2438.000,208.000,7910.000,279.000,14.000,98.000,0.000,0.000,0
2026-01-31 00:12:27,1258014,2461.000,138.000,8012.000,125.000,37.000,177.000,0.000,0.000,0
2026-01-31 00:12:27,1258054,2396.000,122.000,8054.000,319.000,7.000,161.000,0.000,0.000,0
2026-01-31 00:12:27,1258094,2301.000,18.000,8116.000,192.000,39.000,202.000,0.000,0.000,0
2026-01-31 00:12:27,1258136,2304.000,10.000,8133.000,83.000,31.000,234.000,0.000,0.000,0
2026-01-31 00:12:27,1258178,2192.000,-186.000,8107.000,-97.000,55.000,271.000,0.000,0.000,0
2026-01-31 00:12:27,1258214,2112.000,-506.000,8266.000,13.000,-100.000,299.000,0.000,0.000,0
2026-01-31 00:12:27,1258254,2126.000,-396.000,8470.000,-96.000,-113.000,381.000,0.000,0.000,0
2026-01-31 00:12:27,1258294,1916.000,-563.000,8348.000,-296.000,-77.000,392.000,0.000,0.000,0
2026-01-31 00:12:27,1258336,1839.000,-908.000,8392.000,-394.000,-119.000,371.000,0.000,0.000,0
2026-01-31 00:12:27,1258374,1771.000,-1097.000,8386.000,-450.000,-102.000,279.000,0.000,0.000,0
2026-01-31 00:12:27,1258414,1671.000,-1334.000,8450.000,-335.000,-167.000,234.000,0.000,0.000,0
2026-01-31 00:12:27,1258454,1749.000,-1335.000,8565.000,-256.000,-298.000,207.000,0.000,0.000,0
2026-01-31 00:12:27,1258494,1786.000,-1555.000,8669.000,-375.000,-201.000,193.000,0.000,0.000,0
2026-01-31 00:12:27,1258534,1803.000,-1625.000,8623.000,-244.000,-71.000,81.000,0.000,0.000,0
2026-01-31 00:12:27,1258574,1814.000,-1607.000,8472.000,-286.000,-15.000,73.000,0.000,0.000,0
2026-01-31 00:12:27,1258614,1692.000,-1895.000,8298.000,-387.000,-63.000,18.000,0.000,0.000,0
2026-01-31 00:12:27,1258654,1596.000,-1958.000,8216.000,-32.000,-246.000,-25.000,0.000,0.000,0
2026-01-31 00:12:27,1258694,1732.000,-1497.000,8357.000,681.000,-325.000,-21.000,0.000,0.000,0
2026-01-31 00:12:27,1258734,1853.000,-639.000,8418.000,999.000,-77.000,-40.000,0.000,0.000,0
2026-01-31 00:12:27,1258774,1801.000,-606.000,8330.000,602.000,91.000,-57.000,0.000,0.000,0
2026-01-31 00:12:28,1258814,1664.000,-998.000,8342.000,264.000,101.000,-63.000,0.000,0.000,0
2026-01-31 00:12:28,1258854,1678.000,-1236.000,8393.000,138.000,-46.000,-39.000,0.000,0.000,0
2026-01-31 00:12:28,1258894,1884.000,-1118.000,8579.000,225.000,-156.000,-88.000,0.000,0.000,0
2026-01-31 00:12:28,1258934,2022.000,-980.000,8565.000,244.000,-112.000,-105.000,0.000,0.000,0
2026-01-31 00:12:28,1258974,2138.000,-1030.000,8310.000,186.000,-110.000,-136.000,0.000,0.000,0
2026-01-31 00:12:28,1259014,2193.000,-955.000,8190.000,165.000,-215.000,-181.000,0.000,0.000,0
2026-01-31 00:12:28,1259054,2299.000,-927.000,8026.000,-11.000,-276.000,-221.000,0.000,0.000,0
2026-01-31 00:12:28,1259094,2321.000,-1052.000,8036.000,-31.000,-307.000,-233.000,0.000,0.000,0
2026-01-31 00:12:28,1259134,2503.000,-1016.000,8425.000,255.000,-255.000,-147.000,0.000,0.000,0
2026-01-31 00:12:28,1259174,2419.000,-860.000,8656.000,539.000,32.000,24.000,0.000,0.000,0
2026-01-31 00:12:28,1259214,1992.000,-535.000,8694.000,958.000,223.000,167.000,0.000,0.000,0
2026-01-31 00:12:28,1259254,1572.000,156.000,8662.000,1147.000,203.000,261.000,0.000,0.000,0
2026-01-31 00:12:28,1259294,1403.000,668.000,8116.000,99.000,133.000,138.000,0.000,0.000,0
2026-01-31 00:12:28,1259334,1769.000,-790.000,7696.000,-1539.000,-229.000,-205.000,0.000,0.000,0
2026-01-31 00:12:28,1259374,2936.000,-2301.000,8354.000,-683.000,-522.000,-421.000,0.000,0.000,0
2026-01-31 00:12:28,1259414,3019.000,-766.000,8714.000,1392.000,-302.000,-276.000,0.000,0.000,0
2026-01-31 00:12:28,1259454,2302.000,1475.000,8032.000,1410.000,75.000,-252.000,0.000,0.000,0
2026-01-31 00:12:28,1259494,2096.000,1509.000,7525.000,201.000,-167.000,-378.000,0.000,0.000,0
2026-01-31 00:12:28,1259534,2618.000,834.000,7402.000,-541.000,-300.000,-629.000,0.000,0.000,0
2026-01-31 00:12:28,1259574,3110.000,43.000,7670.000,-827.000,-103.000,-604.000,0.000,0.000,0
2026-01-31 00:12:28,1259614,3320.000,-332.000,7886.000,-696.000,106.000,-480.000,0.000,0.000,0
2026-01-31 00:12:28,1259654,3354.000,-154.000,8047.000,78.000,158.000,-341.000,0.000,0.000,0
2026-01-31 00:12:28,1259694,3163.000,665.000,7888.000,751.000,124.000,-289.000,0.000,0.000,0
2026-01-31 00:12:28,1259734,2544.000,1318.000,7144.000,232.000,152.000,-153.000,0.000,0.000,0
2026-01-31 00:12:28,1259774,2717.000,293.000,7735.000,-473.000,-176.000,13.000,0.000,0.000,0
2026-01-31 00:12:29,1259814,2815.000,-3.000,8568.000,96.000,261.000,251.000,0.000,0.000,0
2026-01-31 00:12:29,1259854,2409.000,216.000,8631.000,333.000,654.000,500.000,0.000,0.000,0
2026-01-31 00:12:29,1259894,2210.000,608.000,8397.000,151.000,543.000,528.000,0.000,0.000,0
2026-01-31 00:12:29,1259934,2053.000,564.000,7914.000,-615.000,246.000,402.000,0.000,0.000,0
2026-01-31 00:12:29,1259974,2369.000,-138.000,8020.000,-1110.000,-195.000,138.000,0.000,0.000,0
2026-01-31 00:12:29,1260014,2611.000,-749.000,8421.000,-888.000,-223.000,54.000,0.000,0.000,0
2026-01-31 00:12:29,1260054,2653.000,-900.000,8668.000,-451.000,-117.000,147.000,0.000,0.000,0
2026-01-31 00:12:29,1260094,2436.000,-737.000,8592.000,-210.000,54.000,252.000,0.000,0.000,0
2026-01-31 00:12:29,1260134,2136.000,-669.000,7749.000,-541.000,-16.000,114.000,0.000,0.000,0
2026-01-31 00:12:29,1260174,2156.000,-1087.000,7725.000,-600.000,-280.000,-21.000,0.000,0.000,0
2026-01-31 00:12:29,1260214,2611.000,-1230.000,8366.000,49.000,-421.000,-158.000,0.000,0.000,0
2026-01-31 00:12:29,1260254,2716.000,-342.000,8362.000,837.000,-93.000,-162.000,0.000,0.000,0
2026-01-31 00:12:29,1260294,2484.000,277.000,7828.000,759.000,45.000,-202.000,0.000,0.000,0
2026-01-31 00:12:29,1260336,2546.000,345.000,7739.000,534.000,-109.000,-293.000,0.000,0.000,0
2026-01-31 00:12:29,1260374,2694.000,233.000,7909.000,492.000,-92.000,-311.000,0.000,0.000,0
2026-01-31 00:12:29,1260414,2771.000,490.000,7925.000,538.000,41.000,-283.000,0.000,0.000,0
2026-01-31 00:12:29,1260454,2659.000,625.000,7797.000,364.000,45.000,-269.000,0.000,0.000,0
2026-01-31 00:12:29,1260494,2909.000,757.000,7720.000,206.000,-40.000,-337.000,0.000,0.000,0
2026-01-31 00:12:29,1260534,2987.000,684.000,7644.000,94.000,79.000,-359.000,0.000,0.000,0
2026-01-31 00:12:29,1260574,3332.000,751.000,7909.000,241.000,148.000,-343.000,0.000,0.000,0
2026-01-31 00:12:29,1260614,3357.000,886.000,8153.000,346.000,332.000,-231.000,0.000,0.000,0
2026-01-31 00:12:29,1260654,3174.000,870.000,7720.000,3.000,280.000,4.000,0.000,0.000,0
2026-01-31 00:12:29,1260694,2958.000,716.000,7369.000,-261.000,-39.000,32.000,0.000,0.000,0
2026-01-31 00:12:29,1260734,3138.000,597.000,7433.000,-250.000,-217.000,-28.000,0.000,0.000,0
2026-01-31 00:12:29,1260774,3205.000,775.000,7398.000,-83.000,-109.000,-68.000,0.000,0.000,0
2026-01-31 00:12:30,1260814,3234.000,790.000,7489.000,-54.000,-5.000,-86.000,0.000,0.000,0
2026-01-31 00:12:30,1260854,3346.000,915.000,7484.000,-27.000,88.000,59.000,0.000,0.000,0
2026-01-31 00:12:30,1260894,3249.000,580.000,7448.000,-166.000,152.000,323.000,0.000,0.000,0
2026-01-31 00:12:30,1260934,3393.000,426.000,7740.000,51.000,165.000,375.000,0.000,0.000,0
2026-01-31 00:12:30,1260974,3356.000,526.000,7845.000,147.000,216.000,471.000,0.000,0.000,0
2026-01-31 00:12:30,1261014,3212.000,488.000,7874.000,178.000,152.000,493.000,0.000,0.000,0
2026-01-31 00:12:30,1261054,3149.000,471.000,7987.000,239.000,34.000,527.000,0.000,0.000,0
2026-01-31 00:12:30,1261094,3087.000,642.000,7992.000,469.000,17.000,495.000,0.000,0.000,0
2026-01-31 00:12:30,1261134,3084.000,1017.000,8032.000,550.000,16.000,411.000,0.000,0.000,0
2026-01-31 00:12:30,1261174,3150.000,968.000,8059.000,246.000,78.000,346.000,0.000,0.000,0
2026-01-31 00:12:30,1261214,3078.000,728.000,7765.000,-101.000,129.000,374.000,0.000,0.000,0
2026-01-31 00:12:30,1261254,3039.000,274.000,7501.000,-375.000,19.000,327.000,0.000,0.000,0
2026-01-31 00:12:30,1261294,3264.000,-189.000,7793.000,-400.000,-44.000,387.000,0.000,0.000,0
2026-01-31 00:12:30,1261334,3269.000,-256.000,8005.000,-42.000,164.000,535.000,0.000,0.000,0
2026-01-31 00:12:30,1261374,3069.000,-206.000,8032.000,178.000,149.000,650.000,0.000,0.000,0
2026-01-31 00:12:30,1261414,3036.000,100.000,7998.000,458.000,47.000,618.000,0.000,0.000,0
2026-01-31 00:12:30,1261454,2970.000,647.000,7521.000,395.000,-53.000,476.000,0.000,0.000,0
2026-01-31 00:12:30,1261494,3017.000,404.000,7287.000,-41.000,-247.000,294.000,0.000,0.000,0
2026-01-31 00:12:30,1261534,3346.000,21.000,7536.000,68.000,-325.000,131.000,0.000,0.000,0
2026-01-31 00:12:30,1261574,3664.000,280.000,7654.000,357.000,-67.000,153.000,0.000,0.000,0
2026-01-31 00:12:30,1261614,3511.000,399.000,7460.000,235.000,170.000,298.000,0.000,0.000,0
2026-01-31 00:12:30,1261654,3257.000,-29.000,7376.000,-113.000,13.000,542.000,0.000,0.000,0
2026-01-31 00:12:30,1261694,3529.000,-231.000,7799.000,79.000,4.000,536.000,0.000,0.000,0
2026-01-31 00:12:30,1261734,3789.000,-159.000,8122.000,280.000,239.000,589.000,0.000,0.000,0
2026-01-31 00:12:30,1261774,3489.000,-178.000,7918.000,196.000,363.000,849.000,0.000,0.000,0
2026-01-31 00:12:31,1261814,3339.000,-382.000,7978.000,-2.000,163.000,945.000,0.000,0.000,0
2026-01-31 00:12:31,1261854,3349.000,-658.000,8103.000,-133.000,96.000,1004.000,0.000,0.000,0
2026-01-31 00:12:31,1261894,3242.000,-787.000,7953.000,-89.000,162.000,1036.000,0.000,0.000,0
2026-01-31 00:12:31,1261934,3064.000,-875.000,7715.000,-53.000,90.000,1019.000,0.000,0.000,0
2026-01-31 00:12:31,1261974,2919.000,-739.000,7595.000,-35.000,-53.000,907.000,0.000,0.000,0
2026-01-31 00:12:31,1262014,3109.000,-1111.000,7596.000,-297.000,-146.000,782.000,0.000,0.000,0
2026-01-31 00:12:31,1262054,3592.000,-1227.000,7538.000,112.000,-3.000,497.000,0.000,0.000,0
2026-01-31 00:12:31,1262096,4040.000,-884.000,7866.000,728.000,15.000,487.000,0.000,0.000,0
2026-01-31 00:12:31,1262136,4075.000,-361.000,7848.000,973.000,129.000,604.000,0.000,0.000,0
2026-01-31 00:12:31,1262174,3789.000,122.000,7493.000,676.000,47.000,658.000,0.000,0.000,0
2026-01-31 00:12:31,1262214,3778.000,-179.000,7453.000,216.000,-103.000,620.000,0.000,0.000,0
2026-01-31 00:12:31,1262254,4098.000,-204.000,7793.000,544.000,-17.000,591.000,0.000,0.000,0
2026-01-31 00:12:31,1262294,4190.000,17.000,7763.000,476.000,242.000,793.000,0.000,0.000,0
2026-01-31 00:12:31,1262336,3819.000,-495.000,7589.000,68.000,317.000,1078.000,0.000,0.000,0
2026-01-31 00:12:31,1262374,3668.000,-777.000,7620.000,31.000,123.000,1170.000,0.000,0.000,0
2026-01-31 00:12:31,1262414,3719.000,-880.000,7340.000,-201.000,-4.000,1128.000,0.000,0.000,0
2026-01-31 00:12:31,1262454,4094.000,-1311.000,7543.000,-152.000,-43.000,1012.000,0.000,0.000,0
2026-01-31 00:12:31,1262494,4430.000,-1233.000,7805.000,233.000,26.000,902.000,0.000,0.000,0
2026-01-31 00:12:31,1262534,4417.000,-1300.000,7660.000,165.000,129.000,1062.000,0.000,0.000,0
2026-01-31 00:12:31,1262574,4311.000,-1469.000,7569.000,155.000,30.000,1057.000,0.000,0.000,0
2026-01-31 00:12:31,1262614,4416.000,-1474.000,7459.000,307.000,12.000,936.000,0.000,0.000,0
2026-01-31 00:12:31,1262654,4242.000,-1039.000,7017.000,664.000,-10.000,833.000,0.000,0.000,0
2026-01-31 00:12:31,1262694,3958.000,-734.000,7156.000,1060.000,-249.000,926.000,0.000,0.000,0
2026-01-31 00:12:31,1262734,4432.000,-188.000,7912.000,1300.000,-150.000,858.000,0.000,0.000,0
2026-01-31 00:12:31,1262774,4480.000,-320.000,7735.000,1082.000,401.000,1090.000,0.000,0.000,0
2026-01-31 00:12:32,1262814,3862.000,560.000,7599.000,1242.000,275.000,1138.000,0.000,0.000,0
2026-01-31 00:12:32,1262854,4244.000,201.000,7343.000,-41.000,36.000,804.000,0.000,0.000,0
2026-01-31 00:12:32,1262894,4608.000,-896.000,6987.000,-435.000,16.000,503.000,0.000,0.000,0
2026-01-31 00:12:32,1262934,4928.000,-1363.000,6955.000,-148.000,68.000,507.000,0.000,0.000,0
2026-01-31 00:12:32,1262974,5188.000,-1351.000,7295.000,287.000,87.000,722.000,0.000,0.000,0
2026-01-31 00:12:32,1263014,5118.000,-784.000,7435.000,806.000,262.000,837.000,0.000,0.000,0
2026-01-31 00:12:32,1263054,4305.000,-490.000,6555.000,466.000,383.000,1148.000,0.000,0.000,0
2026-01-31 00:12:32,1263094,3685.000,-1017.000,6338.000,118.000,-119.000,1580.000,0.000,0.000,0
2026-01-31 00:12:32,1263134,3322.000,-1329.000,6905.000,279.000,-257.000,1734.000,0.000,0.000,0
2026-01-31 00:12:32,1263174,3516.000,-842.000,7873.000,1287.000,293.000,1804.000,0.000,0.000,0
2026-01-31 00:12:32,1263214,3800.000,-712.000,8324.000,1551.000,710.000,1658.000,0.000,0.000,0
2026-01-31 00:12:32,1263254,4204.000,-333.000,8527.000,1470.000,801.000,1620.000,0.000,0.000,0
2026-01-31 00:12:32,1263294,3816.000,132.000,7995.000,1110.000,579.000,1309.000,0.000,0.000,0
2026-01-31 00:12:32,1263334,4117.000,76.000,7302.000,-51.000,-244.000,494.000,0.000,0.000,0
2026-01-31 00:12:32,1263374,4870.000,-573.000,6931.000,-989.000,-464.000,-209.000,0.000,0.000,0
2026-01-31 00:12:32,1263414,5319.000,-1302.000,6688.000,-262.000,-283.000,-274.000,0.000,0.000,0
2026-01-31 00:12:32,1263454,5505.000,-809.000,6496.000,302.000,98.000,-163.000,0.000,0.000,0
2026-01-31 00:12:32,1263494,5022.000,-648.000,6500.000,446.000,45.000,229.000,0.000,0.000,0
2026-01-31 00:12:32,1263534,4381.000,-246.000,6781.000,977.000,-68.000,855.000,0.000,0.000,0
2026-01-31 00:12:32,1263574,3202.000,-300.000,7106.000,1270.000,363.000,1908.000,0.000,0.000,0
2026-01-31 00:12:32,1263614,2917.000,-20.000,7832.000,1389.000,549.000,2041.000,0.000,0.000,0
2026-01-31 00:12:32,1263654,3286.000,248.000,8570.000,1180.000,934.000,2233.000,0.000,0.000,0
2026-01-31 00:12:32,1263694,3808.000,-149.000,8376.000,-211.000,1360.000,1999.000,0.000,0.000,0
2026-01-31 00:12:32,1263734,4476.000,-1236.000,7937.000,-901.000,950.000,1423.000,0.000,0.000,0
2026-01-31 00:12:32,1263774,4593.000,-1822.000,7315.000,-1118.000,234.000,976.000,0.000,0.000,0
2026-01-31 00:12:33,1263814,4337.000,-2417.000,7115.000,-915.000,-431.000,705.000,2.917,0.000,1
2026-01-31 00:12:33,1263854,4625.000,-2520.000,7622.000,385.000,-618.000,611.000,2.917,0.000,1
2026-01-31 00:12:33,1263894,4473.000,-1385.000,8153.000,2085.000,-100.000,998.000,2.917,0.000,1
2026-01-31 00:12:33,1263934,3748.000,235.000,8219.000,2598.000,159.000,1186.000,0.000,0.000,0
2026-01-31 00:12:33,1263974,2882.000,626.000,7428.000,875.000,426.000,1274.000,0.000,0.000,0
2026-01-31 00:12:33,1264014,2942.000,51.000,7106.000,31.000,209.000,868.000,0.000,0.000,0
2026-01-31 00:12:33,1264054,3732.000,-467.000,7333.000,57.000,-134.000,473.000,0.000,0.000,0
2026-01-31 00:12:33,1264094,4449.000,-53.000,7750.000,495.000,-23.000,414.000,0.000,0.000,0
2026-01-31 00:12:33,1264134,4480.000,-61.000,7363.000,-31.000,240.000,492.000,0.000,0.000,0
2026-01-31 00:12:33,1264174,3989.000,-676.000,6922.000,-406.000,123.000,666.000,0.000,0.000,0
2026-01-31 00:12:33,1264214,3920.000,-1019.000,7445.000,47.000,-113.000,879.000,0.000,0.000,0
2026-01-31 00:12:33,1264254,3868.000,-694.000,7919.000,589.000,77.000,918.000,0.000,0.000,0
2026-01-31 00:12:33,1264294,3702.000,-349.000,7671.000,436.000,296.000,905.000,0.000,0.000,0
2026-01-31 00:12:33,1264336,3424.000,-661.000,7240.000,-170.000,151.000,995.000,0.000,0.000,0
2026-01-31 00:12:33,1264374,3503.000,-1043.000,7692.000,-1.000,85.000,959.000,0.000,0.000,0
2026-01-31 00:12:33,1264414,4001.000,-781.000,8184.000,556.000,173.000,890.000,0.000,0.000,0
2026-01-31 00:12:33,1264454,3823.000,-307.000,7851.000,605.000,460.000,892.000,0.000,0.000,0
2026-01-31 00:12:33,1264494,3436.000,-390.000,7602.000,592.000,175.000,862.000,0.000,0.000,0
2026-01-31 00:12:33,1264534,3308.000,-21.000,7625.000,811.000,-116.000,696.000,0.000,0.000,0
2026-01-31 00:12:33,1264574,3480.000,274.000,7631.000,668.000,-125.000,433.000,0.000,0.000,0
2026-01-31 00:12:33,1264614,3598.000,118.000,7592.000,616.000,24.000,299.000,0.000,0.000,0
2026-01-31 00:12:33,1264654,3795.000,286.000,7763.000,694.000,112.000,310.000,0.000,0.000,0
2026-01-31 00:12:33,1264694,4045.000,350.000,7934.000,186.000,292.000,572.000,0.000,0.000,0
2026-01-31 00:12:33,1264734,3765.000,-578.000,7384.000,-1649.000,314.000,855.000,0.000,0.000,0
2026-01-31 00:12:33,1264774,3600.000,-1230.000,7254.000,-629.000,107.000,678.000,0.000,0.000,0
2026-01-31 00:12:34,1264814,3438.000,-752.000,7419.000,582.000,-41.000,800.000,5.026,0.000,1
2026-01-31 00:12:34,1264854,3248.000,-322.000,7822.000,1000.000,-72.000,891.000,5.026,0.000,1
2026-01-31 00:12:34,1264894,3236.000,-161.000,8295.000,989.000,131.000,918.000,5.026,0.000,1
2026-01-31 00:12:34,1264934,3003.000,312.000,8075.000,1021.000,364.000,869.000,0.000,0.000,0
2026-01-31 00:12:34,1264974,2797.000,579.000,7866.000,610.000,249.000,671.000,0.000,0.000,0
2026-01-31 00:12:34,1265014,3054.000,712.000,7807.000,170.000,54.000,378.000,0.000,0.000,0
2026-01-31 00:12:34,1265054,3220.000,79.000,7659.000,-598.000,43.000,191.000,0.000,0.000,0
2026-01-31 00:12:34,1265094,3546.000,-338.000,7376.000,-4.000,-88.000,-45.000,0.000,0.000,0
2026-01-31 00:12:34,1265134,2995.000,105.000,6974.000,549.000,-181.000,205.000,0.000,0.000,0
2026-01-31 00:12:34,1265174,2740.000,125.000,7411.000,1010.000,-402.000,391.000,0.000,0.000,0
2026-01-31 00:12:34,1265214,2755.000,816.000,8298.000,1007.000,-171.000,529.000,0.000,0.000,0
2026-01-31 00:12:34,1265254,2767.000,805.000,8750.000,639.000,402.000,803.000,0.000,0.000,0
2026-01-31 00:12:34,1265294,2443.000,1004.000,8474.000,499.000,594.000,801.000,0.000,0.000,0
2026-01-31 00:12:34,1265334,2492.000,497.000,8042.000,-426.000,292.000,543.000,0.000,0.000,0
2026-01-31 00:12:34,1265374,2907.000,-162.000,7335.000,-1184.000,-187.000,148.000,0.000,0.000,0
2026-01-31 00:12:34,1265414,3240.000,-612.000,6892.000,-1272.000,-530.000,-199.000,0.000,0.000,0
2026-01-31 00:12:34,1265454,3803.000,-451.000,7681.000,-64.000,-733.000,-202.000,0.000,0.000,0
2026-01-31 00:12:34,1265494,3314.000,716.000,8002.000,1117.000,58.000,609.000,0.000,0.000,0
2026-01-31 00:12:34,1265534,2672.000,910.000,8268.000,1514.000,220.000,659.000,0.000,0.000,0
2026-01-31 00:12:34,1265574,2890.000,1776.000,8310.000,948.000,230.000,504.000,0.000,0.000,0
2026-01-31 00:12:34,1265614,2644.000,701.000,7056.000,-894.000,245.000,348.000,0.000,0.000,0
2026-01-31 00:12:34,1265654,3072.000,-615.000,7070.000,-1157.000,-507.000,24.000,0.000,0.000,0
2026-01-31 00:12:34,1265694,3968.000,-506.000,7814.000,-291.000,-499.000,-150.000,0.000,0.000,0
2026-01-31 00:12:34,1265734,4021.000,-251.000,7902.000,-70.000,-195.000,268.000,0.000,0.000,0
2026-01-31 00:12:34,1265774,3385.000,-268.000,8000.000,212.000,-18.000,605.000,0.000,0.000,0
2026-01-31 00:12:35,1265814,3231.000,233.000,8122.000,486.000,2.000,837.000,6.924,0.000,1
2026-01-31 00:12:35,1265854,3366.000,60.000,8030.000,-336.000,179.000,631.000,6.924,0.000,1
2026-01-31 00:12:35,1265894,3739.000,-833.000,7645.000,-1008.000,241.000,314.000,6.924,0.000,1
2026-01-31 00:12:35,1265934,3759.000,-1402.000,7108.000,-903.000,2.000,283.000,0.000,0.000,0
2026-01-31 00:12:35,1265974,3510.000,-1648.000,7284.000,-224.000,-332.000,496.000,0.000,0.000,0
2026-01-31 00:12:35,1266014,3661.000,-1265.000,8392.000,812.000,-350.000,700.000,0.000,0.000,0
2026-01-31 00:12:35,1266054,3631.000,-341.000,8906.000,1235.000,251.000,1019.000,0.000,0.000,0
2026-01-31 00:12:35,1266096,3281.000,22.000,8243.000,568.000,613.000,960.000,0.000,0.000,0
2026-01-31 00:12:35,1266136,3305.000,-391.000,7553.000,-208.000,260.000,511.000,0.000,0.000,0
2026-01-31 00:12:35,1266174,3837.000,-703.000,7163.000,-416.000,-193.000,-51.000,0.000,0.000,0
2026-01-31 00:12:35,1266214,4416.000,-963.000,6996.000,-340.000,-423.000,-294.000,0.000,0.000,0
2026-01-31 00:12:35,1266254,4452.000,-733.000,7086.000,449.000,-347.000,-75.000,0.000,0.000,0
2026-01-31 00:12:35,1266294,4196.000,-171.000,7267.000,997.000,-142.000,288.000,0.000,0.000,0
2026-01-31 00:12:35,1266336,3948.000,429.000,7470.000,1207.000,131.000,477.000,0.000,0.000,0
2026-01-31 00:12:35,1266374,4167.000,483.000,7524.000,534.000,406.000,437.000,0.000,0.000,0
2026-01-31 00:12:35,1266414,4045.000,48.000,6774.000,-159.000,595.000,333.000,0.000,0.000,0
2026-01-31 00:12:35,1266454,3891.000,-288.000,6432.000,-173.000,126.000,219.000,0.000,0.000,0
2026-01-31 00:12:35,1266494,4117.000,-309.000,6711.000,295.000,-172.000,30.000,0.000,0.000,0
2026-01-31 00:12:35,1266534,4072.000,162.000,7077.000,696.000,-56.000,164.000,0.000,0.000,0
2026-01-31 00:12:35,1266574,3921.000,517.000,7519.000,1174.000,8.000,408.000,0.000,0.000,0
2026-01-31 00:12:35,1266614,3488.000,754.000,7509.000,529.000,526.000,1054.000,0.000,0.000,0
2026-01-31 00:12:35,1266654,3389.000,589.000,7764.000,668.000,413.000,1101.000,0.000,0.000,0
2026-01-31 00:12:35,1266694,3681.000,839.000,8051.000,446.000,566.000,832.000,0.000,0.000,0
2026-01-31 00:12:35,1266734,3780.000,189.000,7442.000,-473.000,585.000,584.000,0.000,0.000,0
2026-01-31 00:12:35,1266774,4012.000,-717.000,7202.000,-876.000,123.000,580.000,0.000,0.000,0
2026-01-31 00:12:36,1266814,4103.000,-1326.000,7870.000,-408.000,-69.000,626.000,5.622,0.000,1
2026-01-31 00:12:36,1266854,4181.000,-534.000,8298.000,545.000,22.000,794.000,5.622,0.000,1
2026-01-31 00:12:36,1266894,3791.000,-23.000,8285.000,513.000,221.000,1121.000,5.622,0.000,1
2026-01-31 00:12:36,1266934,3421.000,-254.000,8255.000,228.000,252.000,1117.000,0.000,0.000,0
2026-01-31 00:12:36,1266974,3299.000,-485.000,8243.000,307.000,189.000,1041.000,0.000,0.000,0
2026-01-31 00:12:36,1267014,3242.000,-284.000,8319.000,449.000,182.000,628.000,0.000,0.000,0
2026-01-31 00:12:36,1267054,2898.000,-468.000,7723.000,-217.000,87.000,639.000,0.000,0.000,0
2026-01-31 00:12:36,1267094,2649.000,-947.000,7534.000,-336.000,-218.000,512.000,0.000,0.000,0
2026-01-31 00:12:36,1267134,3245.000,-501.000,7898.000,643.000,-486.000,175.000,0.000,0.000,0
2026-01-31 00:12:36,1267174,3598.000,583.000,7567.000,740.000,-261.000,125.000,0.000,0.000,0
2026-01-31 00:12:36,1267214,3155.000,390.000,6763.000,112.000,-124.000,31.000,0.000,0.000,0
2026-01-31 00:12:36,1267254,3513.000,-100.000,7071.000,353.000,-470.000,-130.000,0.000,0.000,0
2026-01-31 00:12:36,1267294,4212.000,482.000,7942.000,937.000,-212.000,-161.000,0.000,0.000,0
2026-01-31 00:12:36,1267334,3931.000,690.000,7097.000,183.000,537.000,12.000,0.000,0.000,0
2026-01-31 00:12:36,1267374,3058.000,242.000,6786.000,1112.000,-324.000,84.000,0.000,0.000,0
2026-01-31 00:12:36,1267414,3848.000,1673.000,7986.000,1752.000,-353.000,-224.000,0.000,0.000,0
2026-01-31 00:12:36,1267454,3895.000,1783.000,8178.000,829.000,573.000,-168.000,0.000,0.000,0
2026-01-31 00:12:36,1267494,3622.000,1579.000,7500.000,129.000,604.000,-62.000,0.000,0.000,0
2026-01-31 00:12:36,1267534,3406.000,913.000,7637.000,-32.000,356.000,254.000,0.000,0.000,0
2026-01-31 00:12:36,1267574,3611.000,1246.000,8192.000,486.000,269.000,381.000,0.000,0.000,0
2026-01-31 00:12:36,1267614,3131.000,1932.000,7217.000,-293.000,589.000,454.000,0.000,0.000,0
2026-01-31 00:12:36,1267654,3017.000,269.000,7657.000,-353.000,85.000,453.000,0.000,0.000,0
2026-01-31 00:12:36,1267694,3787.000,743.000,9326.000,1260.000,124.000,327.000,0.000,0.000,0
2026-01-31 00:12:36,1267734,3488.000,2735.000,8337.000,1421.000,735.000,547.000,0.000,0.000,0
2026-01-31 00:12:36,1267774,2802.000,1813.000,7042.000,-724.000,-54.000,375.000,0.000,0.000,0
2026-01-31 00:12:37,1267814,3421.000,581.000,7682.000,-1027.000,-496.000,-51.000,6.348,0.000,1
2026-01-31 00:12:37,1267854,3807.000,573.000,7657.000,-24.000,-299.000,-235.000,6.348,0.000,1
2026-01-31 00:12:37,1267894,3595.000,1629.000,7195.000,657.000,-100.000,-210.000,6.348,0.000,1
2026-01-31 00:12:37,1267934,3303.000,1951.000,6888.000,531.000,-359.000,-184.000,0.000,0.000,0
2026-01-31 00:12:37,1267974,3402.000,2133.000,7079.000,344.000,-275.000,-161.000,0.000,0.000,0
2026-01-31 00:12:37,1268014,3306.000,1894.000,7139.000,19.000,-4.000,-9.000,0.000,0.000,0
2026-01-31 00:12:37,1268054,3146.000,1652.000,7161.000,29.000,205.000,169.000,0.000,0.000,0
2026-01-31 00:12:37,1268094,3079.000,1916.000,7303.000,387.000,243.000,291.000,0.000,0.000,0
2026-01-31 00:12:37,1268134,3139.000,1932.000,7396.000,-36.000,258.000,241.000,0.000,0.000,0
2026-01-31 00:12:37,1268174,3073.000,1929.000,7237.000,-202.000,189.000,222.000,0.000,0.000,0
2026-01-31 00:12:37,1268214,3163.000,1611.000,7498.000,-152.000,70.000,270.000,0.000,0.000,0
2026-01-31 00:12:37,1268254,3206.000,1607.000,7918.000,223.000,119.000,241.000,0.000,0.000,0
2026-01-31 00:12:37,1268294,3273.000,2359.000,7822.000,203.000,249.000,184.000,0.000,0.000,0
2026-01-31 00:12:37,1268336,3068.000,1546.000,7480.000,-508.000,131.000,431.000,0.000,0.000,0
2026-01-31 00:12:37,1268374,2990.000,1302.000,7757.000,-31.000,-166.000,351.000,0.000,0.000,0
2026-01-31 00:12:37,1268414,3317.000,2248.000,8030.000,390.000,-42.000,6.000,0.000,0.000,0
2026-01-31 00:12:37,1268454,3441.000,1834.000,7787.000,-182.000,72.000,-193.000,0.000,0.000,0
2026-01-31 00:12:37,1268494,3570.000,1583.000,6952.000,-155.000,78.000,-330.000,0.000,0.000,0
2026-01-31 00:12:37,1268534,3016.000,1343.000,7183.000,103.000,-294.000,185.000,0.000,0.000,0
2026-01-31 00:12:37,1268574,3359.000,1497.000,8443.000,868.000,-160.000,-23.000,0.000,0.000,0
2026-01-31 00:12:37,1268614,3205.000,3140.000,7880.000,945.000,585.000,-27.000,0.000,0.000,0
2026-01-31 00:12:37,1268654,2482.000,2356.000,6416.000,-483.000,314.000,253.000,0.000,0.000,0
2026-01-31 00:12:37,1268694,2702.000,1949.000,6885.000,-33.000,-356.000,137.000,0.000,0.000,0
2026-01-31 00:12:37,1268734,3179.000,2507.000,7994.000,854.000,-119.000,-8.000,0.000,0.000,0
2026-01-31 00:12:37,1268774,3204.000,2775.000,8525.000,711.000,497.000,-28.000,0.000,0.000,0
2026-01-31 00:12:38,1268814,2905.000,3120.000,8155.000,274.000,558.000,183.000,7.191,0.000,1
2026-01-31 00:12:38,1268854,2350.000,2621.000,7018.000,-896.000,157.000,327.000,7.191,0.000,1
2026-01-31 00:12:38,1268894,3373.000,1491.000,7499.000,-929.000,-703.000,-540.000,7.191,0.000,1
2026-01-31 00:12:38,1268934,4034.000,2208.000,7658.000,-105.000,-223.000,-1001.000,0.000,0.000,0
2026-01-31 00:12:38,1268974,3979.000,2404.000,6943.000,-326.000,-139.000,-734.000,0.000,0.000,0
2026-01-31 00:12:38,1269014,3605.000,1351.000,6931.000,-282.000,-462.000,-265.000,0.000,0.000,0
2026-01-31 00:12:38,1269054,3213.000,1885.000,7652.000,944.000,-183.000,464.000,0.000,0.000,0
2026-01-31 00:12:38,1269094,2478.000,3198.000,7545.000,1639.000,461.000,514.000,0.000,0.000,0
2026-01-31 00:12:38,1269134,2186.000,4061.000,7191.000,1051.000,773.000,263.000,0.000,0.000,0
2026-01-31 00:12:38,1269174,2494.000,3453.000,6915.000,-40.000,633.000,79.000,0.000,0.000,0
2026-01-31 00:12:38,1269214,2803.000,2890.000,6807.000,-447.000,181.000,-93.000,0.000,0.000,0
2026-01-31 00:12:38,1269254,3324.000,2612.000,7995.000,-52.000,-224.000,-322.000,0.000,0.000,0
2026-01-31 00:12:38,1269294,3402.000,3282.000,7755.000,-63.000,-186.000,-152.000,0.000,0.000,0
2026-01-31 00:12:38,1269334,3255.000,3018.000,6911.000,-842.000,-494.000,-171.000,0.000,0.000,0
2026-01-31 00:12:38,1269374,3513.000,2180.000,6634.000,-1129.000,-769.000,-343.000,0.000,0.000,0
2026-01-31 00:12:38,1269414,3623.000,1923.000,7036.000,-186.000,-613.000,-447.000,0.000,0.000,0
2026-01-31 00:12:38,1269454,3574.000,2754.000,7313.000,959.000,-152.000,-329.000,0.000,0.000,0
2026-01-31 00:12:38,1269494,3082.000,3555.000,7192.000,1061.000,229.000,151.000,0.000,0.000,0
2026-01-31 00:12:38,1269534,2747.000,3456.000,7205.000,461.000,368.000,402.000,0.000,0.000,0
2026-01-31 00:12:38,1269574,2616.000,3282.000,7299.000,260.000,554.000,348.000,0.000,0.000,0
2026-01-31 00:12:38,1269614,2661.000,3311.000,7168.000,69.000,639.000,199.000,0.000,0.000,0
2026-01-31 00:12:38,1269654,2675.000,3283.000,7039.000,-57.000,337.000,-22.000,0.000,0.000,0
2026-01-31 00:12:38,1269694,2879.000,3200.000,7438.000,62.000,141.000,-219.000,0.000,0.000,0
2026-01-31 00:12:38,1269734,2895.000,3406.000,7510.000,220.000,166.000,-391.000,0.000,0.000,0
2026-01-31 00:12:38,1269774,2555.000,3267.000,7165.000,-142.000,31.000,-257.000,0.000,0.000,0
2026-01-31 00:12:39,1269814,2436.000,3021.000,7149.000,-188.000,-228.000,-362.000,7.911,0.000,1
2026-01-31 00:12:39,1269854,2670.000,3158.000,7671.000,360.000,-90.000,-511.000,7.911,0.000,1
2026-01-31 00:12:39,1269894,2675.000,3762.000,7492.000,455.000,287.000,-438.000,7.911,0.000,1
2026-01-31 00:12:39,1269934,2408.000,3582.000,7410.000,50.000,241.000,-277.000,0.000,0.000,0
2026-01-31 00:12:39,1269974,2311.000,3505.000,7463.000,-124.000,95.000,-243.000,0.000,0.000,0
2026-01-31 00:12:39,1270014,2230.000,3328.000,7283.000,-365.000,107.000,-258.000,0.000,0.000,0
2026-01-31 00:12:39,1270054,2141.000,3259.000,7509.000,86.000,-16.000,-395.000,0.000,0.000,0
2026-01-31 00:12:39,1270096,2118.000,3727.000,7648.000,329.000,80.000,-493.000,0.000,0.000,0
2026-01-31 00:12:39,1270136,1939.000,3901.000,7438.000,71.000,124.000,-502.000,0.000,0.000,0
2026-01-31 00:12:39,1270174,1887.000,3776.000,7453.000,-153.000,-30.000,-495.000,0.000,0.000,0
2026-01-31 00:12:39,1270214,1919.000,3697.000,7513.000,-208.000,-81.000,-508.000,0.000,0.000,0
2026-01-31 00:12:39,1270254,1818.000,3716.000,7439.000,-82.000,28.000,-527.000,0.000,0.000,0
2026-01-31 00:12:39,1270294,1685.000,3829.000,7461.000,-68.000,27.000,-576.000,0.000,0.000,0
2026-01-31 00:12:39,1270334,1736.000,3867.000,7590.000,2.000,-1.000,-638.000,0.000,0.000,0
2026-01-31 00:12:39,1270374,1701.000,4120.000,7700.000,39.000,24.000,-714.000,0.000,0.000,0
2026-01-31 00:12:39,1270414,1480.000,4075.000,7298.000,-476.000,-74.000,-806.000,0.000,0.000,0
2026-01-31 00:12:39,1270454,1550.000,3559.000,7299.000,-615.000,-263.000,-828.000,0.000,0.000,0
2026-01-31 00:12:39,1270494,1618.000,3732.000,7710.000,-22.000,-240.000,-913.000,0.000,0.000,0
2026-01-31 00:12:39,1270534,1718.000,4342.000,7909.000,335.000,-7.000,-941.000,0.000,0.000,0
2026-01-31 00:12:39,1270574,1457.000,4614.000,7571.000,-159.000,46.000,-962.000,0.000,0.000,0
2026-01-31 00:12:39,1270614,1457.000,3836.000,7154.000,-1093.000,-340.000,-926.000,0.000,0.000,0
2026-01-31 00:12:39,1270654,1572.000,3296.000,7128.000,-998.000,-547.000,-982.000,0.000,0.000,0
2026-01-31 00:12:39,1270694,1714.000,3517.000,7387.000,-357.000,-472.000,-970.000,0.000,0.000,0
2026-01-31 00:12:39,1270734,1568.000,3853.000,7526.000,-146.000,-233.000,-932.000,0.000,0.000,0
2026-01-31 00:12:39,1270774,1338.000,3854.000,7494.000,-175.000,-175.000,-834.000,0.000,0.000,0
2026-01-31 00:12:40,1270814,1721.000,4127.000,8274.000,-161.000,-306.000,-837.000,8.647,0.000,1
2026-01-31 00:12:40,1270854,1710.000,4355.000,7757.000,-549.000,-39.000,-901.000,8.647,0.000,1
2026-01-31 00:12:40,1270894,1325.000,3546.000,6931.000,-1595.000,-299.000,-868.000,8.647,0.000,1
2026-01-31 00:12:40,1270934,1250.000,2188.000,7279.000,-1731.000,-813.000,-859.000,0.000,0.000,0
2026-01-31 00:12:40,1270974,1702.000,2177.000,8330.000,-460.000,-727.000,-991.000,0.000,0.000,0
2026-01-31 00:12:40,1271014,1477.000,3192.000,8488.000,471.000,-166.000,-1100.000,0.000,0.000,0
2026-01-31 00:12:40,1271054,1168.000,3382.000,8205.000,-235.000,-219.000,-887.000,0.000,0.000,0
2026-01-31 00:12:40,1271094,1349.000,3154.000,7966.000,-733.000,-420.000,-920.000,0.000,0.000,0
2026-01-31 00:12:40,1271134,1280.000,2785.000,7609.000,-751.000,-425.000,-1044.000,0.000,0.000,0
2026-01-31 00:12:40,1271174,1288.000,2610.000,7625.000,-430.000,-388.000,-1024.000,0.000,0.000,0
2026-01-31 00:12:40,1271214,1203.000,2719.000,7970.000,230.000,-179.000,-908.000,0.000,0.000,0
2026-01-31 00:12:40,1271254,938.000,3295.000,8063.000,768.000,95.000,-789.000,0.000,0.000,0
2026-01-31 00:12:40,1271294,552.000,3606.000,7605.000,55.000,194.000,-748.000,0.000,0.000,0
2026-01-31 00:12:40,1271334,482.000,2897.000,7699.000,-359.000,-102.000,-987.000,0.000,0.000,0
2026-01-31 00:12:40,1271374,1126.000,3043.000,8279.000,400.000,-230.000,-1153.000,0.000,0.000,0
2026-01-31 00:12:40,1271414,1165.000,4084.000,7842.000,409.000,-63.000,-1390.000,0.000,0.000,0
2026-01-31 00:12:40,1271454,965.000,2959.000,7208.000,-1171.000,-506.000,-1504.000,0.000,0.000,0
2026-01-31 00:12:40,1271494,1516.000,2226.000,7916.000,-506.000,-1039.000,-1497.000,0.000,0.000,0
2026-01-31 00:12:40,1271534,1757.000,3283.000,8486.000,682.000,-496.000,-1453.000,0.000,0.000,0
2026-01-31 00:12:40,1271574,1000.000,3539.000,7709.000,-280.000,-222.000,-1248.000,0.000,0.000,0
2026-01-31 00:12:40,1271614,1071.000,3305.000,7790.000,-349.000,-422.000,-1081.000,0.000,0.000,0
2026-01-31 00:12:40,1271654,917.000,3466.000,7879.000,-285.000,-163.000,-1014.000,0.000,0.000,0
2026-01-31 00:12:40,1271694,651.000,3209.000,7698.000,-498.000,53.000,-988.000,0.000,0.000,0
2026-01-31 00:12:40,1271734,472.000,3024.000,7821.000,-412.000,55.000,-955.000,0.000,0.000,0
2026-01-31 00:12:40,1271774,433.000,3077.000,7791.000,-368.000,26.000,-912.000,0.000,0.000,0
2026-01-31 00:12:41,1271814,442.000,3366.000,7450.000,-472.000,-79.000,-1140.000,7.742,0.000,1
2026-01-31 00:12:41,1271854,569.000,3044.000,7723.000,-518.000,-297.000,-1159.000,7.742,0.000,1
2026-01-31 00:12:41,1271894,900.000,3189.000,8312.000,-227.000,-330.000,-1193.000,7.742,0.000,1
2026-01-31 00:12:41,1271934,509.000,3131.000,8521.000,-421.000,-80.000,-1250.000,0.000,0.000,0
2026-01-31 00:12:41,1271974,353.000,2794.000,8318.000,-1066.000,-371.000,-1299.000,0.000,0.000,0
2026-01-31 00:12:41,1272014,476.000,2394.000,8340.000,-1164.000,-649.000,-1381.000,0.000,0.000,0
2026-01-31 00:12:41,1272054,626.000,2206.000,8546.000,-802.000,-726.000,-1474.000,0.000,0.000,0
2026-01-31 00:12:41,1272094,522.000,2591.000,8285.000,-459.000,-629.000,-1392.000,0.000,0.000,0
2026-01-31 00:12:41,1272134,53.000,2553.000,8018.000,-743.000,-555.000,-1225.000,0.000,0.000,0
2026-01-31 00:12:41,1272174,40.000,2371.000,8216.000,-503.000,-673.000,-1115.000,0.000,0.000,0
2026-01-31 00:12:41,1272214,217.000,2924.000,8590.000,210.000,-292.000,-1131.000,0.000,0.000,0
2026-01-31 00:12:41,1272254,396.000,3516.000,8010.000,260.000,162.000,-1215.000,0.000,0.000,0
2026-01-31 00:12:41,1272294,532.000,3212.000,7714.000,-84.000,18.000,-1280.000,0.000,0.000,0
2026-01-31 00:12:41,1272336,711.000,3398.000,7897.000,153.000,-361.000,-1362.000,0.000,0.000,0
2026-01-31 00:12:41,1272374,610.000,3173.000,7784.000,-272.000,-560.000,-1416.000,0.000,0.000,0
2026-01-31 00:12:41,1272414,639.000,2832.000,8096.000,-217.000,-635.000,-1480.000,0.000,0.000,0
2026-01-31 00:12:41,1272454,594.000,3281.000,8355.000,253.000,-402.000,-1435.000,0.000,0.000,0
2026-01-31 00:12:41,1272494,142.000,3441.000,7901.000,-555.000,-280.000,-1384.000,0.000,0.000,0
2026-01-31 00:12:41,1272534,62.000,2621.000,7756.000,-1293.000,-580.000,-1382.000,0.000,0.000,0
2026-01-31 00:12:41,1272574,397.000,2405.000,7893.000,-1064.000,-747.000,-1283.000,0.000,0.000,0
2026-01-31 00:12:41,1272614,214.000,2491.000,7928.000,-782.000,-329.000,-1225.000,0.000,0.000,0
2026-01-31 00:12:41,1272654,-59.000,2338.000,8066.000,-528.000,-83.000,-1088.000,0.000,0.000,0
2026-01-31 00:12:41,1272694,-177.000,2799.000,8645.000,-114.000,-56.000,-939.000,0.000,0.000,0
2026-01-31 00:12:41,1272734,-284.000,2872.000,8669.000,-512.000,-15.000,-993.000,0.000,0.000,0
2026-01-31 00:12:41,1272774,-213.000,2503.000,8555.000,-936.000,-247.000,-1106.000,0.000,0.000,0
2026-01-31 00:12:42,1272814,50.000,2112.000,8506.000,-964.000,-588.000,-1202.000,7.983,0.000,1
2026-01-31 00:12:42,1272854,363.000,2216.000,8576.000,-687.000,-785.000,-1310.000,7.983,0.000,1
2026-01-31 00:12:42,1272894,451.000,2119.000,8750.000,-759.000,-741.000,-1318.000,7.983,0.000,1
2026-01-31 00:12:42,1272934,356.000,1940.000,8818.000,-604.000,-628.000,-1214.000,0.000,0.000,0
2026-01-31 00:12:42,1272974,283.000,2028.000,8697.000,-588.000,-607.000,-1173.000,0.000,0.000,0
2026-01-31 00:12:42,1273014,402.000,1861.000,8565.000,-981.000,-716.000,-1230.000,0.000,0.000,0
2026-01-31 00:12:42,1273054,604.000,1448.000,8201.000,-1177.000,-785.000,-1243.000,0.000,0.000,0
2026-01-31 00:12:42,1273094,648.000,1359.000,7986.000,-485.000,-649.000,-1202.000,0.000,0.000,0
2026-01-31 00:12:42,1273134,694.000,1650.000,8333.000,95.000,-474.000,-1080.000,0.000,0.000,0
2026-01-31 00:12:42,1273174,448.000,2062.000,8543.000,338.000,-131.000,-953.000,0.000,0.000,0
2026-01-31 00:12:42,1273214,348.000,1967.000,8772.000,42.000,44.000,-834.000,0.000,0.000,0
2026-01-31 00:12:42,1273254,293.000,2067.000,8828.000,98.000,130.000,-777.000,0.000,0.000,0
2026-01-31 00:12:42,1273294,237.000,2177.000,8594.000,-194.000,-19.000,-836.000,0.000,0.000,0
2026-01-31 00:12:42,1273334,362.000,1936.000,8441.000,-436.000,-305.000,-955.000,0.000,0.000,0
2026-01-31 00:12:42,1273374,541.000,1923.000,8392.000,-427.000,-487.000,-996.000,0.000,0.000,0
2026-01-31 00:12:42,1273414,618.000,1826.000,8368.000,-490.000,-481.000,-991.000,0.000,0.000,0
2026-01-31 00:12:42,1273454,785.000,1596.000,8505.000,-531.000,-482.000,-939.000,0.000,0.000,0
2026-01-31 00:12:42,1273494,749.000,1751.000,8565.000,-177.000,-336.000,-816.000,0.000,0.000,0
2026-01-31 00:12:42,1273534,627.000,1918.000,8300.000,-344.000,-299.000,-812.000,0.000,0.000,0
2026-01-31 00:12:42,1273574,730.000,1593.000,7958.000,-755.000,-439.000,-805.000,0.000,0.000,0
2026-01-31 00:12:42,1273614,811.000,1230.000,8242.000,-438.000,-440.000,-739.000,0.000,0.000,0
2026-01-31 00:12:42,1273654,1012.000,1639.000,8427.000,-55.000,-298.000,-646.000,0.000,0.000,0
2026-01-31 00:12:42,1273694,918.000,1617.000,8487.000,-201.000,-80.000,-618.000,0.000,0.000,0
2026-01-31 00:12:42,1273734,1158.000,1527.000,8734.000,-239.000,-152.000,-597.000,0.000,0.000,0
2026-01-31 00:12:42,1273774,1260.000,1433.000,8571.000,-500.000,-188.000,-598.000,0.000,0.000,0
2026-01-31 00:12:43,1273814,1270.000,1272.000,8081.000,-620.000,-346.000,-697.000,8.436,0.000,1
2026-01-31 00:12:43,1273854,1318.000,1120.000,8129.000,-595.000,-458.000,-737.000,8.436,0.000,1
2026-01-31 00:12:43,1273894,1269.000,1050.000,8208.000,-304.000,-357.000,-502.000,8.436,0.000,1
2026-01-31 00:12:43,1273934,1072.000,1247.000,8270.000,8.000,-118.000,-426.000,0.000,0.000,0
2026-01-31 00:12:43,1273974,1135.000,1311.000,8538.000,387.000,15.000,-276.000,0.000,0.000,0
2026-01-31 00:12:43,1274014,1182.000,2020.000,8847.000,827.000,277.000,-292.000,0.000,0.000,0
2026-01-31 00:12:43,1274056,874.000,1993.000,8246.000,-72.000,295.000,-340.000,0.000,0.000,0
2026-01-31 00:12:43,1274095,877.000,1334.000,7880.000,-736.000,-169.000,-515.000,0.000,0.000,0
2026-01-31 00:12:43,1274134,1447.000,939.000,8090.000,-464.000,-459.000,-561.000,0.000,0.000,0
2026-01-31 00:12:43,1274174,1447.000,1464.000,8367.000,200.000,-200.000,-431.000,0.000,0.000,0
2026-01-31 00:12:43,1274214,884.000,1354.000,7930.000,-236.000,-30.000,-316.000,0.000,0.000,0
2026-01-31 00:12:43,1274254,667.000,1037.000,7948.000,-564.000,-171.000,-259.000,0.000,0.000,0
2026-01-31 00:12:43,1274294,1080.000,996.000,8617.000,-73.000,-198.000,-338.000,0.000,0.000,0
2026-01-31 00:12:43,1274336,1450.000,1512.000,8974.000,188.000,23.000,-382.000,0.000,0.000,0
2026-01-31 00:12:43,1274374,1469.000,1525.000,8755.000,-229.000,30.000,-426.000,0.000,0.000,0
2026-01-31 00:12:43,1274414,1531.000,1156.000,8562.000,-687.000,-326.000,-458.000,0.000,0.000,0
2026-01-31 00:12:43,1274454,1846.000,926.000,8511.000,-556.000,-594.000,-498.000,0.000,0.000,0
2026-01-31 00:12:43,1274494,2002.000,1342.000,8065.000,-131.000,-546.000,-507.000,0.000,0.000,0
2026-01-31 00:12:43,1274534,2013.000,1516.000,7968.000,4.000,-489.000,-537.000,0.000,0.000,0
2026-01-31 00:12:43,1274574,2212.000,1641.000,8187.000,188.000,-361.000,-402.000,0.000,0.000,0
2026-01-31 00:12:43,1274614,2181.000,1681.000,8248.000,320.000,72.000,-148.000,0.000,0.000,0
2026-01-31 00:12:43,1274654,1985.000,1848.000,8202.000,244.000,142.000,-109.000,0.000,0.000,0
2026-01-31 00:12:43,1274694,2104.000,1928.000,8147.000,125.000,-36.000,-212.000,0.000,0.000,0
2026-01-31 00:12:43,1274734,2303.000,2049.000,7808.000,-183.000,-114.000,-332.000,0.000,0.000,0
2026-01-31 00:12:43,1274774,2436.000,1713.000,7802.000,-420.000,-188.000,-404.000,0.000,0.000,0
2026-01-31 00:12:44,1274814,2744.000,1468.000,8115.000,-349.000,-243.000,-266.000,8.755,0.000,1
2026-01-31 00:12:44,1274854,2615.000,1388.000,8310.000,-170.000,41.000,-120.000,8.755,0.000,1
2026-01-31 00:12:44,1274894,2332.000,1202.000,8146.000,-450.000,153.000,42.000,8.755,0.000,1
2026-01-31 00:12:44,1274934,1997.000,1151.000,7780.000,-569.000,82.000,185.000,0.000,0.000,0
2026-01-31 00:12:44,1274974,2020.000,792.000,8060.000,-528.000,-147.000,216.000,0.000,0.000,0
2026-01-31 00:12:44,1275014,2610.000,1134.000,8382.000,132.000,132.000,44.000,0.000,0.000,0
2026-01-31 00:12:44,1275054,2145.000,1042.000,7958.000,-199.000,292.000,139.000,0.000,0.000,0
2026-01-31 00:12:44,1275094,2151.000,913.000,8015.000,-290.000,-110.000,98.000,0.000,0.000,0
2026-01-31 00:12:44,1275134,2235.000,801.000,8029.000,-500.000,-214.000,125.000,0.000,0.000,0
2026-01-31 00:12:44,1275174,2171.000,774.000,7707.000,-590.000,-123.000,93.000,0.000,0.000,0
2026-01-31 00:12:44,1275214,2125.000,380.000,7712.000,-411.000,-120.000,33.000,0.000,0.000,0
2026-01-31 00:12:44,1275254,2378.000,581.000,8283.000,367.000,-75.000,-59.000,0.000,0.000,0
2026-01-31 00:12:44,1275294,2398.000,1256.000,8280.000,664.000,286.000,-35.000,0.000,0.000,0
2026-01-31 00:12:44,1275334,1941.000,1082.000,8015.000,62.000,253.000,14.000,0.000,0.000,0
2026-01-31 00:12:44,1275374,2030.000,891.000,8121.000,45.000,114.000,73.000,0.000,0.000,0
2026-01-31 00:12:44,1275414,1909.000,988.000,8102.000,53.000,119.000,43.000,0.000,0.000,0
2026-01-31 00:12:44,1275454,1891.000,911.000,8178.000,-12.000,96.000,-19.000,0.000,0.000,0
2026-01-31 00:12:44,1275494,2113.000,974.000,8233.000,40.000,68.000,-32.000,0.000,0.000,0
2026-01-31 00:12:44,1275534,2174.000,962.000,8268.000,19.000,77.000,-39.000,0.000,0.000,0
2026-01-31 00:12:44,1275574,2211.000,940.000,8434.000,1.000,35.000,-36.000,0.000,0.000,0
2026-01-31 00:12:44,1275614,2230.000,806.000,8522.000,-99.000,-26.000,-36.000,0.000,0.000,0
2026-01-31 00:12:44,1275654,2251.000,686.000,8215.000,-270.000,-100.000,-36.000,0.000,0.000,0
2026-01-31 00:12:44,1275694,2177.000,558.000,7823.000,-280.000,-241.000,-80.000,0.000,0.000,0
2026-01-31 00:12:44,1275734,2254.000,615.000,8058.000,95.000,-264.000,-129.000,0.000,0.000,0
2026-01-31 00:12:44,1275774,2341.000,1128.000,8224.000,426.000,128.000,-99.000,0.000,0.000,0
2026-01-31 00:12:45,1275814,2035.000,1044.000,7995.000,105.000,239.000,35.000,8.966,0.000,1
2026-01-31 00:12:45,1275854,1756.000,939.000,7670.000,-183.000,90.000,88.000,8.966,0.000,1
2026-01-31 00:12:45,1275894,1765.000,752.000,7625.000,-360.000,-41.000,-16.000,8.966,0.000,1
2026-01-31 00:12:45,1275934,2184.000,495.000,8078.000,-106.000,-43.000,-154.000,0.000,0.000,0
2026-01-31 00:12:45,1275974,2387.000,738.000,8283.000,198.000,199.000,-87.000,0.000,0.000,0
2026-01-31 00:12:45,1276014,1883.000,760.000,8254.000,79.000,269.000,93.000,0.000,0.000,0
2026-01-31 00:12:45,1276054,1859.000,1049.000,8352.000,103.000,33.000,119.000,0.000,0.000,0
2026-01-31 00:12:45,1276096,1803.000,1116.000,8242.000,-40.000,117.000,22.000,0.000,0.000,0
2026-01-31 00:12:45,1276134,2195.000,1102.000,8457.000,304.000,9.000,-92.000,0.000,0.000,0
2026-01-31 00:12:45,1276174,2215.000,1510.000,8328.000,451.000,96.000,-131.000,0.000,0.000,0
2026-01-31 00:12:45,1276214,2147.000,1416.000,8071.000,63.000,-80.000,-155.000,0.000,0.000,0
2026-01-31 00:12:45,1276254,2292.000,1185.000,7841.000,-119.000,-271.000,-249.000,0.000,0.000,0
2026-01-31 00:12:45,1276294,2585.000,1181.000,7989.000,214.000,-355.000,-242.000,0.000,0.000,0
2026-01-31 00:12:45,1276336,2807.000,1574.000,8300.000,640.000,-158.000,-238.000,0.000,0.000,0
2026-01-31 00:12:45,1276374,2513.000,1962.000,7873.000,661.000,94.000,-279.000,0.000,0.000,0
2026-01-31 00:12:45,1276414,2370.000,1956.000,7489.000,280.000,-81.000,-275.000,0.000,0.000,0
2026-01-31 00:12:45,1276454,2616.000,1735.000,7235.000,3.000,-225.000,-230.000,0.000,0.000,0
2026-01-31 00:12:45,1276494,2654.000,1503.000,7697.000,-58.000,-91.000,-35.000,0.000,0.000,0
2026-01-31 00:12:45,1276534,2408.000,1217.000,7863.000,-79.000,222.000,164.000,0.000,0.000,0
2026-01-31 00:12:45,1276574,2059.000,1456.000,7723.000,-142.000,309.000,211.000,0.000,0.000,0
2026-01-31 00:12:45,1276614,2102.000,1320.000,8047.000,-277.000,263.000,253.000,0.000,0.000,0
2026-01-31 00:12:45,1276654,2005.000,1201.000,8243.000,-171.000,392.000,295.000,0.000,0.000,0
2026-01-31 00:12:45,1276694,1889.000,1243.000,8396.000,4.000,444.000,302.000,0.000,0.000,0
2026-01-31 00:12:45,1276734,1788.000,1313.000,8354.000,-178.000,262.000,254.000,0.000,0.000,0
2026-01-31 00:12:45,1276774,1644.000,1182.000,8010.000,-496.000,84.000,147.000,0.000,0.000,0
2026-01-31 00:12:46,1276814,1763.000,636.000,8186.000,-547.000,-252.000,13.000,9.316,0.000,1
2026-01-31 00:12:46,1276854,2200.000,935.000,8673.000,262.000,-229.000,-47.000,9.316,0.000,1
2026-01-31 00:12:46,1276894,2116.000,1857.000,8440.000,761.000,35.000,-148.000,9.316,0.000,1
2026-01-31 00:12:46,1276934,2088.000,1837.000,7908.000,157.000,-169.000,-120.000,0.000,0.000,0
2026-01-31 00:12:46,1276974,2383.000,1308.000,7574.000,-368.000,-546.000,-205.000,0.000,0.000,0
2026-01-31 00:12:46,1277014,2734.000,1080.000,7610.000,-24.000,-584.000,-257.000,0.000,0.000,0
2026-01-31 00:12:46,1277054,3020.000,1451.000,7740.000,527.000,-411.000,-292.000,0.000,0.000,0
2026-01-31 00:12:46,1277094,2950.000,1798.000,7675.000,732.000,-262.000,-221.000,0.000,0.000,0
2026-01-31 00:12:46,1277134,2698.000,2148.000,7591.000,521.000,-164.000,-144.000,0.000,0.000,0
2026-01-31 00:12:46,1277174,2505.000,1743.000,7481.000,-271.000,-46.000,6.000,0.000,0.000,0
2026-01-31 00:12:46,1277214,2337.000,1036.000,7379.000,-585.000,-41.000,86.000,0.000,0.000,0
2026-01-31 00:12:46,1277254,2498.000,1159.000,7622.000,-73.000,15.000,53.000,0.000,0.000,0
2026-01-31 00:12:46,1277294,2777.000,1564.000,8285.000,175.000,235.000,43.000,0.000,0.000,0
2026-01-31 00:12:46,1277334,2497.000,1453.000,8135.000,-219.000,409.000,186.000,0.000,0.000,0
2026-01-31 00:12:46,1277374,2243.000,1240.000,7862.000,-431.000,180.000,268.000,0.000,0.000,0
2026-01-31 00:12:46,1277414,2043.000,1305.000,7523.000,-373.000,-61.000,314.000,0.000,0.000,0
2026-01-31 00:12:46,1277454,2024.000,1732.000,8432.000,-67.000,-285.000,177.000,0.000,0.000,0
2026-01-31 00:12:46,1277494,2578.000,1380.000,9740.000,-405.000,-38.000,60.000,0.000,0.000,0
2026-01-31 00:12:46,1277534,1997.000,896.000,8910.000,-981.000,616.000,126.000,0.000,0.000,0
2026-01-31 00:12:46,1277574,1741.000,385.000,7678.000,-1718.000,-110.000,127.000,0.000,0.000,0
2026-01-31 00:12:46,1277614,2501.000,-407.000,7886.000,-1647.000,-875.000,-122.000,0.000,0.000,0
2026-01-31 00:12:46,1277654,3610.000,27.000,8534.000,-47.000,-542.000,-462.000,0.000,0.000,0
2026-01-31 00:12:46,1277694,2439.000,1997.000,7528.000,1974.000,222.000,-240.000,0.000,0.000,0
2026-01-31 00:12:46,1277734,1648.000,1889.000,6859.000,507.000,-332.000,-96.000,0.000,0.000,0
2026-01-31 00:12:46,1277774,2231.000,1509.000,7135.000,-157.000,-740.000,-256.000,0.000,0.000,0
2026-01-31 00:12:47,1277814,2756.000,1361.000,7124.000,123.000,-288.000,-313.000,9.516,0.000,1
2026-01-31 00:12:47,1277854,2638.000,1482.000,7100.000,605.000,95.000,-188.000,9.516,0.000,1
2026-01-31 00:12:47,1277894,2663.000,1726.000,7303.000,909.000,236.000,-76.000,9.516,0.000,1
2026-01-31 00:12:47,1277934,2656.000,2063.000,7636.000,995.000,318.000,-26.000,0.000,0.000,0
2026-01-31 00:12:47,1277974,2921.000,2334.000,8089.000,790.000,414.000,0.000,0.000,0.000,0
2026-01-31 00:12:47,1278014,2496.000,2111.000,7976.000,-62.000,502.000,117.000,0.000,0.000,0
2026-01-31 00:12:47,1278054,2401.000,1060.000,8273.000,-677.000,-63.000,123.000,0.000,0.000,0
2026-01-31 00:12:47,1278096,2728.000,1210.000,8339.000,-403.000,-78.000,103.000,0.000,0.000,0
2026-01-31 00:12:47,1278135,2691.000,1326.000,8339.000,-320.000,66.000,180.000,0.000,0.000,0
2026-01-31 00:12:47,1278174,2562.000,1277.000,8289.000,-390.000,77.000,201.000,0.000,0.000,0
2026-01-31 00:12:47,1278214,2565.000,1286.000,8108.000,-446.000,1.000,177.000,0.000,0.000,0
2026-01-31 00:12:47,1278254,2630.000,1025.000,7865.000,-647.000,-101.000,145.000,0.000,0.000,0
2026-01-31 00:12:47,1278294,2743.000,696.000,8049.000,-698.000,-149.000,163.000,0.000,0.000,0
2026-01-31 00:12:47,1278337,2661.000,645.000,8109.000,-195.000,-40.000,134.000,0.000,0.000,0
2026-01-31 00:12:47,1278374,2628.000,1175.000,8188.000,455.000,133.000,32.000,0.000,0.000,0
2026-01-31 00:12:47,1278414,2512.000,1758.000,8046.000,455.000,206.000,19.000,0.000,0.000,0
2026-01-31 00:12:47,1278454,2540.000,1495.000,7959.000,166.000,-54.000,-7.000,0.000,0.000,0
2026-01-31 00:12:47,1278494,2736.000,1665.000,7800.000,304.000,-110.000,-123.000,0.000,0.000,0
2026-01-31 00:12:47,1278534,2627.000,1691.000,7669.000,373.000,-55.000,-122.000,0.000,0.000,0
2026-01-31 00:12:47,1278574,2774.000,1596.000,7919.000,373.000,23.000,-168.000,0.000,0.000,0
2026-01-31 00:12:47,1278614,2693.000,2039.000,7725.000,425.000,228.000,-278.000,0.000,0.000,0
2026-01-31 00:12:47,1278654,2693.000,2050.000,7186.000,-147.000,-52.000,-257.000,0.000,0.000,0
2026-01-31 00:12:47,1278694,2928.000,1629.000,7184.000,-585.000,-195.000,-274.000,0.000,0.000,0
2026-01-31 00:12:47,1278734,3096.000,1184.000,7529.000,-495.000,-89.000,-106.000,0.000,0.000,0
2026-01-31 00:12:47,1278774,2746.000,1003.000,7490.000,-364.000,186.000,217.000,0.000,0.000,0
2026-01-31 00:12:48,1278814,2215.000,1126.000,8105.000,-79.000,269.000,478.000,9.840,0.000,1
2026-01-31 00:12:48,1278854,2556.000,1074.000,9019.000,90.000,533.000,326.000,9.840,0.000,1
2026-01-31 00:12:48,1278894,2550.000,1205.000,8822.000,-116.000,715.000,388.000,9.840,0.000,1
2026-01-31 00:12:48,1278934,2018.000,1398.000,7876.000,-333.000,326.000,362.000,0.000,0.000,0
2026-01-31 00:12:48,1278974,1830.000,1207.000,7476.000,-653.000,-390.000,113.000,0.000,0.000,0
2026-01-31 00:12:48,1279014,2573.000,1119.000,7850.000,40.000,-678.000,-278.000,0.000,0.000,0
2026-01-31 00:12:48,1279054,2996.000,1733.000,7824.000,711.000,-181.000,-273.000,0.000,0.000,0
2026-01-31 00:12:48,1279094,2290.000,1606.000,7408.000,454.000,261.000,-95.000,0.000,0.000,0
2026-01-31 00:12:48,1279134,2204.000,1472.000,7696.000,483.000,-105.000,-200.000,0.000,0.000,0
2026-01-31 00:12:48,1279174,2883.000,2027.000,7726.000,452.000,-252.000,-240.000,0.000,0.000,0
2026-01-31 00:12:48,1279214,3252.000,1714.000,7931.000,243.000,-203.000,-182.000,0.000,0.000,0
2026-01-31 00:12:48,1279254,3051.000,2223.000,7749.000,312.000,115.000,-108.000,0.000,0.000,0
2026-01-31 00:12:48,1279294,2463.000,1510.000,6911.000,-940.000,41.000,46.000,0.000,0.000,0
2026-01-31 00:12:48,1279334,2603.000,511.000,7177.000,-940.000,-373.000,78.000,0.000,0.000,0
2026-01-31 00:12:48,1279374,2872.000,955.000,7445.000,37.000,-116.000,7.000,0.000,0.000,0
2026-01-31 00:12:48,1279414,2495.000,1461.000,7732.000,448.000,288.000,109.000,0.000,0.000,0
2026-01-31 00:12:48,1279454,2419.000,1449.000,8342.000,396.000,344.000,261.000,0.000,0.000,0
2026-01-31 00:12:48,1279494,2334.000,1734.000,8410.000,110.000,579.000,342.000,0.000,0.000,0
2026-01-31 00:12:48,1279534,1995.000,1363.000,7753.000,-721.000,519.000,359.000,0.000,0.000,0
2026-01-31 00:12:48,1279574,2528.000,818.000,8464.000,-97.000,-142.000,29.000,0.000,0.000,0
2026-01-31 00:12:48,1279614,2871.000,1870.000,8390.000,572.000,12.000,-115.000,0.000,0.000,0
2026-01-31 00:12:48,1279654,2308.000,1723.000,8008.000,206.000,59.000,-39.000,0.000,0.000,0
2026-01-31 00:12:48,1279694,2346.000,1666.000,8366.000,322.000,-115.000,-38.000,0.000,0.000,0
2026-01-31 00:12:48,1279734,2458.000,2110.000,8188.000,473.000,64.000,-138.000,0.000,0.000,0
2026-01-31 00:12:48,1279774,2437.000,2013.000,7903.000,117.000,-55.000,-184.000,0.000,0.000,0
2026-01-31 00:12:49,1279814,2732.000,1871.000,7972.000,75.000,-215.000,-194.000,10.262,0.000,1
2026-01-31 00:12:49,1279854,2776.000,1962.000,7639.000,9.000,-110.000,-194.000,10.262,0.000,1
2026-01-31 00:12:49,1279894,2601.000,1634.000,7181.000,-439.000,-218.000,-108.000,10.262,0.000,1
2026-01-31 00:12:49,1279934,2800.000,1397.000,7992.000,-24.000,-329.000,-75.000,0.000,0.000,0
2026-01-31 00:12:49,1279974,2681.000,2275.000,7889.000,435.000,206.000,-19.000,0.000,0.000,0
2026-01-31 00:12:49,1280014,2275.000,1513.000,7385.000,-816.000,125.000,150.000,0.000,0.000,0
2026-01-31 00:12:49,1280054,2509.000,558.000,7731.000,-766.000,-174.000,207.000,0.000,0.000,0
2026-01-31 00:12:49,1280098,2686.000,1262.000,7965.000,69.000,144.000,87.000,0.000,0.000,0
2026-01-31 00:12:49,1280134,2367.000,1209.000,7772.000,-236.000,306.000,227.000,0.000,0.000,0
2026-01-31 00:12:49,1280174,2232.000,651.000,8246.000,40.000,48.000,237.000,0.000,0.000,0
2026-01-31 00:12:49,1280214,2258.000,1796.000,8006.000,859.000,51.000,154.000,0.000,0.000,0
2026-01-31 00:12:49,1280254,2061.000,1920.000,7495.000,80.000,-15.000,47.000,0.000,0.000,0
2026-01-31 00:12:49,1280294,2528.000,1615.000,7795.000,155.000,-340.000,-265.000,0.000,0.000,0
2026-01-31 00:12:49,1280336,2478.000,1990.000,7175.000,271.000,44.000,-247.000,0.000,0.000,0
2026-01-31 00:12:49,1280374,2525.000,1589.000,7583.000,146.000,-139.000,-196.000,0.000,0.000,0
2026-01-31 00:12:49,1280414,2565.000,1968.000,7760.000,319.000,58.000,-251.000,0.000,0.000,0
2026-01-31 00:12:49,1280454,2679.000,2068.000,7814.000,289.000,-60.000,-174.000,0.000,0.000,0
2026-01-31 00:12:49,1280494,2887.000,2300.000,8030.000,282.000,22.000,-96.000,0.000,0.000,0
2026-01-31 00:12:49,1280534,2679.000,2222.000,7770.000,-248.000,74.000,44.000,0.000,0.000,0
2026-01-31 00:12:49,1280574,2631.000,1455.000,7611.000,-839.000,-37.000,112.000,0.000,0.000,0
2026-01-31 00:12:49,1280614,2626.000,1067.000,7807.000,-632.000,-73.000,115.000,0.000,0.000,0
2026-01-31 00:12:49,1280654,2619.000,1182.000,7969.000,-196.000,42.000,71.000,0.000,0.000,0
2026-01-31 00:12:49,1280694,2502.000,1636.000,8390.000,59.000,173.000,112.000,0.000,0.000,0
2026-01-31 00:12:49,1280734,2387.000,1558.000,8332.000,-317.000,238.000,189.000,0.000,0.000,0
2026-01-31 00:12:49,1280774,2196.000,1294.000,7924.000,-567.000,113.000,201.000,0.000,0.000,0
2026-01-31 00:12:50,1280814,2313.000,1203.000,7858.000,-276.000,-136.000,113.000,10.669,0.000,1
2026-01-31 00:12:50,1280854,2605.000,1534.000,8022.000,185.000,-180.000,-30.000,10.669,0.000,1
2026-01-31 00:12:50,1280894,2688.000,1888.000,8149.000,353.000,-42.000,-77.000,10.669,0.000,1
2026-01-31 00:12:50,1280934,2529.000,2074.000,7879.000,54.000,113.000,-65.000,0.000,0.000,0
2026-01-31 00:12:50,1280974,2390.000,1625.000,7684.000,-278.000,31.000,-30.000,0.000,0.000,0
2026-01-31 00:12:50,1281014,2441.000,1440.000,7560.000,-98.000,-125.000,-60.000,0.000,0.000,0
2026-01-31 00:12:50,1281054,2613.000,1644.000,7667.000,271.000,-257.000,-185.000,0.000,0.000,0
2026-01-31 00:12:50,1281094,2837.000,2026.000,7678.000,187.000,-55.000,-192.000,0.000,0.000,0
2026-01-31 00:12:50,1281134,2747.000,1606.000,7437.000,-315.000,-93.000,-18.000,0.000,0.000,0
2026-01-31 00:12:50,1281174,2769.000,1144.000,7543.000,-486.000,-73.000,18.000,0.000,0.000,0
2026-01-31 00:12:50,1281214,2635.000,902.000,7752.000,-254.000,-15.000,95.000,0.000,0.000,0
2026-01-31 00:12:50,1281254,2807.000,1227.000,8205.000,228.000,88.000,103.000,0.000,0.000,0
2026-01-31 00:12:50,1281294,2456.000,1533.000,8012.000,-61.000,260.000,284.000,0.000,0.000,0
2026-01-31 00:12:50,1281334,2241.000,1268.000,7754.000,-508.000,76.000,267.000,0.000,0.000,0
2026-01-31 00:12:50,1281374,2535.000,1117.000,7793.000,-133.000,-22.000,-10.000,0.000,0.000,0
2026-01-31 00:12:50,1281414,2660.000,1680.000,7669.000,361.000,60.000,-83.000,0.000,0.000,0
2026-01-31 00:12:50,1281454,2592.000,1830.000,7375.000,402.000,43.000,-74.000,0.000,0.000,0
2026-01-31 00:12:50,1281494,2266.000,1543.000,7420.000,206.000,25.000,-21.000,0.000,0.000,0
2026-01-31 00:12:50,1281534,2632.000,1685.000,8413.000,881.000,73.000,-46.000,0.000,0.000,0
2026-01-31 00:12:50,1281574,2666.000,2539.000,8559.000,1224.000,458.000,-25.000,0.000,0.000,0
2026-01-31 00:12:50,1281614,2033.000,2784.000,7706.000,313.000,250.000,28.000,0.000,0.000,0
2026-01-31 00:12:50,1281654,2501.000,2183.000,7818.000,-507.000,-422.000,-170.000,0.000,0.000,0
2026-01-31 00:12:50,1281694,2998.000,1364.000,7843.000,-644.000,-361.000,-226.000,0.000,0.000,0
2026-01-31 00:12:50,1281734,2729.000,1266.000,7491.000,-399.000,-171.000,-53.000,0.000,0.000,0
2026-01-31 00:12:50,1281774,2616.000,1180.000,7779.000,-289.000,-289.000,31.000,0.000,0.000,0
2026-01-31 00:12:51,1281814,2894.000,1166.000,8387.000,31.000,-160.000,-11.000,11.054,0.000,1
2026-01-31 00:12:51,1281854,2563.000,1617.000,7893.000,93.000,301.000,107.000,11.054,0.000,1
2026-01-31 00:12:51,1281894,2054.000,1330.000,7243.000,-299.000,-11.000,182.000,11.054,0.000,1
2026-01-31 00:12:51,1281934,2130.000,779.000,7398.000,-140.000,-452.000,160.000,0.000,0.000,0
2026-01-31 00:12:51,1281974,2681.000,1030.000,7962.000,1260.000,-360.000,3.000,0.000,0.000,0
2026-01-31 00:12:51,1282014,2867.000,2514.000,7963.000,2304.000,98.000,45.000,0.000,0.000,0
2026-01-31 00:12:51,1282054,2487.000,2964.000,7591.000,1238.000,195.000,128.000,0.000,0.000,0
2026-01-31 00:12:51,1282096,2238.000,2607.000,7552.000,351.000,12.000,40.000,0.000,0.000,0
2026-01-31 00:12:51,1282135,2328.000,2337.000,7369.000,39.000,-2.000,-22.000,0.000,0.000,0
2026-01-31 00:12:51,1282175,2415.000,2268.000,7666.000,251.000,-41.000,-58.000,0.000,0.000,0
2026-01-31 00:12:51,1282214,2629.000,2644.000,8088.000,363.000,17.000,-80.000,0.000,0.000,0
2026-01-31 00:12:51,1282254,2424.000,2536.000,7583.000,-239.000,8.000,-136.000,0.000,0.000,0
2026-01-31 00:12:51,1282294,2520.000,1840.000,7341.000,-582.000,-338.000,-169.000,0.000,0.000,0
2026-01-31 00:12:51,1282337,2809.000,1908.000,7323.000,-331.000,-492.000,-114.000,0.000,0.000,0
2026-01-31 00:12:51,1282375,2756.000,1699.000,7613.000,-379.000,-264.000,-35.000,0.000,0.000,0
2026-01-31 00:12:51,1282414,2754.000,1573.000,7759.000,-302.000,-81.000,-20.000,0.000,0.000,0
2026-01-31 00:12:51,1282454,2754.000,1764.000,7894.000,-280.000,33.000,94.000,0.000,0.000,0
2026-01-31 00:12:51,1282494,2868.000,1584.000,8330.000,-218.000,8.000,183.000,0.000,0.000,0
2026-01-31 00:12:51,1282534,3104.000,2158.000,8414.000,292.000,256.000,109.000,0.000,0.000,0
2026-01-31 00:12:51,1282574,2587.000,2431.000,7296.000,-217.000,178.000,129.000,0.000,0.000,0
2026-01-31 00:12:51,1282614,3152.000,1582.000,8372.000,97.000,-171.000,-139.000,0.000,0.000,0
2026-01-31 00:12:51,1282654,2828.000,2474.000,7647.000,432.000,244.000,-32.000,0.000,0.000,0
2026-01-31 00:12:51,1282694,2428.000,2210.000,7353.000,-24.000,-19.000,-14.000,0.000,0.000,0
2026-01-31 00:12:51,1282734,2565.000,2142.000,7554.000,354.000,-54.000,-96.000,0.000,0.000,0
2026-01-31 00:12:51,1282774,2585.000,2694.000,7593.000,493.000,73.000,-62.000,0.000,0.000,0
2026-01-31 00:12:52,1282814,2457.000,2490.000,7408.000,-68.000,219.000,-101.000,11.404,0.000,1
2026-01-31 00:12:52,1282854,2210.000,1699.000,7254.000,-437.000,11.000,-9.000,11.404,0.000,1
2026-01-31 00:12:52,1282894,2610.000,1859.000,7511.000,-2.000,-221.000,-76.000,11.404,0.000,1
2026-01-31 00:12:52,1282934,2793.000,1994.000,7492.000,42.000,-63.000,-112.000,0.000,0.000,0
2026-01-31 00:12:52,1282974,2757.000,1912.000,7318.000,53.000,-94.000,-60.000,0.000,0.000,0
2026-01-31 00:12:52,1283014,2569.000,1960.000,7012.000,-154.000,-215.000,44.000,0.000,0.000,0
2026-01-31 00:12:52,1283054,2978.000,1928.000,7392.000,175.000,-234.000,-63.000,0.000,0.000,0
2026-01-31 00:12:52,1283094,3135.000,2418.000,7703.000,407.000,101.000,-57.000,0.000,0.000,0
2026-01-31 00:12:52,1283134,2952.000,2302.000,7503.000,178.000,200.000,2.000,0.000,0.000,0
2026-01-31 00:12:52,1283174,2946.000,2178.000,7493.000,-35.000,-4.000,52.000,0.000,0.000,0
2026-01-31 00:12:52,1283214,2833.000,2220.000,7474.000,155.000,-7.000,19.000,0.000,0.000,0
2026-01-31 00:12:52,1283254,2981.000,2648.000,7849.000,385.000,69.000,-35.000,0.000,0.000,0
2026-01-31 00:12:52,1283294,2556.000,2565.000,7740.000,-27.000,262.000,27.000,0.000,0.000,0
2026-01-31 00:12:52,1283334,2458.000,2075.000,7630.000,-308.000,64.000,57.000,0.000,0.000,0
2026-01-31 00:12:52,1283374,2803.000,2113.000,7433.000,-142.000,-37.000,-59.000,0.000,0.000,0
2026-01-31 00:12:52,1283414,2852.000,2152.000,7625.000,76.000,-8.000,0.000,0.000,0.000,0
2026-01-31 00:12:52,1283454,2680.000,2256.000,7560.000,-115.000,134.000,80.000,0.000,0.000,0
2026-01-31 00:12:52,1283494,2373.000,1957.000,7345.000,-392.000,62.000,146.000,0.000,0.000,0
2026-01-31 00:12:52,1283534,2511.000,1847.000,7758.000,-206.000,-27.000,87.000,0.000,0.000,0
2026-01-31 00:12:52,1283574,2670.000,2207.000,8026.000,278.000,122.000,63.000,0.000,0.000,0
2026-01-31 00:12:52,1283614,2701.000,2708.000,7911.000,286.000,126.000,29.000,0.000,0.000,0
2026-01-31 00:12:52,1283654,2765.000,2524.000,7743.000,-209.000,-54.000,-14.000,0.000,0.000,0
2026-01-31 00:12:52,1283694,2985.000,2018.000,7527.000,-408.000,-291.000,-136.000,0.000,0.000,0
2026-01-31 00:12:52,1283734,3067.000,2065.000,7195.000,-338.000,-270.000,-208.000,0.000,0.000,0
2026-01-31 00:12:52,1283774,3361.000,2149.000,7656.000,191.000,-208.000,-266.000,0.000,0.000,0
2026-01-31 00:12:53,1283814,3126.000,2584.000,7437.000,213.000,207.000,-164.000,11.795,0.000,1
2026-01-31 00:12:53,1283854,2774.000,2094.000,7653.000,-246.000,162.000,139.000,11.795,0.000,1
2026-01-31 00:12:53,1283894,2959.000,1595.000,8252.000,38.000,181.000,205.000,11.795,0.000,1
2026-01-31 00:12:53,1283934,2567.000,2618.000,7761.000,543.000,455.000,202.000,0.000,0.000,0
2026-01-31 00:12:53,1283974,2723.000,2506.000,8250.000,77.000,25.000,77.000,0.000,0.000,0
2026-01-31 00:12:53,1284014,3089.000,1940.000,8259.000,-445.000,187.000,67.000,0.000,0.000,0
2026-01-31 00:12:53,1284054,2291.000,1934.000,6722.000,-578.000,134.000,152.000,0.000,0.000,0
2026-01-31 00:12:53,1284094,2177.000,1624.000,6486.000,-935.000,-408.000,-90.000,0.000,0.000,0
2026-01-31 00:12:53,1284134,2671.000,1296.000,7825.000,-402.000,-111.000,183.000,0.000,0.000,0
2026-01-31 00:12:53,1284174,2255.000,2986.000,8103.000,1112.000,744.000,350.000,0.000,0.000,0
2026-01-31 00:12:53,1284214,1483.000,2738.000,7840.000,-187.000,908.000,363.000,0.000,0.000,0
2026-01-31 00:12:53,1284254,2076.000,2280.000,8393.000,-5.000,131.000,-8.000,0.000,0.000,0
2026-01-31 00:12:53,1284294,2710.000,2716.000,7667.000,-63.000,-84.000,-152.000,0.000,0.000,0
2026-01-31 00:12:53,1284335,2274.000,1906.000,6736.000,-1136.000,-568.000,-248.000,0.000,0.000,0
2026-01-31 00:12:53,1284374,2898.000,1170.000,7024.000,-462.000,-1136.000,-388.000,0.000,0.000,0
2026-01-31 00:12:53,1284414,3227.000,1855.000,7512.000,619.000,-509.000,-332.000,0.000,0.000,0
2026-01-31 00:12:53,1284454,3210.000,2507.000,7625.000,835.000,55.000,-257.000,0.000,0.000,0
2026-01-31 00:12:53,1284494,2818.000,1861.000,7550.000,-205.000,259.000,-51.000,0.000,0.000,0
2026-01-31 00:12:53,1284534,3015.000,1695.000,7941.000,324.000,-276.000,89.000,0.000,0.000,0
2026-01-31 00:12:53,1284574,3043.000,2345.000,7321.000,188.000,-213.000,-37.000,0.000,0.000,0
2026-01-31 00:12:53,1284614,2880.000,1604.000,7024.000,-385.000,-503.000,-81.000,0.000,0.000,0
2026-01-31 00:12:53,1284654,3023.000,1910.000,7291.000,142.000,-362.000,-167.000,0.000,0.000,0
2026-01-31 00:12:53,1284694,2559.000,2108.000,6664.000,-300.000,122.000,-44.000,0.000,0.000,0
2026-01-31 00:12:53,1284734,2790.000,1423.000,7396.000,-195.000,143.000,-53.000,0.000,0.000,0
2026-01-31 00:12:53,1284774,3467.000,1892.000,9042.000,1062.000,721.000,-58.000,0.000,0.000,0
2026-01-31 00:12:54,1284814,3189.000,3399.000,8550.000,1235.000,1395.000,72.000,12.227,0.000,1
2026-01-31 00:12:54,1284854,2332.000,2683.000,7739.000,-240.000,814.000,529.000,12.227,0.000,1
2026-01-31 00:12:54,1284894,2683.000,2238.000,8877.000,-153.000,-97.000,273.000,12.227,0.000,1
2026-01-31 00:12:54,1284934,2589.000,3321.000,8789.000,651.000,434.000,70.000,0.000,0.000,0
2026-01-31 00:12:54,1284974,2076.000,2710.000,8254.000,-4.000,73.000,-19.000,0.000,0.000,0
2026-01-31 00:12:54,1285014,2247.000,2648.000,7352.000,-217.000,-348.000,-122.000,0.000,0.000,0
2026-01-31 00:12:54,1285054,2377.000,1949.000,6847.000,-819.000,-627.000,-144.000,0.000,0.000,0
2026-01-31 00:12:54,1285094,2906.000,1451.000,7492.000,-88.000,-603.000,-241.000,0.000,0.000,0
2026-01-31 00:12:54,1285134,2858.000,2219.000,7293.000,535.000,-54.000,-256.000,0.000,0.000,0
2026-01-31 00:12:54,1285174,2266.000,2312.000,6723.000,115.000,-55.000,-163.000,0.000,0.000,0
2026-01-31 00:12:54,1285214,2575.000,1920.000,6860.000,-279.000,-333.000,-129.000,0.000,0.000,0
2026-01-31 00:12:54,1285254,2360.000,1981.000,6223.000,-505.000,-79.000,-167.000,0.000,0.000,0
2026-01-31 00:12:54,1285294,2197.000,1444.000,6317.000,-651.000,-272.000,-143.000,0.000,0.000,0
2026-01-31 00:12:54,1285334,2644.000,1480.000,7507.000,120.000,15.000,-66.000,0.000,0.000,0
2026-01-31 00:12:54,1285374,2447.000,2111.000,7860.000,557.000,831.000,160.000,0.000,0.000,0
2026-01-31 00:12:54,1285414,2290.000,2053.000,8445.000,457.000,1023.000,294.000,0.000,0.000,0
2026-01-31 00:12:54,1285454,2123.000,2581.000,8903.000,668.000,878.000,376.000,0.000,0.000,0
2026-01-31 00:12:54,1285494,2003.000,3299.000,8516.000,309.000,526.000,342.000,0.000,0.000,0
2026-01-31 00:12:54,1285534,2103.000,2734.000,8238.000,-372.000,-41.000,79.000,0.000,0.000,0
2026-01-31 00:12:54,1285574,2424.000,2100.000,8393.000,-309.000,-358.000,-115.000,0.000,0.000,0
2026-01-31 00:12:54,1285614,2406.000,2501.000,8464.000,166.000,-377.000,-151.000,0.000,0.000,0
2026-01-31 00:12:54,1285654,2557.000,2566.000,8198.000,4.000,-409.000,-332.000,0.000,0.000,0
2026-01-31 00:12:54,1285694,2684.000,2508.000,7785.000,-194.000,-531.000,-341.000,0.000,0.000,0
2026-01-31 00:12:54,1285734,2992.000,2280.000,7293.000,-518.000,-518.000,-386.000,0.000,0.000,0
2026-01-31 00:12:54,1285774,3042.000,1824.000,7046.000,-620.000,-419.000,-311.000,0.000,0.000,0
2026-01-31 00:12:55,1285814,3074.000,1479.000,6982.000,-312.000,-429.000,-106.000,13.446,0.000,1
2026-01-31 00:12:55,1285854,2902.000,1618.000,7175.000,48.000,-108.000,-81.000,13.446,0.000,1
2026-01-31 00:12:55,1285894,2678.000,1695.000,7440.000,282.000,147.000,46.000,13.446,0.000,1
2026-01-31 00:12:55,1285934,2312.000,1969.000,7327.000,33.000,257.000,172.000,0.000,0.000,0
2026-01-31 00:12:55,1285974,2196.000,1714.000,7363.000,-331.000,68.000,241.000,0.000,0.000,0
2026-01-31 00:12:55,1286014,2429.000,1605.000,7557.000,-22.000,49.000,205.000,0.000,0.000,0
2026-01-31 00:12:55,1286056,2256.000,2517.000,7257.000,285.000,247.000,170.000,0.000,0.000,0
2026-01-31 00:12:55,1286096,2149.000,2327.000,7205.000,-59.000,136.000,113.000,0.000,0.000,0
2026-01-31 00:12:55,1286134,2378.000,1940.000,7805.000,118.000,37.000,42.000,0.000,0.000,0
2026-01-31 00:12:55,1286174,2651.000,2388.000,8339.000,471.000,150.000,-50.000,0.000,0.000,0
2026-01-31 00:12:55,1286214,2617.000,2681.000,7972.000,255.000,128.000,-137.000,0.000,0.000,0
2026-01-31 00:12:55,1286254,2486.000,2576.000,7401.000,-292.000,-235.000,-229.000,0.000,0.000,0
2026-01-31 00:12:55,1286294,3071.000,2079.000,7527.000,-414.000,-560.000,-316.000,0.000,0.000,0
2026-01-31 00:12:55,1286339,3518.000,2215.000,7946.000,85.000,-311.000,-308.000,0.000,0.000,0
2026-01-31 00:12:55,1286374,3394.000,2388.000,7784.000,-10.000,-6.000,-145.000,0.000,0.000,0
2026-01-31 00:12:55,1286414,3080.000,1876.000,7916.000,-230.000,-33.000,143.000,0.000,0.000,0
2026-01-31 00:12:55,1286454,2737.000,2493.000,7849.000,116.000,275.000,231.000,0.000,0.000,0
2026-01-31 00:12:55,1286494,2370.000,2115.000,7753.000,-309.000,280.000,311.000,0.000,0.000,0
2026-01-31 00:12:55,1286534,2433.000,1791.000,8007.000,-244.000,174.000,279.000,0.000,0.000,0
2026-01-31 00:12:55,1286574,2616.000,2329.000,8009.000,123.000,294.000,127.000,0.000,0.000,0
2026-01-31 00:12:55,1286614,2553.000,2121.000,7578.000,-192.000,122.000,61.000,0.000,0.000,0
2026-01-31 00:12:55,1286654,2602.000,2052.000,7406.000,-123.000,-202.000,21.000,0.000,0.000,0
2026-01-31 00:12:55,1286694,2480.000,2078.000,7046.000,-109.000,-236.000,44.000,0.000,0.000,0
2026-01-31 00:12:55,1286734,2483.000,1680.000,7365.000,-79.000,-303.000,-10.000,0.000,0.000,0
2026-01-31 00:12:55,1286774,2963.000,2133.000,7969.000,530.000,-96.000,-178.000,0.000,0.000,0
2026-01-31 00:12:56,1286814,2636.000,2477.000,6808.000,14.000,-270.000,-137.000,0.000,0.000,1
2026-01-31 00:12:56,1286854,2893.000,1978.000,6746.000,-301.000,-618.000,-178.000,0.000,0.000,1
2026-01-31 00:12:56,1286894,3216.000,2193.000,7035.000,153.000,-282.000,-203.000,0.000,0.000,1
2026-01-31 00:12:56,1286934,3182.000,2393.000,7081.000,62.000,82.000,-193.000,0.000,0.000,0
2026-01-31 00:12:56,1286974,3162.000,1874.000,7497.000,-210.000,237.000,-19.000,0.000,0.000,0
2026-01-31 00:12:56,1287014,3167.000,2055.000,7955.000,306.000,336.000,194.000,0.000,0.000,0
2026-01-31 00:12:56,1287054,2968.000,2567.000,8398.000,205.000,408.000,384.000,0.000,0.000,0
2026-01-31 00:12:56,1287094,3266.000,2061.000,9162.000,-93.000,280.000,292.000,0.000,0.000,0
2026-01-31 00:12:56,1287134,3183.000,2345.000,8295.000,-468.000,419.000,314.000,0.000,0.000,0
2026-01-31 00:12:56,1287174,2580.000,991.000,7469.000,-1110.000,-184.000,293.000,0.000,0.000,0
2026-01-31 00:12:56,1287214,2515.000,964.000,7579.000,-423.000,-401.000,137.000,0.000,0.000,0
2026-01-31 00:12:56,1287254,2372.000,1597.000,7718.000,453.000,-184.000,26.000,0.000,0.000,0
2026-01-31 00:12:56,1287294,2732.000,2329.000,7853.000,919.000,85.000,-75.000,0.000,0.000,0
2026-01-31 00:12:56,1287334,2457.000,2448.000,7522.000,470.000,291.000,0.000,0.000,0.000,0
2026-01-31 00:12:56,1287374,2458.000,2133.000,7177.000,-139.000,147.000,14.000,0.000,0.000,0
2026-01-31 00:12:56,1287414,2362.000,1689.000,6707.000,-283.000,-162.000,18.000,0.000,0.000,0
2026-01-31 00:12:56,1287454,2580.000,2251.000,6844.000,579.000,-313.000,-108.000,0.000,0.000,0
2026-01-31 00:12:56,1287494,2767.000,2380.000,7209.000,681.000,-5.000,-153.000,0.000,0.000,0
2026-01-31 00:12:56,1287534,2683.000,2774.000,7473.000,847.000,367.000,-250.000,0.000,0.000,0
2026-01-31 00:12:56,1287574,2053.000,1828.000,7273.000,-440.000,222.000,-103.000,0.000,0.000,0
2026-01-31 00:12:56,1287614,2984.000,2242.000,8380.000,585.000,-161.000,-259.000,0.000,0.000,0
2026-01-31 00:12:56,1287654,3379.000,3350.000,8646.000,929.000,416.000,-271.000,0.000,0.000,0
2026-01-31 00:12:56,1287694,2465.000,2840.000,7632.000,-634.000,406.000,-65.000,0.000,0.000,0
2026-01-31 00:12:56,1287734,2151.000,1556.000,7318.000,-1515.000,-163.000,163.000,0.000,0.000,0
2026-01-31 00:12:56,1287774,2866.000,683.000,8800.000,-422.000,-365.000,171.000,0.000,0.000,0
2026-01-31 00:12:57,1287814,3249.000,2577.000,9772.000,1532.000,611.000,184.000,14.815,0.000,1
2026-01-31 00:12:57,1287854,1972.000,3263.000,8530.000,82.000,1062.000,424.000,14.815,0.000,1
2026-01-31 00:12:57,1287894,1289.000,1983.000,7484.000,-1548.000,31.000,383.000,14.815,0.000,1
2026-01-31 00:12:57,1287934,1743.000,701.000,7807.000,-1460.000,-640.000,230.000,0.000,0.000,0
2026-01-31 00:12:57,1287974,2843.000,1799.000,8070.000,1087.000,-280.000,-109.000,0.000,0.000,0
2026-01-31 00:12:57,1288014,2193.000,2886.000,7540.000,1069.000,181.000,-144.000,0.000,0.000,0
2026-01-31 00:12:57,1288054,2007.000,2301.000,7256.000,7.000,-315.000,-68.000,0.000,0.000,0
2026-01-31 00:12:57,1288096,2548.000,2103.000,7335.000,-142.000,-578.000,-191.000,0.000,0.000,0
2026-01-31 00:12:57,1288135,2763.000,1871.000,6925.000,-310.000,-521.000,-338.000,0.000,0.000,0
2026-01-31 00:12:57,1288174,2706.000,1617.000,6720.000,-195.000,-580.000,-306.000,0.000,0.000,0
2026-01-31 00:12:57,1288214,2768.000,1831.000,6732.000,302.000,-545.000,-260.000,0.000,0.000,0
2026-01-31 00:12:57,1288254,2919.000,2257.000,7106.000,709.000,-305.000,-186.000,0.000,0.000,0
2026-01-31 00:12:57,1288294,2888.000,2667.000,7433.000,680.000,131.000,-132.000,0.000,0.000,0
2026-01-31 00:12:57,1288336,2594.000,2146.000,7372.000,-235.000,280.000,103.000,0.000,0.000,0
2026-01-31 00:12:57,1288374,2984.000,2005.000,7819.000,-201.000,98.000,46.000,0.000,0.000,0
2026-01-31 00:12:57,1288414,3018.000,1980.000,7925.000,-115.000,217.000,61.000,0.000,0.000,0
2026-01-31 00:12:57,1288454,2772.000,2234.000,8119.000,129.000,178.000,137.000,0.000,0.000,0
2026-01-31 00:12:57,1288494,2696.000,2529.000,8092.000,70.000,116.000,107.000,0.000,0.000,0
2026-01-31 00:12:57,1288534,2885.000,2595.000,8035.000,-9.000,45.000,1.000,0.000,0.000,0
2026-01-31 00:12:57,1288574,3001.000,2453.000,8005.000,-84.000,40.000,-82.000,0.000,0.000,0
2026-01-31 00:12:57,1288614,2965.000,2281.000,7762.000,-12.000,30.000,-94.000,0.000,0.000,0
2026-01-31 00:12:57,1288654,2898.000,2386.000,7739.000,80.000,14.000,-35.000,0.000,0.000,0
2026-01-31 00:12:57,1288694,2684.000,2242.000,7581.000,33.000,122.000,-32.000,0.000,0.000,0
2026-01-31 00:12:57,1288734,2700.000,2457.000,7491.000,211.000,43.000,4.000,0.000,0.000,0
2026-01-31 00:12:57,1288774,2576.000,2530.000,7682.000,233.000,23.000,21.000,0.000,0.000,0
2026-01-31 00:12:58,1288814,2610.000,2604.000,7549.000,42.000,90.000,12.000,14.892,0.000,1
2026-01-31 00:12:58,1288854,2251.000,2163.000,6994.000,-469.000,-43.000,69.000,14.892,0.000,1
2026-01-31 00:12:58,1288894,2345.000,1873.000,7023.000,-420.000,-346.000,22.000,14.892,0.000,1
2026-01-31 00:12:58,1288934,2647.000,1870.000,7061.000,-265.000,-215.000,-82.000,0.000,0.000,0
2026-01-31 00:12:58,1288974,2472.000,1710.000,6791.000,-159.000,-92.000,-6.000,0.000,0.000,0
2026-01-31 00:12:58,1289014,2609.000,1875.000,7383.000,180.000,-168.000,-16.000,0.000,0.000,0
2026-01-31 00:12:58,1289054,2788.000,2190.000,7627.000,277.000,109.000,6.000,0.000,0.000,0
2026-01-31 00:12:58,1289094,2599.000,2362.000,7076.000,-298.000,9.000,-34.000,0.000,0.000,0
2026-01-31 00:12:58,1289134,3280.000,1725.000,7587.000,-221.000,-151.000,-123.000,0.000,0.000,0
2026-01-31 00:12:58,1289174,3009.000,2187.000,7356.000,100.000,207.000,23.000,0.000,0.000,0
2026-01-31 00:12:58,1289214,2892.000,1853.000,7858.000,155.000,68.000,51.000,0.000,0.000,0
2026-01-31 00:12:58,1289254,3197.000,2780.000,8886.000,1154.000,331.000,-17.000,0.000,0.000,0
2026-01-31 00:12:58,1289294,2997.000,3568.000,8359.000,800.000,678.000,90.000,0.000,0.000,0
2026-01-31 00:12:58,1289334,2411.000,2793.000,7666.000,-344.000,167.000,50.000,0.000,0.000,0
2026-01-31 00:12:58,1289374,2758.000,2080.000,7771.000,-486.000,-277.000,-96.000,0.000,0.000,0
2026-01-31 00:12:58,1289414,2999.000,2057.000,7953.000,41.000,-255.000,-117.000,0.000,0.000,0
2026-01-31 00:12:58,1289454,3046.000,2549.000,7721.000,235.000,84.000,-64.000,0.000,0.000,0
2026-01-31 00:12:58,1289494,2284.000,2304.000,7553.000,-212.000,55.000,141.000,0.000,0.000,0
2026-01-31 00:12:58,1289534,2347.000,2238.000,7298.000,-464.000,-61.000,154.000,0.000,0.000,0
2026-01-31 00:12:58,1289574,2548.000,1636.000,7494.000,-747.000,-164.000,142.000,0.000,0.000,0
2026-01-31 00:12:58,1289614,2642.000,1472.000,7381.000,-427.000,3.000,97.000,0.000,0.000,0
2026-01-31 00:12:58,1289654,2283.000,1512.000,7068.000,-353.000,-25.000,123.000,0.000,0.000,0
2026-01-31 00:12:58,1289694,2369.000,1388.000,7189.000,-479.000,-195.000,136.000,0.000,0.000,0
2026-01-31 00:12:58,1289734,2587.000,1220.000,7540.000,-142.000,-26.000,48.000,0.000,0.000,0
2026-01-31 00:12:58,1289774,2545.000,1768.000,7507.000,477.000,98.000,65.000,0.000,0.000,0
2026-01-31 00:12:59,1289814,2665.000,2427.000,7744.000,667.000,108.000,-14.000,15.514,0.000,1
2026-01-31 00:12:59,1289854,2732.000,2147.000,7625.000,-41.000,89.000,1.000,15.514,0.000,1
2026-01-31 00:12:59,1289894,2871.000,1755.000,7667.000,-144.000,-98.000,-63.000,15.514,0.000,1
2026-01-31 00:12:59,1289934,3052.000,2002.000,7733.000,323.000,-97.000,-85.000,0.000,0.000,0
2026-01-31 00:12:59,1289974,2978.000,2534.000,7626.000,488.000,-92.000,-42.000,0.000,0.000,0
2026-01-31 00:12:59,1290014,2895.000,2527.000,7845.000,226.000,-27.000,-86.000,0.000,0.000,0
2026-01-31 00:12:59,1290054,2896.000,2265.000,7874.000,-75.000,119.000,-29.000,0.000,0.000,0
2026-01-31 00:12:59,1290096,2918.000,2055.000,7789.000,-250.000,126.000,37.000,0.000,0.000,0
2026-01-31 00:12:59,1290136,2950.000,1639.000,7675.000,-516.000,39.000,48.000,0.000,0.000,0
2026-01-31 00:12:59,1290174,2823.000,1306.000,7657.000,-202.000,-84.000,110.000,0.000,0.000,0
2026-01-31 00:12:59,1290214,2718.000,2023.000,8031.000,441.000,45.000,131.000,0.000,0.000,0
2026-01-31 00:12:59,1290254,2238.000,1972.000,7933.000,-385.000,332.000,241.000,0.000,0.000,0
2026-01-31 00:12:59,1290294,2197.000,1550.000,7517.000,-785.000,253.000,176.000,0.000,0.000,0
2026-01-31 00:12:59,1290334,2124.000,635.000,7791.000,-1126.000,94.000,230.000,0.000,0.000,0
2026-01-31 00:12:59,1290374,2751.000,697.000,8402.000,-142.000,-55.000,170.000,0.000,0.000,0
2026-01-31 00:12:59,1290414,2240.000,1644.000,7995.000,299.000,352.000,303.000,0.000,0.000,0
2026-01-31 00:12:59,1290454,1956.000,1470.000,8309.000,25.000,52.000,224.000,0.000,0.000,0
2026-01-31 00:12:59,1290494,2385.000,1928.000,7975.000,392.000,10.000,47.000,0.000,0.000,0
2026-01-31 00:12:59,1290534,2092.000,2059.000,7191.000,-82.000,-74.000,7.000,0.000,0.000,0
2026-01-31 00:12:59,1290574,2601.000,1317.000,7381.000,-264.000,-635.000,-208.000,0.000,0.000,0
2026-01-31 00:12:59,1290614,3048.000,1853.000,7669.000,591.000,-194.000,-178.000,0.000,0.000,0
2026-01-31 00:12:59,1290654,3118.000,2120.000,7743.000,690.000,-78.000,-163.000,0.000,0.000,0
2026-01-31 00:12:59,1290694,2974.000,2383.000,7668.000,461.000,78.000,-117.000,0.000,0.000,0
2026-01-31 00:12:59,1290734,2837.000,2132.000,7417.000,95.000,-26.000,-70.000,0.000,0.000,0
2026-01-31 00:12:59,1290774,3024.000,1940.000,7728.000,20.000,-151.000,-79.000,0.000,0.000,0
2026-01-31 00:13:00,1290814,3076.000,1924.000,7925.000,55.000,-26.000,48.000,15.422,0.000,1
2026-01-31 00:13:00,1290854,2688.000,1856.000,7776.000,-237.000,137.000,176.000,15.422,0.000,1
2026-01-31 00:13:00,1290894,2589.000,1421.000,7866.000,-640.000,-44.000,272.000,15.422,0.000,1
2026-01-31 00:13:00,1290934,2723.000,1361.000,7994.000,-338.000,27.000,252.000,0.000,0.000,0
2026-01-31 00:13:00,1290974,2386.000,1560.000,7682.000,-173.000,191.000,330.000,0.000,0.000,0
2026-01-31 00:13:00,1291014,2247.000,1156.000,7954.000,-483.000,94.000,180.000,0.000,0.000,0
2026-01-31 00:13:00,1291054,2430.000,967.000,8170.000,-393.000,144.000,219.000,0.000,0.000,0
2026-01-31 00:13:00,1291094,2454.000,1048.000,7924.000,-77.000,75.000,173.000,0.000,0.000,0
2026-01-31 00:13:00,1291134,2210.000,1164.000,7566.000,-213.000,-98.000,154.000,0.000,0.000,0
2026-01-31 00:13:00,1291174,2569.000,1120.000,7552.000,-48.000,-381.000,-18.000,0.000,0.000,0
2026-01-31 00:13:00,1291214,2857.000,1946.000,7275.000,317.000,-280.000,-185.000,0.000,0.000,0
2026-01-31 00:13:00,1291254,3275.000,1677.000,7438.000,79.000,-265.000,-315.000,0.000,0.000,0
2026-01-31 00:13:00,1291294,3564.000,1284.000,7481.000,209.000,21.000,-175.000,0.000,0.000,0
2026-01-31 00:13:00,1291334,2820.000,1404.000,7357.000,308.000,143.000,17.000,0.000,0.000,0
2026-01-31 00:13:00,1291374,3811.000,2270.000,9280.000,1119.000,199.000,-59.000,0.000,0.000,0
2026-01-31 00:13:00,1291414,3116.000,3263.000,7863.000,797.000,720.000,210.000,0.000,0.000,0
2026-01-31 00:13:00,1291454,2576.000,1918.000,6851.000,-846.000,-147.000,128.000,0.000,0.000,0
2026-01-31 00:13:00,1291494,3052.000,1067.000,7493.000,-531.000,-541.000,-25.000,0.000,0.000,0
2026-01-31 00:13:00,1291534,2961.000,1886.000,7615.000,400.000,89.000,-42.000,0.000,0.000,0
2026-01-31 00:13:00,1291574,2818.000,1577.000,7751.000,55.000,286.000,54.000,0.000,0.000,0
2026-01-31 00:13:00,1291614,2461.000,1441.000,7762.000,-30.000,366.000,222.000,0.000,0.000,0
2026-01-31 00:13:00,1291654,2218.000,1838.000,7812.000,114.000,225.000,298.000,0.000,0.000,0
2026-01-31 00:13:00,1291694,2456.000,1792.000,7864.000,-372.000,138.000,204.000,0.000,0.000,0
2026-01-31 00:13:00,1291734,2347.000,1307.000,7542.000,-587.000,98.000,154.000,0.000,0.000,0
2026-01-31 00:13:00,1291774,2659.000,918.000,7776.000,19.000,-157.000,113.000,0.000,0.000,0
2026-01-31 00:13:01,1291814,2430.000,2092.000,7460.000,591.000,-23.000,72.000,0.000,0.000,0
2026-01-31 00:13:01,1291854,2559.000,2190.000,7335.000,10.000,-149.000,-43.000,0.000,0.000,0
2026-01-31 00:13:01,1291894,3001.000,1470.000,7520.000,-226.000,-292.000,-121.000,0.000,0.000,0
2026-01-31 00:13:01,1291934,3286.000,1858.000,7488.000,179.000,-170.000,-105.000,0.000,0.000,0
2026-01-31 00:13:01,1291974,3385.000,1702.000,7623.000,78.000,-138.000,-115.000,0.000,0.000,0
2026-01-31 00:13:01,1292014,3519.000,1721.000,8018.000,419.000,-79.000,-13.000,0.000,0.000,0
2026-01-31 00:13:01,1292054,3003.000,2431.000,7724.000,632.000,148.000,39.000,0.000,0.000,0
2026-01-31 00:13:01,1292096,3208.000,2365.000,7925.000,133.000,-59.000,1.000,0.000,0.000,0
2026-01-31 00:13:01,1292135,3007.000,1963.000,7652.000,-125.000,216.000,78.000,0.000,0.000,0
2026-01-31 00:13:01,1292174,2783.000,1667.000,7830.000,-214.000,52.000,169.000,0.000,0.000,0
2026-01-31 00:13:01,1292214,2878.000,1816.000,8107.000,-13.000,118.000,234.000,0.000,0.000,0
2026-01-31 00:13:01,1292254,2677.000,1785.000,8197.000,-146.000,205.000,272.000,0.000,0.000,0
2026-01-31 00:13:01,1292294,2625.000,1695.000,8317.000,-166.000,195.000,184.000,0.000,0.000,0
2026-01-31 00:13:01,1292336,2534.000,1716.000,7729.000,-243.000,140.000,164.000,0.000,0.000,0
2026-01-31 00:13:01,1292374,2351.000,1582.000,7060.000,-503.000,-264.000,87.000,0.000,0.000,0
2026-01-31 00:13:01,1292414,2694.000,1388.000,7243.000,-220.000,-561.000,-86.000,0.000,0.000,0
2026-01-31 00:13:01,1292454,2989.000,1901.000,7404.000,425.000,-321.000,-165.000,0.000,0.000,0
2026-01-31 00:13:01,1292494,2789.000,2199.000,7254.000,435.000,8.000,-120.000,0.000,0.000,0
2026-01-31 00:13:01,1292534,2806.000,1977.000,7264.000,4.000,-59.000,-44.000,0.000,0.000,0
2026-01-31 00:13:01,1292574,2832.000,1775.000,7000.000,-107.000,-95.000,-53.000,0.000,0.000,0
2026-01-31 00:13:01,1292614,3024.000,2066.000,7384.000,455.000,-161.000,-48.000,0.000,0.000,0
2026-01-31 00:13:01,1292654,3298.000,2449.000,7921.000,808.000,73.000,-100.000,0.000,0.000,0
2026-01-31 00:13:01,1292694,3183.000,2712.000,8070.000,422.000,373.000,-30.000,0.000,0.000,0
2026-01-31 00:13:01,1292734,2864.000,2108.000,7615.000,-316.000,272.000,133.000,0.000,0.000,0
2026-01-31 00:13:01,1292774,2728.000,1842.000,7318.000,-362.000,-9.000,115.000,0.000,0.000,0
2026-01-31 00:13:02,1292814,3005.000,1855.000,7897.000,130.000,-139.000,4.000,0.000,0.000,0
2026-01-31 00:13:02,1292854,2680.000,2556.000,7855.000,388.000,357.000,19.000,0.000,0.000,0
2026-01-31 00:13:02,1292894,2471.000,1888.000,8014.000,-263.000,277.000,138.000,0.000,0.000,0
2026-01-31 00:13:02,1292934,2721.000,1789.000,8239.000,-316.000,282.000,119.000,0.000,0.000,0
2026-01-31 00:13:02,1292974,2686.000,1732.000,8339.000,-226.000,244.000,154.000,0.000,0.000,0
2026-01-31 00:13:02,1293014,2549.000,1950.000,8012.000,-193.000,226.000,168.000,0.000,0.000,0
2026-01-31 00:13:02,1293054,2247.000,1887.000,7727.000,-343.000,51.000,194.000,0.000,0.000,0
2026-01-31 00:13:02,1293094,2300.000,1686.000,7726.000,-158.000,-150.000,115.000,0.000,0.000,0
2026-01-31 00:13:02,1293134,2226.000,2010.000,7683.000,196.000,-46.000,49.000,0.000,0.000,0
2026-01-31 00:13:02,1293174,2245.000,2121.000,7419.000,152.000,-173.000,14.000,0.000,0.000,0
2026-01-31 00:13:02,1293214,2278.000,2171.000,7325.000,125.000,-294.000,-53.000,0.000,0.000,0
2026-01-31 00:13:02,1293254,2520.000,2187.000,6867.000,-2.000,-407.000,-220.000,0.000,0.000,0
2026-01-31 00:13:02,1293294,2659.000,1884.000,6562.000,-266.000,-477.000,-293.000,0.000,0.000,0
2026-01-31 00:13:02,1293334,3164.000,1872.000,6964.000,249.000,-521.000,-481.000,0.000,0.000,0
2026-01-31 00:13:02,1293374,3491.000,2556.000,7687.000,733.000,-28.000,-422.000,0.000,0.000,0
2026-01-31 00:13:02,1293414,3540.000,2733.000,8005.000,661.000,315.000,-74.000,0.000,0.000,0
2026-01-31 00:13:02,1293454,2676.000,2168.000,7757.000,-269.000,437.000,273.000,0.000,0.000,0
2026-01-31 00:13:02,1293494,3374.000,2191.000,8766.000,-74.000,5.000,163.000,0.000,0.000,0
2026-01-31 00:13:02,1293534,3829.000,2308.000,8590.000,-207.000,530.000,7.000,0.000,0.000,0
2026-01-31 00:13:02,1293574,2661.000,1805.000,7019.000,-605.000,425.000,231.000,0.000,0.000,0
2026-01-31 00:13:02,1293614,2490.000,1083.000,7459.000,-400.000,-394.000,300.000,0.000,0.000,0
2026-01-31 00:13:02,1293654,2820.000,2588.000,8961.000,1079.000,-18.000,164.000,0.000,0.000,0
2026-01-31 00:13:02,1293694,2258.000,3458.000,7379.000,380.000,669.000,94.000,0.000,0.000,0
2026-01-31 00:13:02,1293734,1837.000,2314.000,6559.000,-711.000,-78.000,106.000,0.000,0.000,0
2026-01-31 00:13:02,1293774,2184.000,1544.000,6903.000,-497.000,-592.000,16.000,0.000,0.000,0
2026-01-31 00:13:03,1293814,2645.000,2425.000,7109.000,620.000,-65.000,-161.000,0.000,0.000,0
2026-01-31 00:13:03,1293854,2560.000,2625.000,7240.000,703.000,128.000,-66.000,0.000,0.000,0
2026-01-31 00:13:03,1293894,2534.000,3128.000,7243.000,542.000,152.000,-216.000,0.000,0.000,0
2026-01-31 00:13:03,1293934,2677.000,2895.000,7331.000,-116.000,34.000,-219.000,0.000,0.000,0
2026-01-31 00:13:03,1293974,2932.000,2468.000,7172.000,-565.000,-249.000,-424.000,0.000,0.000,0
2026-01-31 00:13:03,1294014,3174.000,2145.000,6938.000,-650.000,-334.000,-353.000,0.000,0.000,0
2026-01-31 00:13:03,1294054,4219.000,2486.000,8434.000,904.000,-232.000,-260.000,0.000,0.000,0
2026-01-31 00:13:03,1294096,3156.000,3086.000,7466.000,410.000,598.000,45.000,0.000,0.000,0
2026-01-31 00:13:03,1294136,2513.000,2691.000,7070.000,-296.000,-110.000,351.000,0.000,0.000,0
2026-01-31 00:13:03,1294174,2864.000,2432.000,7988.000,223.000,-46.000,261.000,0.000,0.000,0
2026-01-31 00:13:03,1294214,2300.000,3271.000,7811.000,443.000,605.000,204.000,0.000,0.000,0
2026-01-31 00:13:03,1294254,2303.000,2890.000,7451.000,-184.000,379.000,111.000,0.000,0.000,0
2026-01-31 00:13:03,1294294,2313.000,2379.000,7042.000,-571.000,55.000,68.000,0.000,0.000,0
2026-01-31 00:13:03,1294334,2363.000,2301.000,7195.000,-171.000,-82.000,69.000,0.000,0.000,0
2026-01-31 00:13:03,1294374,2682.000,2809.000,7720.000,402.000,-119.000,3.000,0.000,0.000,0
2026-01-31 00:13:03,1294414,2308.000,2955.000,7682.000,258.000,243.000,3.000,0.000,0.000,0
2026-01-31 00:13:03,1294454,2519.000,2551.000,7525.000,-462.000,-15.000,-132.000,0.000,0.000,0
2026-01-31 00:13:03,1294494,2530.000,2376.000,7013.000,-596.000,-181.000,-208.000,0.000,0.000,0
2026-01-31 00:13:03,1294534,2629.000,2086.000,6886.000,-708.000,-341.000,-265.000,0.000,0.000,0
2026-01-31 00:13:03,1294574,2786.000,1615.000,7257.000,-342.000,-205.000,-168.000,0.000,0.000,0
2026-01-31 00:13:03,1294614,2861.000,2059.000,7973.000,695.000,65.000,72.000,0.000,0.000,0
2026-01-31 00:13:03,1294654,2655.000,3293.000,8629.000,1092.000,530.000,250.000,0.000,0.000,0
2026-01-31 00:13:03,1294694,2014.000,3164.000,7843.000,-268.000,646.000,181.000,0.000,0.000,0
2026-01-31 00:13:03,1294734,1896.000,2168.000,7071.000,-1145.000,-26.000,87.000,0.000,0.000,0
2026-01-31 00:13:03,1294774,2381.000,1580.000,7025.000,-1014.000,-547.000,-32.000,0.000,0.000,0
2026-01-31 00:13:04,1294814,2702.000,2104.000,7775.000,579.000,-150.000,-184.000,0.000,0.000,0
2026-01-31 00:13:04,1294854,2601.000,2688.000,8219.000,873.000,358.000,-116.000,0.000,0.000,0
2026-01-31 00:13:04,1294894,2189.000,2893.000,7945.000,225.000,502.000,73.000,0.000,0.000,0
2026-01-31 00:13:04,1294934,1952.000,2497.000,7698.000,-477.000,66.000,44.000,0.000,0.000,0
2026-01-31 00:13:04,1294974,2349.000,1977.000,7981.000,-565.000,-196.000,-68.000,0.000,0.000,0
2026-01-31 00:13:04,1295014,2574.000,1795.000,7898.000,-367.000,-129.000,-31.000,0.000,0.000,0
2026-01-31 00:13:04,1295054,2361.000,1852.000,8099.000,-23.000,-51.000,49.000,0.000,0.000,0
2026-01-31 00:13:04,1295094,2197.000,2285.000,8167.000,189.000,44.000,139.000,0.000,0.000,0
2026-01-31 00:13:04,1295134,2146.000,2466.000,8036.000,-18.000,66.000,28.000,0.000,0.000,0
2026-01-31 00:13:04,1295174,2268.000,2178.000,7635.000,-285.000,-98.000,-59.000,0.000,0.000,0
2026-01-31 00:13:04,1295214,2485.000,1782.000,7413.000,-517.000,-327.000,-111.000,0.000,0.000,0
2026-01-31 00:13:04,1295254,2672.000,1295.000,7773.000,-339.000,-283.000,-68.000,0.000,0.000,0
2026-01-31 00:13:04,1295294,2743.000,1676.000,8270.000,380.000,-59.000,-64.000,0.000,0.000,0
2026-01-31 00:13:04,1295334,2542.000,2451.000,8174.000,354.000,139.000,-34.000,0.000,0.000,0
2026-01-31 00:13:04,1295374,2262.000,1975.000,7541.000,-336.000,-4.000,-33.000,0.000,0.000,0
2026-01-31 00:13:04,1295414,2467.000,1571.000,7322.000,-461.000,-332.000,-74.000,0.000,0.000,0
2026-01-31 00:13:04,1295454,2596.000,1493.000,7322.000,-202.000,-168.000,-66.000,0.000,0.000,0
2026-01-31 00:13:04,1295494,2529.000,1586.000,7734.000,279.000,4.000,-63.000,0.000,0.000,0
2026-01-31 00:13:04,1295534,2409.000,2095.000,7940.000,468.000,293.000,3.000,0.000,0.000,0
2026-01-31 00:13:04,1295574,2057.000,2134.000,7747.000,101.000,233.000,120.000,0.000,0.000,0
2026-01-31 00:13:04,1295614,1997.000,2148.000,7324.000,-120.000,80.000,66.000,0.000,0.000,0
2026-01-31 00:13:04,1295654,1947.000,1658.000,7496.000,-153.000,-103.000,40.000,0.000,0.000,0
2026-01-31 00:13:04,1295694,2456.000,2047.000,8268.000,447.000,-204.000,-90.000,0.000,0.000,0
2026-01-31 00:13:04,1295734,2486.000,2662.000,7995.000,287.000,98.000,-77.000,0.000,0.000,0
2026-01-31 00:13:04,1295774,2109.000,2033.000,7654.000,-409.000,-81.000,-50.000,0.000,0.000,0
2026-01-31 00:13:05,1295814,2546.000,2086.000,7854.000,-246.000,-310.000,-77.000,0.000,0.000,0
2026-01-31 00:13:05,1295854,2627.000,1721.000,8035.000,-322.000,-183.000,-55.000,0.000,0.000,0
2026-01-31 00:13:05,1295894,3076.000,1907.000,8719.000,32.000,-139.000,-102.000,0.000,0.000,0
2026-01-31 00:13:05,1295934,2883.000,1927.000,7834.000,-241.000,101.000,-86.000,0.000,0.000,0
2026-01-31 00:13:05,1295974,2773.000,1390.000,7631.000,-248.000,-419.000,76.000,0.000,0.000,0
2026-01-31 00:13:05,1296014,2594.000,1945.000,7666.000,192.000,-172.000,2.000,0.000,0.000,0
2026-01-31 00:13:05,1296054,2531.000,1932.000,7652.000,-80.000,-92.000,-32.000,0.000,0.000,0
2026-01-31 00:13:05,1296096,2646.000,1429.000,7884.000,-73.000,30.000,-21.000,0.000,0.000,0
2026-01-31 00:13:05,1296135,2533.000,1903.000,7708.000,226.000,111.000,86.000,0.000,0.000,0
2026-01-31 00:13:05,1296175,2220.000,1937.000,7357.000,-61.000,122.000,77.000,0.000,0.000,0
2026-01-31 00:13:05,1296214,2180.000,1579.000,7220.000,-241.000,-104.000,16.000,0.000,0.000,0
2026-01-31 00:13:05,1296254,2503.000,1764.000,7261.000,49.000,-155.000,-62.000,0.000,0.000,0
2026-01-31 00:13:05,1296294,2508.000,1759.000,7254.000,61.000,13.000,-120.000,0.000,0.000,0
2026-01-31 00:13:05,1296337,2562.000,1708.000,7609.000,281.000,134.000,-42.000,0.000,0.000,0
2026-01-31 00:13:05,1296375,2357.000,2067.000,7657.000,258.000,212.000,-1.000,0.000,0.000,0
2026-01-31 00:13:05,1296414,2460.000,1943.000,7683.000,-48.000,62.000,-48.000,0.000,0.000,0
2026-01-31 00:13:05,1296454,2685.000,1727.000,7711.000,-46.000,-37.000,-39.000,0.000,0.000,0
2026-01-31 00:13:05,1296494,2789.000,1984.000,7784.000,120.000,-14.000,52.000,0.000,0.000,0
2026-01-31 00:13:05,1296534,2624.000,1992.000,7847.000,-63.000,27.000,58.000,0.000,0.000,0
2026-01-31 00:13:05,1296574,2762.000,1799.000,8124.000,-12.000,96.000,44.000,0.000,0.000,0
2026-01-31 00:13:05,1296614,2639.000,1957.000,8251.000,138.000,172.000,83.000,0.000,0.000,0
2026-01-31 00:13:05,1296654,2478.000,2088.000,8196.000,-73.000,64.000,91.000,0.000,0.000,0
2026-01-31 00:13:05,1296694,2593.000,1655.000,8044.000,-220.000,-81.000,30.000,0.000,0.000,0
2026-01-31 00:13:05,1296734,2863.000,1957.000,7931.000,59.000,-135.000,-42.000,0.000,0.000,0
2026-01-31 00:13:05,1296774,2808.000,1897.000,7712.000,-59.000,-106.000,-74.000,0.000,0.000,0
2026-01-31 00:13:06,1296814,2754.000,1680.000,7372.000,-183.000,-95.000,-79.000,0.000,0.000,0
2026-01-31 00:13:06,1296854,2853.000,1438.000,7569.000,32.000,-140.000,-25.000,0.000,0.000,0
2026-01-31 00:13:06,1296894,2894.000,2129.000,7759.000,529.000,34.000,-22.000,0.000,0.000,0
2026-01-31 00:13:06,1296934,2680.000,2317.000,7432.000,213.000,149.000,-8.000,0.000,0.000,0
2026-01-31 00:13:06,1296974,2679.000,1943.000,7336.000,-130.000,-27.000,-6.000,0.000,0.000,0
2026-01-31 00:13:06,1297014,2857.000,1781.000,7253.000,51.000,-92.000,-52.000,0.000,0.000,0
2026-01-31 00:13:06,1297054,2770.000,2072.000,7170.000,239.000,-35.000,-114.000,0.000,0.000,0
2026-01-31 00:13:06,1297094,2786.000,2188.000,7160.000,307.000,-74.000,-129.000,0.000,0.000,0
2026-01-31 00:13:06,1297134,2798.000,2513.000,7288.000,557.000,64.000,-143.000,0.000,0.000,0
2026-01-31 00:13:06,1297174,2921.000,2774.000,7346.000,314.000,88.000,-80.000,0.000,0.000,0
2026-01-31 00:13:06,1297214,2966.000,2495.000,7401.000,-37.000,59.000,-73.000,0.000,0.000,0
2026-01-31 00:13:06,1297254,3152.000,2334.000,7819.000,67.000,99.000,5.000,0.000,0.000,0
2026-01-31 00:13:06,1297294,3096.000,2614.000,7792.000,175.000,175.000,101.000,0.000,0.000,0
2026-01-31 00:13:06,1297334,2634.000,2316.000,7471.000,-256.000,90.000,168.000,0.000,0.000,0
2026-01-31 00:13:06,1297374,2937.000,2082.000,7859.000,-145.000,-152.000,88.000,0.000,0.000,0
2026-01-31 00:13:06,1297414,3101.000,2518.000,7871.000,120.000,38.000,-39.000,0.000,0.000,0
2026-01-31 00:13:06,1297454,2867.000,2437.000,7032.000,-318.000,21.000,-54.000,0.000,0.000,0
2026-01-31 00:13:06,1297494,2923.000,1982.000,7424.000,-4.000,-244.000,44.000,0.000,0.000,0
2026-01-31 00:13:06,1297534,3203.000,2538.000,8087.000,382.000,305.000,67.000,0.000,0.000,0
2026-01-31 00:13:06,1297574,2941.000,2178.000,8014.000,-80.000,475.000,190.000,0.000,0.000,0
2026-01-31 00:13:06,1297614,2830.000,1856.000,7977.000,-205.000,232.000,272.000,0.000,0.000,0
2026-01-31 00:13:06,1297654,2543.000,2025.000,7782.000,82.000,11.000,344.000,0.000,0.000,0
2026-01-31 00:13:06,1297694,2559.000,2360.000,7453.000,-16.000,-169.000,176.000,0.000,0.000,0
2026-01-31 00:13:06,1297734,2457.000,1918.000,7073.000,-464.000,-181.000,30.000,0.000,0.000,0
2026-01-31 00:13:06,1297774,2870.000,1542.000,7347.000,-40.000,-317.000,-34.000,0.000,0.000,0
2026-01-31 00:13:07,1297814,2871.000,2230.000,7525.000,315.000,80.000,16.000,0.000,0.000,0
2026-01-31 00:13:07,1297854,2637.000,1764.000,7319.000,-142.000,21.000,55.000,0.000,0.000,0
2026-01-31 00:13:07,1297894,2786.000,1742.000,7578.000,19.000,-8.000,89.000,0.000,0.000,0
2026-01-31 00:13:07,1297934,2733.000,2003.000,7892.000,259.000,124.000,106.000,0.000,0.000,0
2026-01-31 00:13:07,1297974,2643.000,2108.000,7686.000,-28.000,137.000,57.000,0.000,0.000,0
2026-01-31 00:13:07,1298014,2721.000,1549.000,7573.000,-236.000,-43.000,41.000,0.000,0.000,0
2026-01-31 00:13:07,1298054,3037.000,1743.000,8088.000,251.000,-71.000,50.000,0.000,0.000,0
2026-01-31 00:13:07,1298094,2848.000,2328.000,8023.000,227.000,123.000,58.000,0.000,0.000,0
2026-01-31 00:13:07,1298134,2706.000,1901.000,7602.000,-212.000,54.000,35.000,0.000,0.000,0
2026-01-31 00:13:07,1298174,2842.000,1720.000,7701.000,6.000,-104.000,56.000,0.000,0.000,0
2026-01-31 00:13:07,1298214,2716.000,2006.000,7540.000,115.000,2.000,60.000,0.000,0.000,0
2026-01-31 00:13:07,1298254,2902.000,1263.000,8082.000,196.000,3.000,107.000,0.000,0.000,0
2026-01-31 00:13:07,1298294,3604.000,1282.000,9261.000,990.000,-167.000,488.000,0.000,0.000,0
2026-01-31 00:13:07,1298335,5466.000,609.000,8664.000,82.000,916.000,387.000,0.000,0.000,0
2026-01-31 00:13:07,1298374,4300.000,757.000,7461.000,451.000,3136.000,979.000,0.000,0.000,0
2026-01-31 00:13:07,1298414,3841.000,-502.000,7822.000,-487.000,4120.000,2775.000,0.000,0.000,0
2026-01-31 00:13:07,1298454,3872.000,231.000,7203.000,1167.000,4693.000,3672.000,0.000,0.000,0
2026-01-31 00:13:07,1298494,2829.000,1925.000,6147.000,2776.000,4895.000,4233.000,0.000,0.000,0
2026-01-31 00:13:07,1298534,2151.000,3135.000,6303.000,2460.000,4241.000,4218.000,0.000,0.000,0
2026-01-31 00:13:07,1298574,1179.000,3164.000,6446.000,2362.000,3131.000,3585.000,0.000,0.000,0
2026-01-31 00:13:07,1298614,-107.000,6256.000,6719.000,5825.000,2601.000,89.000,0.000,0.000,0
2026-01-31 00:13:07,1298654,-503.000,5910.000,7556.000,4020.000,3153.000,-399.000,0.000,0.000,0
2026-01-31 00:13:07,1298694,-1212.000,3209.000,6719.000,738.000,3291.000,155.000,0.000,0.000,0
2026-01-31 00:13:07,1298734,-703.000,2987.000,6836.000,-466.000,3054.000,-38.000,0.000,0.000,0
2026-01-31 00:13:07,1298774,-342.000,3243.000,7425.000,-1706.000,2933.000,306.000,0.000,0.000,0
2026-01-31 00:13:08,1298814,233.000,3586.000,8549.000,-2653.000,2332.000,579.000,0.000,0.000,1
2026-01-31 00:13:08,1298854,387.000,3058.000,8447.000,-2297.000,2034.000,-16.000,0.000,0.000,1
2026-01-31 00:13:08,1298894,65.000,2530.000,7533.000,257.000,2062.000,-598.000,0.000,0.000,1
2026-01-31 00:13:08,1298934,-436.000,2901.000,7275.000,1462.000,2344.000,-749.000,0.000,0.000,0
2026-01-31 00:13:08,1298974,-807.000,3314.000,7482.000,955.000,2511.000,-487.000,0.000,0.000,0
2026-01-31 00:13:08,1299014,-1146.000,3296.000,8229.000,-122.000,2264.000,105.000,0.000,0.000,0
2026-01-31 00:13:08,1299054,-1529.000,2991.000,8049.000,-111.000,1936.000,41.000,0.000,0.000,0
2026-01-31 00:13:08,1299094,-1529.000,3276.000,8053.000,-85.000,1581.000,165.000,0.000,0.000,0
2026-01-31 00:13:08,1299134,-1937.000,2488.000,7485.000,212.000,1620.000,477.000,0.000,0.000,0
2026-01-31 00:13:08,1299174,-1966.000,3670.000,7836.000,1056.000,1058.000,718.000,0.000,0.000,0
2026-01-31 00:13:08,1299214,-1956.000,4272.000,7420.000,268.000,530.000,915.000,0.000,0.000,0
2026-01-31 00:13:08,1299254,-2316.000,3779.000,6751.000,-525.000,105.000,831.000,0.000,0.000,0
2026-01-31 00:13:08,1299294,-2130.000,4489.000,7172.000,-481.000,-545.000,211.000,0.000,0.000,0
2026-01-31 00:13:08,1299334,-1709.000,3585.000,7353.000,-1375.000,-734.000,-25.000,0.000,0.000,0
2026-01-31 00:13:08,1299374,-1635.000,2854.000,7352.000,-1167.000,-769.000,-52.000,0.000,0.000,0
2026-01-31 00:13:08,1299414,-1632.000,2871.000,8012.000,-545.000,-797.000,22.000,0.000,0.000,0
2026-01-31 00:13:08,1299454,-1840.000,2811.000,8139.000,-805.000,-693.000,60.000,0.000,0.000,0
2026-01-31 00:13:08,1299494,-1973.000,2684.000,7677.000,-560.000,-842.000,301.000,0.000,0.000,0
2026-01-31 00:13:08,1299534,-1571.000,3100.000,7959.000,-768.000,-1301.000,536.000,0.000,0.000,0
2026-01-31 00:13:08,1299574,-1194.000,2917.000,8314.000,-1974.000,-1556.000,746.000,0.000,0.000,0
2026-01-31 00:13:08,1299614,-1196.000,2466.000,8269.000,-2440.000,-1470.000,646.000,0.000,0.000,0
2026-01-31 00:13:08,1299654,-1181.000,1683.000,8147.000,-2151.000,-1285.000,521.000,0.000,0.000,0
2026-01-31 00:13:08,1299694,-735.000,1451.000,8165.000,-1442.000,-1282.000,443.000,0.000,0.000,0
2026-01-31 00:13:08,1299734,-325.000,1832.000,7844.000,-1180.000,-1180.000,200.000,0.000,0.000,0
2026-01-31 00:13:08,1299774,245.000,1805.000,8085.000,-1252.000,-934.000,-135.000,0.000,0.000,0
2026-01-31 00:13:09,1299814,313.000,1186.000,8014.000,-1089.000,-591.000,-270.000,0.000,0.000,1
2026-01-31 00:13:09,1299854,437.000,1253.000,8005.000,-482.000,-345.000,-338.000,0.000,0.000,1
2026-01-31 00:13:09,1299894,352.000,1139.000,7871.000,9.000,-6.000,-189.000,0.000,0.000,1
2026-01-31 00:13:09,1299934,257.000,1739.000,7976.000,582.000,203.000,-48.000,0.000,0.000,0
2026-01-31 00:13:09,1299974,32.000,1747.000,8357.000,357.000,520.000,96.000,0.000,0.000,0
2026-01-31 00:13:09,1300014,-222.000,1480.000,8086.000,498.000,597.000,205.000,0.000,0.000,0
2026-01-31 00:13:09,1300058,-261.000,2266.000,8262.000,765.000,439.000,327.000,0.000,0.000,0
2026-01-31 00:13:09,1300094,-419.000,2091.000,8498.000,170.000,420.000,364.000,0.000,0.000,0
2026-01-31 00:13:09,1300134,-759.000,1681.000,8229.000,23.000,400.000,370.000,0.000,0.000,0
2026-01-31 00:13:09,1300174,-633.000,2091.000,8500.000,-7.000,-40.000,415.000,0.000,0.000,0
2026-01-31 00:13:09,1300214,-629.000,1944.000,8676.000,-333.000,-12.000,237.000,0.000,0.000,0
2026-01-31 00:13:09,1300254,-669.000,1806.000,8328.000,-86.000,-34.000,123.000,0.000,0.000,0
2026-01-31 00:13:09,1300294,-580.000,1868.000,8268.000,-148.000,-122.000,128.000,0.000,0.000,0
2026-01-31 00:13:09,1300336,-533.000,1778.000,8060.000,-273.000,-225.000,134.000,0.000,0.000,0
2026-01-31 00:13:09,1300374,-433.000,1729.000,8330.000,-364.000,-190.000,98.000,0.000,0.000,0
2026-01-31 00:13:09,1300414,-514.000,1426.000,8270.000,-340.000,-14.000,66.000,0.000,0.000,0
2026-01-31 00:13:09,1300454,-536.000,1385.000,7818.000,67.000,-56.000,60.000,0.000,0.000,0
2026-01-31 00:13:09,1300494,-324.000,1975.000,8062.000,201.000,-175.000,135.000,0.000,0.000,0
2026-01-31 00:13:09,1300534,-281.000,1808.000,8046.000,37.000,-90.000,150.000,0.000,0.000,0
2026-01-31 00:13:09,1300574,-71.000,1636.000,7827.000,119.000,94.000,95.000,0.000,0.000,0
2026-01-31 00:13:09,1300614,-35.000,1911.000,7940.000,316.000,46.000,90.000,0.000,0.000,0
2026-01-31 00:13:09,1300654,-85.000,2126.000,8236.000,167.000,128.000,92.000,0.000,0.000,0
2026-01-31 00:13:09,1300694,-320.000,1587.000,7948.000,-23.000,195.000,32.000,0.000,0.000,0
2026-01-31 00:13:09,1300734,-180.000,2053.000,8621.000,115.000,103.000,71.000,0.000,0.000,0
2026-01-31 00:13:09,1300774,-336.000,1756.000,8567.000,-136.000,276.000,65.000,0.000,0.000,0
2026-01-31 00:13:10,1300814,-404.000,1817.000,8222.000,231.000,115.000,40.000,0.000,0.000,1
2026-01-31 00:13:10,1300854,-360.000,2054.000,8636.000,-121.000,-61.000,216.000,0.000,0.000,1
2026-01-31 00:13:10,1300894,-510.000,1804.000,8223.000,-40.000,17.000,132.000,0.000,0.000,1
2026-01-31 00:13:10,1300934,-339.000,1955.000,7977.000,70.000,-38.000,140.000,0.000,0.000,0
2026-01-31 00:13:10,1300974,-334.000,1784.000,8012.000,-172.000,-51.000,161.000,0.000,0.000,0
2026-01-31 00:13:10,1301014,-363.000,1719.000,8135.000,-133.000,49.000,117.000,0.000,0.000,0
2026-01-31 00:13:10,1301054,-406.000,1651.000,8095.000,45.000,154.000,84.000,0.000,0.000,0
2026-01-31 00:13:10,1301094,-514.000,1800.000,8094.000,190.000,121.000,162.000,0.000,0.000,0
2026-01-31 00:13:10,1301134,-608.000,1904.000,8319.000,74.000,87.000,214.000,0.000,0.000,0
2026-01-31 00:13:10,1301174,-713.000,1652.000,8054.000,24.000,108.000,171.000,0.000,0.000,0
2026-01-31 00:13:10,1301214,-586.000,1835.000,7916.000,41.000,-45.000,135.000,0.000,0.000,0
2026-01-31 00:13:10,1301254,-422.000,1820.000,8030.000,-115.000,-82.000,62.000,0.000,0.000,0
2026-01-31 00:13:10,1301294,-580.000,1420.000,8169.000,-229.000,140.000,56.000,0.000,0.000,0
2026-01-31 00:13:10,1301334,-626.000,1594.000,8224.000,104.000,113.000,59.000,0.000,0.000,0
2026-01-31 00:13:10,1301374,-650.000,1771.000,8526.000,13.000,63.000,137.000,0.000,0.000,0
2026-01-31 00:13:10,1301414,-594.000,1866.000,8627.000,-2.000,117.000,148.000,0.000,0.000,0
2026-01-31 00:13:10,1301454,-553.000,1709.000,8426.000,100.000,140.000,121.000,0.000,0.000,0
2026-01-31 00:13:10,1301494,-524.000,1709.000,7988.000,104.000,42.000,170.000,0.000,0.000,0
2026-01-31 00:13:10,1301534,-419.000,2042.000,7818.000,227.000,-221.000,177.000,0.000,0.000,0
2026-01-31 00:13:10,1301574,-202.000,2231.000,8367.000,-90.000,-101.000,172.000,0.000,0.000,0
2026-01-31 00:13:10,1301614,-385.000,1662.000,8176.000,111.000,236.000,73.000,0.000,0.000,0
2026-01-31 00:13:10,1301654,-379.000,2008.000,7945.000,483.000,206.000,126.000,0.000,0.000,0
2026-01-31 00:13:10,1301694,-437.000,2180.000,7751.000,-29.000,-153.000,120.000,0.000,0.000,0
2026-01-31 00:13:10,1301734,-184.000,1979.000,7998.000,-339.000,-212.000,39.000,0.000,0.000,0
2026-01-31 00:13:10,1301774,-133.000,1891.000,8230.000,-114.000,6.000,-1.000,0.000,0.000,0
2026-01-31 00:13:11,1301814,-324.000,1865.000,8332.000,56.000,196.000,54.000,0.000,0.000,1
2026-01-31 00:13:11,1301854,-479.000,1985.000,8163.000,101.000,95.000,86.000,0.000,0.000,1
2026-01-31 00:13:11,1301894,-487.000,1893.000,8283.000,-318.000,-72.000,144.000,0.000,0.000,1
2026-01-31 00:13:11,1301934,-464.000,1757.000,8344.000,-265.000,-127.000,90.000,0.000,0.000,0
2026-01-31 00:13:11,1301974,-435.000,1557.000,8141.000,-110.000,15.000,52.000,0.000,0.000,0
2026-01-31 00:13:11,1302014,-415.000,1817.000,7877.000,88.000,-32.000,95.000,0.000,0.000,0
2026-01-31 00:13:11,1302054,-235.000,1903.000,8446.000,-173.000,85.000,169.000,0.000,0.000,0
2026-01-31 00:13:11,1302096,-522.000,1651.000,8277.000,126.000,323.000,104.000,0.000,0.000,0
2026-01-31 00:13:11,1302135,-736.000,1715.000,7919.000,269.000,249.000,203.000,0.000,0.000,0
2026-01-31 00:13:11,1302174,-758.000,1985.000,8045.000,90.000,2.000,250.000,0.000,0.000,0
2026-01-31 00:13:11,1302214,-815.000,1869.000,8370.000,-98.000,101.000,181.000,0.000,0.000,0
2026-01-31 00:13:11,1302254,-737.000,1747.000,8464.000,154.000,300.000,79.000,0.000,0.000,0
2026-01-31 00:13:11,1302294,-768.000,1929.000,8314.000,481.000,328.000,115.000,0.000,0.000,0
2026-01-31 00:13:11,1302336,-724.000,2417.000,8044.000,403.000,44.000,164.000,0.000,0.000,0
2026-01-31 00:13:11,1302374,-518.000,2048.000,7899.000,-138.000,-200.000,105.000,0.000,0.000,0
2026-01-31 00:13:11,1302414,-233.000,2021.000,7768.000,-100.000,-281.000,19.000,0.000,0.000,0
2026-01-31 00:13:11,1302454,-255.000,2091.000,7832.000,-66.000,-81.000,30.000,0.000,0.000,0
2026-01-31 00:13:11,1302494,-344.000,1955.000,8072.000,-57.000,57.000,29.000,0.000,0.000,0
2026-01-31 00:13:11,1302534,-333.000,1881.000,8140.000,28.000,104.000,63.000,0.000,0.000,0
2026-01-31 00:13:11,1302574,-189.000,2358.000,8219.000,164.000,66.000,66.000,0.000,0.000,0
2026-01-31 00:13:11,1302614,-142.000,2346.000,8268.000,-1.000,14.000,54.000,0.000,0.000,0
2026-01-31 00:13:11,1302654,-236.000,1857.000,8014.000,-134.000,-25.000,107.000,0.000,0.000,0
2026-01-31 00:13:11,1302694,-156.000,2447.000,8547.000,74.000,-49.000,161.000,0.000,0.000,0
2026-01-31 00:13:11,1302734,-353.000,2131.000,8326.000,-3.000,139.000,126.000,0.000,0.000,0
2026-01-31 00:13:11,1302774,-288.000,2204.000,8144.000,144.000,84.000,104.000,0.000,0.000,0
2026-01-31 00:13:12,1302814,-133.000,2402.000,7963.000,92.000,34.000,134.000,0.000,0.000,1
2026-01-31 00:13:12,1302854,82.000,2540.000,7969.000,80.000,24.000,78.000,0.000,0.000,1
2026-01-31 00:13:12,1302894,182.000,2405.000,7907.000,-6.000,73.000,57.000,0.000,0.000,1
2026-01-31 00:13:12,1302934,134.000,2362.000,7721.000,128.000,70.000,36.000,0.000,0.000,0
2026-01-31 00:13:12,1302974,128.000,2825.000,8413.000,13.000,62.000,112.000,0.000,0.000,0
2026-01-31 00:13:12,1303014,-139.000,2322.000,8402.000,12.000,262.000,59.000,0.000,0.000,0
2026-01-31 00:13:12,1303054,-68.000,2615.000,8481.000,309.000,223.000,60.000,0.000,0.000,0
2026-01-31 00:13:12,1303094,175.000,2879.000,8376.000,388.000,51.000,79.000,0.000,0.000,0
2026-01-31 00:13:12,1303134,638.000,3188.000,8152.000,280.000,-106.000,-20.000,0.000,0.000,0
2026-01-31 00:13:12,1303174,1101.000,3322.000,7946.000,281.000,-278.000,-58.000,0.000,0.000,0
2026-01-31 00:13:12,1303214,1514.000,3473.000,7444.000,72.000,-439.000,43.000,0.000,0.000,0
2026-01-31 00:13:12,1303254,1754.000,3855.000,7403.000,-80.000,-570.000,43.000,0.000,0.000,0
2026-01-31 00:13:12,1303294,1629.000,3497.000,7635.000,-413.000,-504.000,273.000,0.000,0.000,0
2026-01-31 00:13:12,1303334,1387.000,3192.000,7466.000,19.000,-300.000,210.000,0.000,0.000,0
2026-01-31 00:13:12,1303374,1501.000,3729.000,7708.000,254.000,-87.000,146.000,0.000,0.000,0
2026-01-31 00:13:12,1303414,1516.000,3440.000,7461.000,120.000,-65.000,89.000,0.000,0.000,0
2026-01-31 00:13:12,1303454,1887.000,3910.000,7651.000,298.000,-124.000,-46.000,0.000,0.000,0
2026-01-31 00:13:12,1303494,2063.000,3682.000,7400.000,88.000,-134.000,-109.000,0.000,0.000,0
2026-01-31 00:13:12,1303534,2404.000,4081.000,7608.000,-74.000,-181.000,-198.000,0.000,0.000,0
2026-01-31 00:13:12,1303574,2455.000,3717.000,7747.000,-188.000,79.000,-166.000,0.000,0.000,0
2026-01-31 00:13:12,1303614,2212.000,3897.000,8183.000,121.000,420.000,-138.000,0.000,0.000,0
2026-01-31 00:13:12,1303654,2021.000,3808.000,8348.000,111.000,563.000,-98.000,0.000,0.000,0
2026-01-31 00:13:12,1303694,1688.000,3620.000,7833.000,221.000,471.000,-53.000,0.000,0.000,0
2026-01-31 00:13:12,1303734,1752.000,4055.000,7782.000,239.000,173.000,65.000,0.000,0.000,0
2026-01-31 00:13:12,1303774,1980.000,4092.000,7679.000,-167.000,-47.000,186.000,0.000,0.000,0
2026-01-31 00:13:13,1303814,2224.000,3808.000,7700.000,-389.000,-27.000,174.000,0.000,0.000,1
2026-01-31 00:13:13,1303854,2286.000,3862.000,7561.000,6.000,188.000,95.000,0.000,0.000,1
2026-01-31 00:13:13,1303894,2234.000,3987.000,7430.000,294.000,363.000,7.000,0.000,0.000,1
2026-01-31 00:13:13,1303934,2096.000,3934.000,7279.000,494.000,474.000,22.000,0.000,0.000,0
2026-01-31 00:13:13,1303974,2096.000,4318.000,7943.000,507.000,570.000,63.000,0.000,0.000,0
2026-01-31 00:13:13,1304014,1934.000,4197.000,7756.000,720.000,682.000,27.000,0.000,0.000,0
2026-01-31 00:13:13,1304054,1850.000,4284.000,7371.000,1140.000,602.000,-36.000,0.000,0.000,0
2026-01-31 00:13:13,1304098,1874.000,4767.000,7352.000,965.000,454.000,65.000,0.000,0.000,0
2026-01-31 00:13:13,1304134,1913.000,4911.000,7265.000,536.000,340.000,11.000,0.000,0.000,0
2026-01-31 00:13:13,1304174,2034.000,4825.000,7351.000,390.000,323.000,-68.000,0.000,0.000,0
2026-01-31 00:13:13,1304214,2077.000,4980.000,7463.000,404.000,369.000,-92.000,0.000,0.000,0
2026-01-31 00:13:13,1304254,1974.000,4994.000,7267.000,377.000,356.000,-87.000,0.000,0.000,0
2026-01-31 00:13:13,1304294,1976.000,5216.000,7585.000,-6.000,208.000,-14.000,0.000,0.000,0
2026-01-31 00:13:13,1304336,1735.000,4741.000,7466.000,-135.000,161.000,-88.000,0.000,0.000,0
2026-01-31 00:13:13,1304374,1788.000,4990.000,7711.000,58.000,128.000,-43.000,0.000,0.000,0
2026-01-31 00:13:13,1304414,1739.000,4776.000,7382.000,-70.000,42.000,-2.000,0.000,0.000,0
2026-01-31 00:13:13,1304454,1850.000,4838.000,7345.000,0.000,-72.000,63.000,0.000,0.000,0
2026-01-31 00:13:13,1304494,2074.000,4967.000,7535.000,-225.000,-60.000,145.000,0.000,0.000,0
2026-01-31 00:13:13,1304534,2065.000,4507.000,7569.000,-182.000,114.000,17.000,0.000,0.000,0
2026-01-31 00:13:13,1304574,1954.000,4577.000,7586.000,174.000,246.000,78.000,0.000,0.000,0
2026-01-31 00:13:13,1304614,1881.000,4914.000,7390.000,410.000,191.000,104.000,0.000,0.000,0
2026-01-31 00:13:13,1304654,1766.000,5007.000,7324.000,175.000,109.000,177.000,0.000,0.000,0
2026-01-31 00:13:13,1304694,1771.000,5000.000,7553.000,-37.000,89.000,204.000,0.000,0.000,0
2026-01-31 00:13:13,1304734,1739.000,4864.000,7456.000,169.000,165.000,173.000,0.000,0.000,0
2026-01-31 00:13:13,1304774,1791.000,4977.000,7320.000,175.000,133.000,163.000,0.000,0.000,0
2026-01-31 00:13:14,1304814,1839.000,4782.000,7220.000,114.000,68.000,92.000,0.000,0.000,1
2026-01-31 00:13:14,1304854,1787.000,4804.000,7250.000,21.000,-27.000,156.000,0.000,0.000,1
2026-01-31 00:13:14,1304894,1834.000,5101.000,7416.000,165.000,-21.000,129.000,0.000,0.000,1
2026-01-31 00:13:14,1304934,1883.000,4974.000,7362.000,121.000,131.000,66.000,0.000,0.000,0
2026-01-31 00:13:14,1304974,1818.000,5052.000,7355.000,238.000,177.000,91.000,0.000,0.000,0
2026-01-31 00:13:14,1305014,1804.000,5222.000,7455.000,144.000,159.000,137.000,0.000,0.000,0
2026-01-31 00:13:14,1305054,1611.000,4904.000,7245.000,114.000,106.000,100.000,0.000,0.000,0
2026-01-31 00:13:14,1305094,1664.000,4967.000,7043.000,0.000,-57.000,170.000,0.000,0.000,0
2026-01-31 00:13:14,1305134,1742.000,4953.000,7098.000,-243.000,-196.000,166.000,0.000,0.000,0
2026-01-31 00:13:14,1305174,1894.000,4858.000,7211.000,-456.000,-215.000,205.000,0.000,0.000,0
2026-01-31 00:13:14,1305214,2004.000,4710.000,7460.000,-459.000,-124.000,206.000,0.000,0.000,0
2026-01-31 00:13:14,1305254,2015.000,5006.000,7782.000,-389.000,38.000,267.000,0.000,0.000,0
2026-01-31 00:13:14,1305294,1658.000,4298.000,7413.000,-315.000,28.000,282.000,0.000,0.000,0
2026-01-31 00:13:14,1305334,1740.000,5110.000,8012.000,-487.000,-304.000,552.000,0.000,0.000,0
2026-01-31 00:13:14,1305374,1800.000,4558.000,7862.000,-971.000,-440.000,454.000,0.000,0.000,0
2026-01-31 00:13:14,1305414,1929.000,3755.000,7697.000,-1157.000,-564.000,473.000,0.000,0.000,0
2026-01-31 00:13:14,1305454,2125.000,4076.000,7880.000,-1019.000,-787.000,515.000,0.000,0.000,0
2026-01-31 00:13:14,1305494,2402.000,3472.000,7893.000,-1038.000,-729.000,248.000,0.000,0.000,0
2026-01-31 00:13:14,1305534,2486.000,3391.000,7869.000,-893.000,-588.000,348.000,0.000,0.000,0
2026-01-31 00:13:14,1305574,2518.000,3397.000,7966.000,-897.000,-595.000,267.000,0.000,0.000,0
