datetime_local,uptime_ms,acc_x,acc_y,acc_z,gyro_x,gyro_y,gyro_z,speed_mps,turn_rate_deg_s,gps_valid
2026-01-30 21:58:52,1666324,1524.000,-2122.000,8046.000,56.000,48.000,-22.000,NA,0.000,0
2026-01-30 21:58:52,1666364,1561.000,-2246.000,8089.000,-13.000,-12.000,7.000,NA,0.000,0
2026-01-30 21:58:52,1666404,1668.000,-2228.000,8016.000,22.000,-54.000,9.000,NA,0.000,0
2026-01-30 21:58:52,1666445,1697.000,-2194.000,7962.000,14.000,-34.000,7.000,NA,0.000,0
2026-01-30 21:58:52,1666484,1671.000,-2244.000,8049.000,-17.000,-18.000,10.000,NA,0.000,0
2026-01-30 21:58:52,1666524,1674.000,-2245.000,8044.000,37.000,-2.000,3.000,NA,0.000,0
2026-01-30 21:58:52,1666568,1550.000,-2154.000,8049.000,22.000,32.000,22.000,NA,0.000,0
2026-01-30 21:58:52,1666607,1568.000,-2141.000,8053.000,50.000,22.000,15.000,NA,0.000,0
2026-01-30 21:58:52,1666645,1576.000,-2157.000,8040.000,31.000,17.000,8.000,NA,0.000,0
2026-01-30 21:58:52,1666684,1589.000,-2231.000,8056.000,17.000,11.000,0.000,NA,0.000,0
2026-01-30 21:58:52,1666724,1623.000,-2175.000,8038.000,47.000,-7.000,-16.000,NA,0.000,0
2026-01-30 21:58:52,1666764,1628.000,-2210.000,8020.000,12.000,-23.000,-17.000,NA,0.000,0
2026-01-30 21:58:52,1666804,1678.000,-2206.000,8000.000,0.000,-20.000,2.000,NA,0.000,0
2026-01-30 21:58:52,1666844,1629.000,-2193.000,8017.000,31.000,25.000,9.000,NA,0.000,0
2026-01-30 21:58:52,1666884,1566.000,-2179.000,8046.000,32.000,23.000,18.000,NA,0.000,0
2026-01-30 21:58:52,1666924,1591.000,-2179.000,8044.000,22.000,9.000,6.000,NA,0.000,0
2026-01-30 21:58:52,1666964,1598.000,-2148.000,8077.000,60.000,19.000,-17.000,NA,0.000,0
2026-01-30 21:58:52,1667004,1642.000,-2141.000,8052.000,26.000,-7.000,-18.000,NA,0.000,0
2026-01-30 21:58:52,1667044,1667.000,-2200.000,8011.000,-21.000,17.000,-23.000,NA,0.000,0
2026-01-30 21:58:52,1667084,1627.000,-2222.000,7999.000,4.000,52.000,-24.000,NA,0.000,0
2026-01-30 21:58:52,1667124,1514.000,-2205.000,8028.000,-24.000,47.000,-17.000,NA,0.000,0
2026-01-30 21:58:52,1667164,1466.000,-2153.000,8015.000,7.000,17.000,9.000,NA,0.000,0
2026-01-30 21:58:52,1667204,1432.000,-2216.000,7969.000,-74.000,5.000,25.000,NA,0.000,0
2026-01-30 21:58:52,1667244,1436.000,-2313.000,7938.000,-48.000,13.000,14.000,NA,0.000,0
2026-01-30 21:58:53,1667284,1439.000,-2193.000,7982.000,-20.000,-20.000,5.000,NA,0.000,0
2026-01-30 21:58:53,1667324,1503.000,-2335.000,8002.000,-197.000,-71.000,-17.000,NA,0.000,0
2026-01-30 21:58:53,1667364,1384.000,-2549.000,7979.000,-190.000,-6.000,-17.000,NA,0.000,0
2026-01-30 21:58:53,1667404,1181.000,-2731.000,8018.000,-117.000,1.000,57.000,NA,0.000,0
2026-01-30 21:58:53,1667444,1109.000,-2753.000,8099.000,-201.000,-26.000,60.000,NA,0.000,0
2026-01-30 21:58:53,1667484,1079.000,-2956.000,8105.000,-158.000,1.000,59.000,NA,0.000,0
2026-01-30 21:58:53,1667524,1177.000,-2736.000,8050.000,109.000,-55.000,68.000,NA,0.000,0
2026-01-30 21:58:53,1667564,1283.000,-2574.000,8046.000,163.000,-68.000,15.000,NA,0.000,0
2026-01-30 21:58:53,1667604,1312.000,-2582.000,8054.000,53.000,-37.000,-4.000,NA,0.000,0
2026-01-30 21:58:53,1667644,1180.000,-2784.000,8011.000,39.000,75.000,-18.000,NA,0.000,0
2026-01-30 21:58:53,1667684,1073.000,-2607.000,8027.000,153.000,68.000,-28.000,NA,0.000,0
2026-01-30 21:58:53,1667724,1053.000,-2725.000,7988.000,-35.000,-1.000,7.000,NA,0.000,0
2026-01-30 21:58:53,1667764,1072.000,-2790.000,8002.000,-39.000,-59.000,0.000,NA,0.000,0
2026-01-30 21:58:53,1667804,1097.000,-2785.000,7933.000,20.000,-60.000,-17.000,NA,0.000,0
2026-01-30 21:58:53,1667844,1151.000,-2697.000,8005.000,-9.000,-79.000,-3.000,NA,0.000,0
2026-01-30 21:58:53,1667884,1126.000,-2860.000,7972.000,-15.000,-39.000,-18.000,NA,0.000,0
2026-01-30 21:58:53,1667924,1062.000,-2865.000,7981.000,46.000,-7.000,-5.000,NA,0.000,0
2026-01-30 21:58:53,1667964,1044.000,-2820.000,8003.000,80.000,-17.000,1.000,NA,0.000,0
2026-01-30 21:58:53,1668004,1007.000,-2780.000,7993.000,78.000,-21.000,7.000,NA,0.000,0
2026-01-30 21:58:53,1668044,961.000,-2810.000,7983.000,33.000,-22.000,5.000,NA,0.000,0
2026-01-30 21:58:53,1668084,969.000,-2812.000,8002.000,48.000,-38.000,13.000,NA,0.000,0
2026-01-30 21:58:53,1668124,1007.000,-2887.000,8004.000,39.000,-47.000,-20.000,NA,0.000,0
2026-01-30 21:58:53,1668166,989.000,-2960.000,7964.000,31.000,-23.000,-24.000,NA,0.000,0
2026-01-30 21:58:53,1668205,984.000,-2965.000,8010.000,96.000,-45.000,-18.000,NA,0.000,0
2026-01-30 21:58:53,1668244,973.000,-3022.000,7999.000,79.000,-21.000,-18.000,NA,0.000,0
2026-01-30 21:58:54,1668284,976.000,-2907.000,8042.000,207.000,-24.000,14.000,NA,0.000,0
2026-01-30 21:58:54,1668325,942.000,-2831.000,7985.000,124.000,-35.000,-2.000,NA,0.000,0
2026-01-30 21:58:54,1668364,935.000,-2853.000,7968.000,135.000,-60.000,9.000,NA,0.000,0
2026-01-30 21:58:54,1668404,948.000,-2672.000,8005.000,138.000,-55.000,41.000,NA,0.000,0
2026-01-30 21:58:54,1668444,918.000,-2725.000,8070.000,55.000,-40.000,59.000,NA,0.000,0
2026-01-30 21:58:54,1668484,1013.000,-2908.000,8052.000,6.000,-38.000,16.000,NA,0.000,0
2026-01-30 21:58:54,1668524,925.000,-2897.000,8031.000,113.000,-5.000,-50.000,NA,0.000,0
2026-01-30 21:58:54,1668564,936.000,-2779.000,7953.000,95.000,-57.000,-85.000,NA,0.000,0
2026-01-30 21:58:54,1668604,943.000,-2764.000,8020.000,31.000,-57.000,-32.000,NA,0.000,0
2026-01-30 21:58:54,1668644,1014.000,-2811.000,8070.000,-18.000,-58.000,38.000,NA,0.000,0
2026-01-30 21:58:54,1668684,968.000,-2896.000,8026.000,35.000,-13.000,46.000,NA,0.000,0
2026-01-30 21:58:54,1668724,931.000,-2727.000,7972.000,152.000,-36.000,19.000,NA,0.000,0
2026-01-30 21:58:54,1668764,899.000,-2716.000,7943.000,33.000,-55.000,-2.000,NA,0.000,0
2026-01-30 21:58:54,1668804,1033.000,-2815.000,8048.000,-44.000,-114.000,-30.000,NA,0.000,0
2026-01-30 21:58:54,1668844,1026.000,-3003.000,8109.000,-19.000,4.000,-2.000,NA,0.000,0
2026-01-30 21:58:54,1668884,1039.000,-2823.000,8097.000,125.000,-24.000,-9.000,NA,0.000,0
2026-01-30 21:58:54,1668924,1005.000,-2796.000,7950.000,85.000,-22.000,-5.000,NA,0.000,0
2026-01-30 21:58:54,1668964,971.000,-2705.000,7984.000,72.000,-9.000,27.000,NA,0.000,0
2026-01-30 21:58:54,1669004,996.000,-2800.000,7989.000,-26.000,14.000,26.000,NA,0.000,0
2026-01-30 21:58:54,1669044,953.000,-2852.000,8070.000,35.000,20.000,0.000,NA,0.000,0
2026-01-30 21:58:54,1669084,997.000,-2801.000,8072.000,29.000,-20.000,-3.000,NA,0.000,0
2026-01-30 21:58:54,1669124,988.000,-2845.000,8010.000,39.000,-9.000,-6.000,NA,0.000,0
2026-01-30 21:58:54,1669164,931.000,-2728.000,7984.000,116.000,22.000,12.000,NA,0.000,0
2026-01-30 21:58:54,1669204,859.000,-2637.000,8056.000,56.000,6.000,32.000,NA,0.000,0
2026-01-30 21:58:54,1669244,1002.000,-2835.000,7960.000,-73.000,-57.000,0.000,NA,0.000,0
2026-01-30 21:58:55,1669284,1028.000,-2778.000,8007.000,-30.000,-39.000,-32.000,NA,0.000,0
2026-01-30 21:58:55,1669324,1032.000,-2825.000,8043.000,-71.000,-20.000,-18.000,NA,0.000,0
2026-01-30 21:58:55,1669364,992.000,-2916.000,8091.000,-28.000,6.000,8.000,NA,0.000,0
2026-01-30 21:58:55,1669404,888.000,-2791.000,7983.000,148.000,12.000,-12.000,NA,0.000,0
2026-01-30 21:58:55,1669444,900.000,-2533.000,8101.000,75.000,-29.000,65.000,NA,0.000,0
2026-01-30 21:58:55,1669484,961.000,-2697.000,8128.000,-103.000,-13.000,92.000,NA,0.000,0
2026-01-30 21:58:55,1669524,1094.000,-2954.000,8073.000,-94.000,-63.000,-28.000,NA,0.000,0
2026-01-30 21:58:55,1669564,1042.000,-2857.000,7944.000,85.000,-57.000,-70.000,NA,0.000,0
2026-01-30 21:58:55,1669604,966.000,-2794.000,8056.000,76.000,-8.000,-69.000,NA,0.000,0
2026-01-30 21:58:55,1669644,1075.000,-2965.000,8031.000,-7.000,-23.000,-16.000,NA,0.000,0
2026-01-30 21:58:55,1669684,1083.000,-2899.000,7920.000,132.000,18.000,-28.000,NA,0.000,0
2026-01-30 21:58:55,1669724,973.000,-2718.000,7923.000,138.000,43.000,-9.000,NA,0.000,0
2026-01-30 21:58:55,1669764,955.000,-2573.000,8088.000,42.000,37.000,68.000,NA,0.000,0
2026-01-30 21:58:55,1669804,1028.000,-2830.000,8089.000,-53.000,70.000,81.000,NA,0.000,0
2026-01-30 21:58:55,1669844,905.000,-2768.000,8041.000,191.000,172.000,-22.000,NA,0.000,0
2026-01-30 21:58:55,1669884,804.000,-2459.000,8125.000,90.000,72.000,3.000,NA,0.000,0
2026-01-30 21:58:55,1669924,956.000,-2797.000,8092.000,-194.000,-61.000,-23.000,NA,0.000,0
2026-01-30 21:58:55,1669964,992.000,-3008.000,8020.000,-36.000,-8.000,-120.000,NA,0.000,0
2026-01-30 21:58:55,1670004,826.000,-2637.000,7999.000,124.000,44.000,-8.000,NA,0.000,0
2026-01-30 21:58:55,1670044,888.000,-2474.000,8087.000,-29.000,-2.000,86.000,NA,0.000,0
2026-01-30 21:58:55,1670084,944.000,-2795.000,7993.000,-191.000,-27.000,52.000,NA,0.000,0
2026-01-30 21:58:55,1670124,1008.000,-2773.000,8033.000,-98.000,-36.000,13.000,NA,0.000,0
2026-01-30 21:58:55,1670166,960.000,-2889.000,8091.000,-200.000,-34.000,-51.000,NA,0.000,0
2026-01-30 21:58:55,1670205,944.000,-2999.000,8090.000,-81.000,-20.000,-127.000,NA,0.000,0
2026-01-30 21:58:55,1670244,1028.000,-2882.000,7972.000,-25.000,-45.000,-82.000,NA,0.000,0
2026-01-30 21:58:56,1670284,1084.000,-2759.000,8076.000,-67.000,-43.000,-3.000,NA,0.000,0
2026-01-30 21:58:56,1670326,978.000,-2894.000,8080.000,-5.000,27.000,72.000,NA,0.000,0
2026-01-30 21:58:56,1670364,855.000,-2774.000,7996.000,49.000,45.000,68.000,NA,0.000,0
2026-01-30 21:58:56,1670404,835.000,-2690.000,8023.000,43.000,-4.000,53.000,NA,0.000,0
2026-01-30 21:58:56,1670444,912.000,-2539.000,8032.000,43.000,-44.000,15.000,NA,0.000,0
2026-01-30 21:58:56,1670484,983.000,-2576.000,8070.000,-122.000,-29.000,16.000,NA,0.000,0
2026-01-30 21:58:56,1670524,987.000,-3012.000,7996.000,-158.000,15.000,-61.000,NA,0.000,0
2026-01-30 21:58:56,1670564,983.000,-2939.000,7877.000,35.000,-25.000,-115.000,NA,0.000,0
2026-01-30 21:58:56,1670604,1013.000,-2701.000,7849.000,-60.000,-91.000,-104.000,NA,0.000,0
2026-01-30 21:58:56,1670644,1163.000,-2920.000,7992.000,-252.000,-85.000,-55.000,NA,0.000,0
2026-01-30 21:58:56,1670684,1088.000,-3135.000,8115.000,-183.000,-5.000,6.000,NA,0.000,0
2026-01-30 21:58:56,1670724,897.000,-2937.000,8121.000,184.000,47.000,85.000,NA,0.000,0
2026-01-30 21:58:56,1670764,859.000,-2562.000,7996.000,-12.000,-60.000,66.000,NA,0.000,0
2026-01-30 21:58:56,1670804,1070.000,-2926.000,8074.000,-135.000,-143.000,-17.000,NA,0.000,0
2026-01-30 21:58:56,1670844,1192.000,-2858.000,8211.000,80.000,-68.000,-64.000,NA,0.000,0
2026-01-30 21:58:56,1670884,1132.000,-2828.000,8134.000,36.000,-11.000,-80.000,NA,0.000,0
2026-01-30 21:58:56,1670924,1024.000,-2793.000,7973.000,142.000,-5.000,-117.000,NA,0.000,0
2026-01-30 21:58:56,1670964,918.000,-2681.000,7927.000,132.000,6.000,-12.000,NA,0.000,0
2026-01-30 21:58:56,1671004,911.000,-2501.000,8131.000,-31.000,-10.000,108.000,NA,0.000,0
2026-01-30 21:58:56,1671044,1051.000,-2855.000,8092.000,-209.000,-42.000,47.000,NA,0.000,0
2026-01-30 21:58:56,1671084,1085.000,-2816.000,7952.000,13.000,-82.000,-66.000,NA,0.000,0
2026-01-30 21:58:56,1671124,1183.000,-2830.000,8087.000,-136.000,-152.000,3.000,NA,0.000,0
2026-01-30 21:58:56,1671164,1168.000,-3254.000,8056.000,-131.000,-2.000,-78.000,NA,0.000,0
2026-01-30 21:58:56,1671204,948.000,-2825.000,7722.000,389.000,21.000,-107.000,NA,0.000,0
2026-01-30 21:58:56,1671244,831.000,-2183.000,7531.000,368.000,-88.000,-4.000,NA,0.000,0
2026-01-30 21:58:57,1671284,1025.000,-2571.000,7916.000,-602.000,-169.000,203.000,NA,0.000,0
2026-01-30 21:58:57,1671324,1027.000,-3644.000,8184.000,-581.000,-73.000,124.000,NA,0.000,0
2026-01-30 21:58:57,1671364,951.000,-3280.000,7869.000,259.000,-17.000,30.000,NA,0.000,0
2026-01-30 21:58:57,1671404,997.000,-2377.000,7688.000,491.000,-197.000,-83.000,NA,0.000,0
2026-01-30 21:58:57,1671444,1409.000,-2588.000,7636.000,-437.000,-505.000,-75.000,NA,0.000,0
2026-01-30 21:58:57,1671484,1746.000,-3433.000,7854.000,-653.000,-397.000,-112.000,NA,0.000,0
2026-01-30 21:58:57,1671524,1471.000,-3728.000,8346.000,-29.000,198.000,8.000,NA,0.000,0
2026-01-30 21:58:57,1671564,986.000,-3156.000,7981.000,690.000,249.000,-55.000,NA,0.000,0
2026-01-30 21:58:57,1671604,1094.000,-2253.000,7985.000,451.000,-20.000,175.000,NA,0.000,0
2026-01-30 21:58:57,1671644,1154.000,-2678.000,8146.000,-231.000,16.000,449.000,NA,0.000,0
2026-01-30 21:58:57,1671684,1249.000,-2973.000,8486.000,-3.000,143.000,333.000,NA,0.000,0
2026-01-30 21:58:57,1671724,1055.000,-2954.000,8400.000,337.000,246.000,203.000,NA,0.000,0
2026-01-30 21:58:57,1671764,817.000,-2454.000,8095.000,515.000,170.000,-45.000,NA,0.000,0
2026-01-30 21:58:57,1671804,1023.000,-2353.000,8282.000,-48.000,-77.000,-95.000,NA,0.000,0
2026-01-30 21:58:57,1671844,787.000,-3207.000,7620.000,-15.000,72.000,-190.000,NA,0.000,0
2026-01-30 21:58:57,1671884,710.000,-1668.000,7461.000,914.000,81.000,-172.000,NA,0.000,0
2026-01-30 21:58:57,1671924,880.000,-2303.000,8030.000,-904.000,39.000,288.000,NA,0.000,0
2026-01-30 21:58:57,1671964,1191.000,-3728.000,8241.000,-641.000,16.000,-12.000,NA,0.000,0
2026-01-30 21:58:57,1672004,1297.000,-3682.000,7979.000,23.000,-91.000,-231.000,NA,0.000,0
2026-01-30 21:58:57,1672044,1004.000,-2661.000,7632.000,287.000,-215.000,-127.000,NA,0.000,0
2026-01-30 21:58:57,1672084,1070.000,-2204.000,7866.000,-263.000,-289.000,-87.000,NA,0.000,0
2026-01-30 21:58:57,1672127,1289.000,-3996.000,8070.000,-632.000,-11.000,52.000,NA,0.000,0
2026-01-30 21:58:57,1672166,1184.000,-3812.000,8104.000,53.000,64.000,78.000,NA,0.000,0
2026-01-30 21:58:57,1672204,1008.000,-2679.000,8189.000,468.000,90.000,87.000,NA,0.000,0
2026-01-30 21:58:57,1672244,902.000,-2704.000,8048.000,39.000,3.000,83.000,NA,0.000,0
2026-01-30 21:58:58,1672284,1155.000,-2829.000,8018.000,-8.000,-58.000,44.000,NA,0.000,0
2026-01-30 21:58:58,1672326,795.000,-3088.000,8067.000,225.000,222.000,7.000,NA,0.000,0
2026-01-30 21:58:58,1672364,721.000,-2894.000,7980.000,380.000,188.000,-76.000,NA,0.000,0
2026-01-30 21:58:58,1672404,916.000,-2497.000,7972.000,146.000,-28.000,-50.000,NA,0.000,0
2026-01-30 21:58:58,1672444,1099.000,-2968.000,8005.000,-303.000,-76.000,57.000,NA,0.000,0
2026-01-30 21:58:58,1672484,1301.000,-3287.000,8073.000,-142.000,-58.000,-49.000,NA,0.000,0
2026-01-30 21:58:58,1672524,1231.000,-3274.000,7861.000,35.000,-40.000,-76.000,NA,0.000,0
2026-01-30 21:58:58,1672564,1208.000,-2985.000,7771.000,83.000,-38.000,-45.000,NA,0.000,0
2026-01-30 21:58:58,1672604,1263.000,-3069.000,7666.000,-161.000,-75.000,-57.000,NA,0.000,0
2026-01-30 21:58:58,1672644,1162.000,-3175.000,7802.000,-147.000,7.000,18.000,NA,0.000,0
2026-01-30 21:58:58,1672684,1067.000,-3083.000,8048.000,-46.000,105.000,175.000,NA,0.000,0
2026-01-30 21:58:58,1672724,955.000,-3226.000,8173.000,-37.000,86.000,243.000,NA,0.000,0
2026-01-30 21:58:58,1672764,758.000,-2899.000,7874.000,317.000,113.000,166.000,NA,0.000,0
2026-01-30 21:58:58,1672804,679.000,-2408.000,7978.000,236.000,12.000,229.000,NA,0.000,0
2026-01-30 21:58:58,1672844,852.000,-2690.000,8205.000,-228.000,-23.000,227.000,NA,0.000,0
2026-01-30 21:58:58,1672884,983.000,-3313.000,8319.000,-96.000,43.000,14.000,NA,0.000,0
2026-01-30 21:58:58,1672924,1065.000,-3009.000,8020.000,345.000,-4.000,-204.000,NA,0.000,0
2026-01-30 21:58:58,1672964,1032.000,-2618.000,7878.000,206.000,-61.000,-201.000,NA,0.000,0
2026-01-30 21:58:58,1673004,1224.000,-3009.000,7991.000,-280.000,-83.000,-115.000,NA,0.000,0
2026-01-30 21:58:58,1673044,1063.000,-3320.000,7895.000,302.000,124.000,-98.000,NA,0.000,0
2026-01-30 21:58:58,1673084,816.000,-2621.000,7785.000,357.000,70.000,96.000,NA,0.000,0
2026-01-30 21:58:58,1673124,914.000,-2385.000,7938.000,-68.000,-107.000,197.000,NA,0.000,0
2026-01-30 21:58:58,1673164,1116.000,-3034.000,8120.000,-402.000,-141.000,249.000,NA,0.000,0
2026-01-30 21:58:58,1673204,1215.000,-3000.000,7972.000,116.000,-47.000,70.000,NA,0.000,0
2026-01-30 21:58:58,1673244,1158.000,-2447.000,7858.000,188.000,-41.000,-46.000,NA,0.000,0
2026-01-30 21:58:59,1673284,1178.000,-2679.000,8017.000,-261.000,-84.000,-57.000,NA,0.000,0
2026-01-30 21:58:59,1673324,1293.000,-3052.000,8222.000,-222.000,-9.000,-79.000,NA,0.000,0
2026-01-30 21:58:59,1673364,1160.000,-3065.000,8218.000,87.000,110.000,-27.000,NA,0.000,0
2026-01-30 21:58:59,1673404,1174.000,-2233.000,7926.000,389.000,42.000,39.000,NA,0.000,0
2026-01-30 21:58:59,1673444,1492.000,-2067.000,8109.000,163.000,-179.000,174.000,NA,0.000,0
2026-01-30 21:58:59,1673484,1898.000,-1936.000,8244.000,252.000,-159.000,186.000,NA,0.000,0
2026-01-30 21:58:59,1673524,1957.000,-1895.000,8048.000,548.000,5.000,49.000,NA,0.000,0
2026-01-30 21:58:59,1673564,1887.000,-1571.000,7996.000,656.000,37.000,-92.000,NA,0.000,0
2026-01-30 21:58:59,1673604,1925.000,-1491.000,7968.000,316.000,-14.000,-209.000,NA,0.000,0
2026-01-30 21:58:59,1673644,2075.000,-1795.000,7966.000,-75.000,49.000,-225.000,NA,0.000,0
2026-01-30 21:58:59,1673684,1882.000,-2198.000,7868.000,31.000,255.000,-284.000,NA,0.000,0
2026-01-30 21:58:59,1673724,1709.000,-1735.000,7971.000,330.000,356.000,-213.000,NA,0.000,0
2026-01-30 21:58:59,1673764,1617.000,-1385.000,8300.000,127.000,269.000,3.000,NA,0.000,0
2026-01-30 21:58:59,1673804,1727.000,-1380.000,8251.000,137.000,14.000,110.000,NA,0.000,0
2026-01-30 21:58:59,1673844,1647.000,-1283.000,7953.000,-12.000,-69.000,112.000,NA,0.000,0
2026-01-30 21:58:59,1673884,1735.000,-1489.000,7950.000,-129.000,-124.000,-12.000,NA,0.000,0
2026-01-30 21:58:59,1673924,1878.000,-1931.000,8155.000,-435.000,9.000,-108.000,NA,0.000,0
2026-01-30 21:58:59,1673964,1708.000,-2437.000,8057.000,-248.000,120.000,-300.000,NA,0.000,0
2026-01-30 21:58:59,1674004,1691.000,-2009.000,8133.000,89.000,-20.000,-296.000,NA,0.000,0
2026-01-30 21:58:59,1674044,1719.000,-1793.000,7819.000,-26.000,-82.000,-96.000,NA,0.000,0
2026-01-30 21:58:59,1674084,1610.000,-1842.000,7817.000,-69.000,81.000,-55.000,NA,0.000,0
2026-01-30 21:58:59,1674124,1497.000,-2048.000,8121.000,-197.000,144.000,182.000,NA,0.000,0
2026-01-30 21:58:59,1674164,1369.000,-1811.000,8056.000,199.000,216.000,262.000,NA,0.000,0
2026-01-30 21:58:59,1674204,1119.000,-1619.000,8071.000,-25.000,123.000,76.000,NA,0.000,0
2026-01-30 21:58:59,1674244,1236.000,-2291.000,8172.000,-569.000,-87.000,-28.000,NA,0.000,0
2026-01-30 21:59:00,1674284,1317.000,-2824.000,8136.000,-390.000,-73.000,-229.000,NA,0.000,0
2026-01-30 21:59:00,1674327,1313.000,-2528.000,7848.000,-75.000,-65.000,-342.000,NA,0.000,0
2026-01-30 21:59:00,1674364,1292.000,-2491.000,7724.000,-25.000,-75.000,-339.000,NA,0.000,0
2026-01-30 21:59:00,1674404,1410.000,-2181.000,8093.000,-114.000,-97.000,-80.000,NA,0.000,0
2026-01-30 21:59:00,1674444,1336.000,-2710.000,8155.000,-283.000,49.000,158.000,NA,0.000,0
2026-01-30 21:59:00,1674484,1136.000,-2751.000,8233.000,140.000,220.000,146.000,NA,0.000,0
2026-01-30 21:59:00,1674524,950.000,-2366.000,8053.000,261.000,115.000,121.000,NA,0.000,0
2026-01-30 21:59:00,1674564,966.000,-2260.000,7878.000,-43.000,-102.000,-21.000,NA,0.000,0
2026-01-30 21:59:00,1674604,1116.000,-2080.000,8248.000,-91.000,-81.000,-39.000,NA,0.000,0
2026-01-30 21:59:00,1674644,1118.000,-2644.000,8178.000,-239.000,22.000,-69.000,NA,0.000,0
2026-01-30 21:59:00,1674684,984.000,-2410.000,7973.000,285.000,131.000,-248.000,NA,0.000,0
2026-01-30 21:59:00,1674724,941.000,-2106.000,8082.000,-61.000,-45.000,-88.000,NA,0.000,0
2026-01-30 21:59:00,1674764,1184.000,-2621.000,8180.000,-389.000,-152.000,-20.000,NA,0.000,0
2026-01-30 21:59:00,1674804,1332.000,-2735.000,8159.000,-125.000,-82.000,-124.000,NA,0.000,0
2026-01-30 21:59:00,1674844,1283.000,-2509.000,8096.000,-36.000,-84.000,-64.000,NA,0.000,0
2026-01-30 21:59:00,1674884,1119.000,-2633.000,7899.000,-137.000,-89.000,-86.000,NA,0.000,0
2026-01-30 21:59:00,1674924,1115.000,-2656.000,8161.000,-253.000,-117.000,-47.000,NA,0.000,0
2026-01-30 21:59:00,1674964,1104.000,-2862.000,7970.000,-20.000,-15.000,-64.000,NA,0.000,0
2026-01-30 21:59:00,1675004,1118.000,-2630.000,8178.000,16.000,-4.000,38.000,NA,0.000,0
2026-01-30 21:59:00,1675044,1120.000,-2903.000,7920.000,-34.000,-4.000,16.000,NA,0.000,0
2026-01-30 21:59:00,1675084,1181.000,-2647.000,8039.000,178.000,53.000,-32.000,NA,0.000,0
2026-01-30 21:59:00,1675124,1207.000,-2861.000,8151.000,22.000,98.000,52.000,NA,0.000,0
2026-01-30 21:59:00,1675164,1130.000,-2795.000,8076.000,394.000,276.000,-36.000,NA,0.000,0
2026-01-30 21:59:00,1675204,989.000,-2452.000,8059.000,489.000,359.000,-20.000,NA,0.000,0
2026-01-30 21:59:00,1675244,870.000,-2400.000,8097.000,398.000,352.000,83.000,NA,0.000,0
2026-01-30 21:59:01,1675284,963.000,-2227.000,8562.000,185.000,267.000,128.000,NA,0.000,0
2026-01-30 21:59:01,1675324,855.000,-2916.000,7912.000,294.000,180.000,-177.000,NA,0.000,0
2026-01-30 21:59:01,1675364,918.000,-2130.000,7859.000,316.000,-60.000,-218.000,NA,0.000,0
2026-01-30 21:59:01,1675404,1001.000,-2167.000,7934.000,-343.000,-117.000,-39.000,NA,0.000,0
2026-01-30 21:59:01,1675444,1119.000,-2996.000,8501.000,-596.000,29.000,-35.000,NA,0.000,0
2026-01-30 21:59:01,1675484,1069.000,-3403.000,8467.000,-194.000,132.000,35.000,NA,0.000,0
2026-01-30 21:59:01,1675524,814.000,-2667.000,7752.000,469.000,164.000,-74.000,NA,0.000,0
2026-01-30 21:59:01,1675564,736.000,-2186.000,7776.000,74.000,-34.000,-8.000,NA,0.000,0
2026-01-30 21:59:01,1675604,651.000,-2774.000,8228.000,-643.000,-162.000,203.000,NA,0.000,0
2026-01-30 21:59:01,1675644,568.000,-3058.000,8184.000,-234.000,-9.000,205.000,NA,0.000,0
2026-01-30 21:59:01,1675684,484.000,-2493.000,8189.000,281.000,87.000,115.000,NA,0.000,0
2026-01-30 21:59:01,1675724,698.000,-3129.000,8294.000,-527.000,-239.000,146.000,NA,0.000,0
2026-01-30 21:59:01,1675764,1140.000,-3081.000,8351.000,-255.000,-336.000,-174.000,NA,0.000,0
2026-01-30 21:59:01,1675804,1313.000,-3618.000,7815.000,-367.000,-321.000,-326.000,NA,0.000,0
2026-01-30 21:59:01,1675844,1221.000,-3578.000,7331.000,98.000,-313.000,-537.000,NA,0.000,0
2026-01-30 21:59:01,1675884,1083.000,-2779.000,7319.000,127.000,-346.000,-420.000,NA,0.000,0
2026-01-30 21:59:01,1675924,1151.000,-2871.000,8116.000,-337.000,-243.000,106.000,NA,0.000,0
2026-01-30 21:59:01,1675964,1161.000,-3974.000,8062.000,-81.000,182.000,373.000,NA,0.000,0
2026-01-30 21:59:01,1676004,985.000,-3199.000,7833.000,1054.000,485.000,384.000,NA,0.000,0
2026-01-30 21:59:01,1676044,710.000,-2530.000,7864.000,775.000,253.000,585.000,NA,0.000,0
2026-01-30 21:59:01,1676084,1192.000,-3001.000,7785.000,37.000,-263.000,1.000,NA,0.000,0
2026-01-30 21:59:01,1676126,1116.000,-3050.000,6805.000,464.000,-162.000,-437.000,NA,0.000,0
2026-01-30 21:59:01,1676165,1136.000,-1691.000,7488.000,585.000,-51.000,-171.000,NA,0.000,0
2026-01-30 21:59:01,1676204,1151.000,-2203.000,8851.000,-1086.000,274.000,245.000,NA,0.000,0
2026-01-30 21:59:01,1676244,952.000,-4696.000,8827.000,-1065.000,471.000,70.000,NA,0.000,0
2026-01-30 21:59:02,1676284,474.000,-3322.000,8129.000,1154.000,230.000,128.000,NA,0.000,0
2026-01-30 21:59:02,1676326,366.000,-1237.000,7347.000,159.000,-670.000,307.000,NA,0.000,0
2026-01-30 21:59:02,1676364,709.000,-1055.000,7692.000,-499.000,-828.000,359.000,NA,0.000,0
2026-01-30 21:59:02,1676404,1100.000,-2730.000,8409.000,-1778.000,-339.000,391.000,NA,0.000,0
2026-01-30 21:59:02,1676444,1028.000,-4367.000,8805.000,-930.000,353.000,343.000,NA,0.000,0
2026-01-30 21:59:02,1676484,503.000,-3179.000,8505.000,1084.000,614.000,44.000,NA,0.000,0
2026-01-30 21:59:02,1676524,379.000,-2720.000,7790.000,551.000,43.000,-384.000,NA,0.000,0
2026-01-30 21:59:02,1676564,763.000,-2692.000,7420.000,-100.000,-453.000,-436.000,NA,0.000,0
2026-01-30 21:59:02,1676604,1190.000,-3085.000,8116.000,-569.000,-346.000,-172.000,NA,0.000,0
2026-01-30 21:59:02,1676644,1083.000,-4056.000,8855.000,-510.000,140.000,171.000,NA,0.000,0
2026-01-30 21:59:02,1676684,787.000,-3841.000,8821.000,644.000,420.000,137.000,NA,0.000,0
2026-01-30 21:59:02,1676724,388.000,-2850.000,7731.000,1071.000,172.000,80.000,NA,0.000,0
2026-01-30 21:59:02,1676764,519.000,-1951.000,7189.000,743.000,-393.000,39.000,NA,0.000,0
2026-01-30 21:59:02,1676804,850.000,-1964.000,7251.000,-346.000,-677.000,69.000,NA,0.000,0
2026-01-30 21:59:02,1676844,1036.000,-3633.000,7763.000,-1090.000,-82.000,-72.000,NA,0.000,0
2026-01-30 21:59:02,1676884,1043.000,-3625.000,8534.000,-225.000,262.000,-3.000,NA,0.000,0
2026-01-30 21:59:02,1676924,798.000,-3372.000,8605.000,54.000,262.000,56.000,NA,0.000,0
2026-01-30 21:59:02,1676964,878.000,-2911.000,8048.000,446.000,-32.000,-86.000,NA,0.000,0
2026-01-30 21:59:02,1677004,764.000,-2613.000,7616.000,179.000,-291.000,-73.000,NA,0.000,0
2026-01-30 21:59:02,1677044,962.000,-2748.000,8420.000,-806.000,-500.000,354.000,NA,0.000,0
2026-01-30 21:59:02,1677084,974.000,-4042.000,7822.000,-560.000,-306.000,-18.000,NA,0.000,0
2026-01-30 21:59:02,1677124,1065.000,-2870.000,7928.000,213.000,-164.000,-52.000,NA,0.000,0
2026-01-30 21:59:02,1677164,1160.000,-3272.000,8155.000,-423.000,-307.000,215.000,NA,0.000,0
2026-01-30 21:59:02,1677204,1390.000,-3691.000,7925.000,-210.000,-286.000,-78.000,NA,0.000,0
2026-01-30 21:59:02,1677244,1260.000,-3286.000,7130.000,170.000,-375.000,-246.000,NA,0.000,0
2026-01-30 21:59:03,1677284,1532.000,-2854.000,7804.000,-412.000,-575.000,39.000,NA,0.000,0
2026-01-30 21:59:03,1677324,1864.000,-4432.000,8232.000,-1356.000,-380.000,181.000,NA,0.000,0
2026-01-30 21:59:03,1677364,1820.000,-5212.000,7551.000,-69.000,-63.000,-181.000,NA,0.000,0
2026-01-30 21:59:03,1677404,1632.000,-3450.000,7275.000,979.000,-170.000,-153.000,NA,0.000,0
2026-01-30 21:59:03,1677444,1666.000,-2728.000,7787.000,-81.000,-425.000,346.000,NA,0.000,0
2026-01-30 21:59:03,1677484,1795.000,-4415.000,7576.000,-634.000,-125.000,288.000,NA,0.000,0
2026-01-30 21:59:03,1677524,1624.000,-3945.000,7516.000,674.000,453.000,331.000,NA,0.000,0
2026-01-30 21:59:03,1677564,1130.000,-3459.000,7525.000,873.000,609.000,575.000,NA,0.000,0
2026-01-30 21:59:03,1677604,1011.000,-3148.000,7697.000,709.000,441.000,470.000,NA,0.000,0
2026-01-30 21:59:03,1677644,815.000,-3183.000,7541.000,659.000,553.000,216.000,NA,0.000,0
2026-01-30 21:59:03,1677684,835.000,-2750.000,8422.000,286.000,573.000,548.000,NA,0.000,0
2026-01-30 21:59:03,1677724,477.000,-4003.000,8574.000,117.000,915.000,572.000,NA,0.000,0
2026-01-30 21:59:03,1677764,-3.000,-3557.000,7727.000,1578.000,1014.000,68.000,NA,0.000,0
2026-01-30 21:59:03,1677804,-147.000,-1889.000,7974.000,1583.000,667.000,16.000,NA,0.000,0
2026-01-30 21:59:03,1677844,-152.000,-2057.000,8820.000,-307.000,110.000,384.000,NA,0.000,0
2026-01-30 21:59:03,1677884,123.000,-3928.000,8653.000,-483.000,-141.000,21.000,NA,0.000,0
2026-01-30 21:59:03,1677924,-43.000,-3070.000,7883.000,769.000,-29.000,-255.000,NA,0.000,0
2026-01-30 21:59:03,1677964,-67.000,-2026.000,7173.000,823.000,-493.000,-145.000,NA,0.000,0
2026-01-30 21:59:03,1678004,510.000,-2814.000,7908.000,-1495.000,-681.000,-39.000,NA,0.000,0
2026-01-30 21:59:03,1678044,595.000,-4339.000,7652.000,-881.000,-385.000,-322.000,NA,0.000,0
2026-01-30 21:59:03,1678084,718.000,-2894.000,7529.000,737.000,-269.000,-361.000,NA,0.000,0
2026-01-30 21:59:03,1678124,921.000,-1863.000,8147.000,-206.000,-363.000,-28.000,NA,0.000,0
2026-01-30 21:59:03,1678164,877.000,-4235.000,8074.000,-1042.000,-169.000,-169.000,NA,0.000,0
2026-01-30 21:59:03,1678204,554.000,-3488.000,7441.000,915.000,78.000,-274.000,NA,0.000,0
2026-01-30 21:59:03,1678244,346.000,-1345.000,7682.000,903.000,61.000,225.000,NA,0.000,0
2026-01-30 21:59:04,1678284,599.000,-1983.000,8407.000,-1189.000,13.000,530.000,NA,0.000,0
2026-01-30 21:59:04,1678326,956.000,-4769.000,8786.000,-971.000,158.000,71.000,NA,0.000,0
2026-01-30 21:59:04,1678364,431.000,-3129.000,8281.000,29.000,277.000,-107.000,NA,0.000,0
2026-01-30 21:59:04,1678404,727.000,-1596.000,8669.000,88.000,-241.000,-19.000,NA,0.000,0
2026-01-30 21:59:04,1678444,885.000,-3872.000,8447.000,-1324.000,-279.000,-172.000,NA,0.000,0
2026-01-30 21:59:04,1678484,1005.000,-4028.000,8464.000,-238.000,-108.000,-347.000,NA,0.000,0
2026-01-30 21:59:04,1678524,692.000,-3205.000,8515.000,233.000,-79.000,25.000,NA,0.000,0
2026-01-30 21:59:04,1678564,595.000,-2691.000,7858.000,348.000,-92.000,-127.000,NA,0.000,0
2026-01-30 21:59:04,1678604,757.000,-2431.000,7786.000,68.000,-216.000,-140.000,NA,0.000,0
2026-01-30 21:59:04,1678644,887.000,-2951.000,7781.000,-473.000,-225.000,113.000,NA,0.000,0
2026-01-30 21:59:04,1678684,791.000,-3024.000,7571.000,319.000,110.000,-201.000,NA,0.000,0
2026-01-30 21:59:04,1678724,759.000,-2101.000,8370.000,128.000,157.000,-48.000,NA,0.000,0
2026-01-30 21:59:04,1678764,732.000,-3469.000,8386.000,33.000,294.000,-90.000,NA,0.000,0
2026-01-30 21:59:04,1678804,389.000,-2501.000,8245.000,977.000,264.000,-238.000,NA,0.000,0
2026-01-30 21:59:04,1678844,187.000,-2020.000,7840.000,431.000,-46.000,19.000,NA,0.000,0
2026-01-30 21:59:04,1678884,653.000,-1678.000,8044.000,-20.000,-271.000,-85.000,NA,0.000,0
2026-01-30 21:59:04,1678924,1010.000,-2900.000,8630.000,-1134.000,-183.000,79.000,NA,0.000,0
2026-01-30 21:59:04,1678964,1015.000,-3839.000,8038.000,56.000,26.000,-321.000,NA,0.000,0
2026-01-30 21:59:04,1679004,664.000,-2241.000,7685.000,1102.000,58.000,-480.000,NA,0.000,0
2026-01-30 21:59:04,1679044,732.000,-1533.000,7999.000,81.000,-234.000,-125.000,NA,0.000,0
2026-01-30 21:59:04,1679084,1223.000,-2602.000,8998.000,-1355.000,-247.000,202.000,NA,0.000,0
2026-01-30 21:59:04,1679124,1029.000,-3483.000,6916.000,-571.000,-54.000,-130.000,NA,0.000,0
2026-01-30 21:59:04,1679164,1253.000,-1234.000,7967.000,622.000,-242.000,-60.000,NA,0.000,0
2026-01-30 21:59:04,1679204,688.000,-3778.000,8424.000,-1712.000,-482.000,-36.000,NA,0.000,0
2026-01-30 21:59:04,1679244,1193.000,-3586.000,8589.000,-45.000,-153.000,-332.000,NA,0.000,0
2026-01-30 21:59:05,1679284,1724.000,-2304.000,9029.000,241.000,52.000,100.000,NA,0.000,0
2026-01-30 21:59:05,1679324,969.000,-3226.000,5919.000,1081.000,145.000,-144.000,NA,0.000,0
2026-01-30 21:59:05,1679364,1067.000,-912.000,5907.000,2647.000,-406.000,-801.000,NA,0.000,0
2026-01-30 21:59:05,1679404,1887.000,1814.000,8579.000,-427.000,-692.000,561.000,NA,0.000,0
2026-01-30 21:59:05,1679444,1979.000,-3315.000,9393.000,-4716.000,737.000,912.000,NA,0.000,0
2026-01-30 21:59:05,1679484,1448.000,-7035.000,9234.000,-1510.000,1421.000,118.000,NA,0.000,0
2026-01-30 21:59:05,1679524,-530.000,-2341.000,8595.000,3933.000,1328.000,-342.000,NA,0.000,0
2026-01-30 21:59:05,1679564,-544.000,56.000,7851.000,2952.000,21.000,-359.000,NA,0.000,0
2026-01-30 21:59:05,1679604,424.000,-356.000,7090.000,418.000,-676.000,-321.000,NA,0.000,0
2026-01-30 21:59:05,1679644,545.000,-2327.000,6646.000,-607.000,-475.000,-288.000,NA,0.000,0
2026-01-30 21:59:05,1679684,934.000,-1249.000,7796.000,185.000,-435.000,207.000,NA,0.000,0
2026-01-30 21:59:05,1679724,786.000,-2020.000,7279.000,-263.000,-10.000,118.000,NA,0.000,0
2026-01-30 21:59:05,1679764,735.000,-1965.000,6437.000,853.000,70.000,-695.000,NA,0.000,0
2026-01-30 21:59:05,1679804,1057.000,-638.000,7054.000,531.000,-278.000,-191.000,NA,0.000,0
2026-01-30 21:59:05,1679844,1413.000,28.000,8656.000,-1708.000,-149.000,465.000,NA,0.000,0
2026-01-30 21:59:05,1679884,1581.000,-5704.000,9535.000,-3766.000,202.000,344.000,NA,0.000,0
2026-01-30 21:59:05,1679924,831.000,-4867.000,7973.000,1114.000,778.000,-594.000,NA,0.000,0
2026-01-30 21:59:05,1679964,1045.000,-266.000,9442.000,1446.000,-74.000,-31.000,NA,0.000,0
2026-01-30 21:59:05,1680004,1139.000,-2015.000,9557.000,-2038.000,-318.000,322.000,NA,0.000,0
2026-01-30 21:59:05,1680044,1345.000,-4847.000,8922.000,-1355.000,-144.000,-456.000,NA,0.000,0
2026-01-30 21:59:05,1680084,1306.000,-4043.000,8769.000,382.000,87.000,-14.000,NA,0.000,0
2026-01-30 21:59:05,1680127,660.000,-1855.000,7774.000,714.000,-180.000,-176.000,NA,0.000,0
2026-01-30 21:59:05,1680166,628.000,-2018.000,7611.000,209.000,-280.000,-324.000,NA,0.000,0
2026-01-30 21:59:05,1680204,911.000,-2759.000,7297.000,-455.000,-444.000,-165.000,NA,0.000,0
2026-01-30 21:59:05,1680244,867.000,-2574.000,7151.000,212.000,-320.000,-27.000,NA,0.000,0
2026-01-30 21:59:06,1680284,1141.000,-2453.000,7980.000,-452.000,51.000,30.000,NA,0.000,0
2026-01-30 21:59:06,1680326,929.000,-3216.000,7334.000,525.000,167.000,-268.000,NA,0.000,0
2026-01-30 21:59:06,1680364,1168.000,-2100.000,7545.000,839.000,-71.000,-222.000,NA,0.000,0
2026-01-30 21:59:06,1680404,1525.000,-2198.000,8084.000,-494.000,-331.000,213.000,NA,0.000,0
2026-01-30 21:59:06,1680444,1740.000,-3616.000,8231.000,-699.000,-154.000,-17.000,NA,0.000,0
2026-01-30 21:59:06,1680484,1605.000,-3612.000,7921.000,67.000,105.000,-117.000,NA,0.000,0
2026-01-30 21:59:06,1680524,1422.000,-2510.000,8156.000,439.000,103.000,112.000,NA,0.000,0
2026-01-30 21:59:06,1680564,1366.000,-2885.000,8165.000,-126.000,93.000,158.000,NA,0.000,0
2026-01-30 21:59:06,1680604,1524.000,-2917.000,8622.000,-132.000,144.000,165.000,NA,0.000,0
2026-01-30 21:59:06,1680644,1143.000,-2741.000,8126.000,253.000,376.000,185.000,NA,0.000,0
2026-01-30 21:59:06,1680684,999.000,-2134.000,8414.000,238.000,157.000,211.000,NA,0.000,0
2026-01-30 21:59:06,1680724,898.000,-2961.000,8105.000,-34.000,103.000,54.000,NA,0.000,0
2026-01-30 21:59:06,1680764,1015.000,-2579.000,8121.000,370.000,95.000,-95.000,NA,0.000,0
2026-01-30 21:59:06,1680804,886.000,-2526.000,7758.000,361.000,111.000,-73.000,NA,0.000,0
2026-01-30 21:59:06,1680844,765.000,-2002.000,7571.000,680.000,94.000,-176.000,NA,0.000,0
2026-01-30 21:59:06,1680884,995.000,-1704.000,8008.000,109.000,20.000,6.000,NA,0.000,0
2026-01-30 21:59:06,1680924,775.000,-2926.000,8088.000,-444.000,222.000,178.000,NA,0.000,0
2026-01-30 21:59:06,1680964,713.000,-2510.000,7982.000,526.000,250.000,-51.000,NA,0.000,0
2026-01-30 21:59:06,1681004,869.000,-1847.000,8378.000,4.000,-62.000,139.000,NA,0.000,0
2026-01-30 21:59:06,1681044,1051.000,-2255.000,8183.000,75.000,-195.000,-214.000,NA,0.000,0
2026-01-30 21:59:06,1681084,1168.000,-2630.000,8080.000,-518.000,-195.000,-81.000,NA,0.000,0
2026-01-30 21:59:06,1681124,1128.000,-2667.000,7912.000,163.000,-170.000,-300.000,NA,0.000,0
2026-01-30 21:59:06,1681164,1245.000,-2105.000,8033.000,-45.000,-244.000,-144.000,NA,0.000,0
2026-01-30 21:59:06,1681204,1326.000,-2540.000,8015.000,-237.000,-151.000,-71.000,NA,0.000,0
2026-01-30 21:59:06,1681244,1348.000,-2607.000,8210.000,-104.000,-73.000,90.000,NA,0.000,0
2026-01-30 21:59:07,1681284,1359.000,-2348.000,8117.000,174.000,-18.000,100.000,NA,0.000,0
2026-01-30 21:59:07,1681324,1622.000,-2185.000,8725.000,-55.000,-85.000,208.000,NA,0.000,0
2026-01-30 21:59:07,1681364,1495.000,-2455.000,7846.000,443.000,-86.000,3.000,NA,0.000,0
2026-01-30 21:59:07,1681404,1907.000,-1369.000,8653.000,566.000,-314.000,19.000,NA,0.000,0
2026-01-30 21:59:07,1681444,2205.000,-2200.000,8055.000,-129.000,-274.000,-92.000,NA,0.000,0
2026-01-30 21:59:07,1681484,2179.000,-2011.000,7823.000,218.000,-159.000,-303.000,NA,0.000,0
2026-01-30 21:59:07,1681524,1946.000,-1793.000,7704.000,92.000,-189.000,-225.000,NA,0.000,0
2026-01-30 21:59:07,1681564,2145.000,-1646.000,8074.000,-388.000,-342.000,-33.000,NA,0.000,0
2026-01-30 21:59:07,1681604,2268.000,-2375.000,8046.000,-493.000,-178.000,-58.000,NA,0.000,0
2026-01-30 21:59:07,1681644,2603.000,-2098.000,8117.000,125.000,-124.000,10.000,NA,0.000,0
2026-01-30 21:59:07,1681684,2053.000,-1884.000,7110.000,498.000,-7.000,-101.000,NA,0.000,0
2026-01-30 21:59:07,1681724,2235.000,-901.000,7934.000,-86.000,-257.000,127.000,NA,0.000,0
2026-01-30 21:59:07,1681764,2410.000,-2438.000,8488.000,-1418.000,-140.000,315.000,NA,0.000,0
2026-01-30 21:59:07,1681804,2183.000,-3178.000,8172.000,298.000,551.000,-44.000,NA,0.000,0
2026-01-30 21:59:07,1681844,1504.000,-1965.000,7716.000,925.000,499.000,-135.000,NA,0.000,0
2026-01-30 21:59:07,1681884,1404.000,-1227.000,7966.000,449.000,-84.000,84.000,NA,0.000,0
2026-01-30 21:59:07,1681924,1926.000,-1686.000,7562.000,-490.000,-473.000,150.000,NA,0.000,0
2026-01-30 21:59:07,1681964,2059.000,-2468.000,7607.000,-454.000,-157.000,0.000,NA,0.000,0
2026-01-30 21:59:07,1682004,1865.000,-2801.000,8060.000,-387.000,102.000,177.000,NA,0.000,0
2026-01-30 21:59:07,1682044,1865.000,-2802.000,8223.000,-112.000,126.000,91.000,NA,0.000,0
2026-01-30 21:59:07,1682084,1578.000,-3057.000,8109.000,5.000,102.000,-9.000,NA,0.000,0
2026-01-30 21:59:07,1682125,1543.000,-2646.000,8066.000,139.000,12.000,32.000,NA,0.000,0
2026-01-30 21:59:07,1682164,1614.000,-2395.000,7988.000,28.000,-149.000,175.000,NA,0.000,0
2026-01-30 21:59:07,1682205,1786.000,-2850.000,7905.000,-203.000,-149.000,98.000,NA,0.000,0
2026-01-30 21:59:07,1682244,1580.000,-2715.000,7858.000,102.000,13.000,170.000,NA,0.000,0
2026-01-30 21:59:08,1682284,1596.000,-2282.000,7961.000,245.000,40.000,70.000,NA,0.000,0
2026-01-30 21:59:08,1682329,1476.000,-2975.000,7459.000,127.000,16.000,-88.000,NA,0.000,0
2026-01-30 21:59:08,1682367,1709.000,-1968.000,8033.000,259.000,-137.000,39.000,NA,0.000,0
2026-01-30 21:59:08,1682404,1840.000,-2235.000,8182.000,-311.000,-159.000,228.000,NA,0.000,0
2026-01-30 21:59:08,1682444,1997.000,-3344.000,8081.000,-289.000,17.000,59.000,NA,0.000,0
2026-01-30 21:59:08,1682484,1641.000,-2928.000,7695.000,570.000,199.000,-112.000,NA,0.000,0
2026-01-30 21:59:08,1682524,1484.000,-1888.000,7581.000,600.000,5.000,36.000,NA,0.000,0
2026-01-30 21:59:08,1682564,1886.000,-2958.000,8250.000,-799.000,12.000,262.000,NA,0.000,0
2026-01-30 21:59:08,1682604,1843.000,-3426.000,8206.000,131.000,303.000,-23.000,NA,0.000,0
2026-01-30 21:59:08,1682644,1387.000,-2424.000,7940.000,782.000,326.000,55.000,NA,0.000,0
2026-01-30 21:59:08,1682684,1341.000,-1712.000,7755.000,509.000,46.000,1.000,NA,0.000,0
2026-01-30 21:59:08,1682724,1481.000,-2168.000,7906.000,-316.000,9.000,136.000,NA,0.000,0
2026-01-30 21:59:08,1682764,1474.000,-2590.000,8269.000,57.000,230.000,141.000,NA,0.000,0
2026-01-30 21:59:08,1682804,1299.000,-2661.000,8161.000,321.000,357.000,180.000,NA,0.000,0
2026-01-30 21:59:08,1682844,1037.000,-2009.000,7927.000,698.000,278.000,-42.000,NA,0.000,0
2026-01-30 21:59:08,1682884,988.000,-1873.000,7836.000,209.000,8.000,41.000,NA,0.000,0
2026-01-30 21:59:08,1682924,1184.000,-1900.000,8140.000,-5.000,-55.000,-9.000,NA,0.000,0
2026-01-30 21:59:08,1682964,1226.000,-2573.000,8073.000,-73.000,101.000,28.000,NA,0.000,0
2026-01-30 21:59:08,1683004,1134.000,-1799.000,7932.000,562.000,51.000,-179.000,NA,0.000,0
2026-01-30 21:59:08,1683044,1231.000,-1921.000,7841.000,-231.000,-206.000,5.000,NA,0.000,0
2026-01-30 21:59:08,1683084,1450.000,-2259.000,8079.000,-367.000,-228.000,-53.000,NA,0.000,0
2026-01-30 21:59:08,1683124,1414.000,-2567.000,8250.000,-239.000,-90.000,-41.000,NA,0.000,0
2026-01-30 21:59:08,1683164,1463.000,-2273.000,8579.000,-64.000,-46.000,97.000,NA,0.000,0
2026-01-30 21:59:08,1683204,1164.000,-2496.000,7497.000,263.000,10.000,-148.000,NA,0.000,0
2026-01-30 21:59:08,1683244,1443.000,-1214.000,7785.000,324.000,-237.000,-55.000,NA,0.000,0
2026-01-30 21:59:09,1683284,1522.000,-2272.000,7850.000,-864.000,-209.000,156.000,NA,0.000,0
2026-01-30 21:59:09,1683324,1684.000,-3245.000,8913.000,-417.000,322.000,39.000,NA,0.000,0
2026-01-30 21:59:09,1683364,1227.000,-2842.000,8209.000,784.000,358.000,-227.000,NA,0.000,0
2026-01-30 21:59:09,1683404,1109.000,-1859.000,7690.000,774.000,-54.000,-242.000,NA,0.000,0
2026-01-30 21:59:09,1683444,1210.000,-1327.000,7536.000,259.000,-323.000,-65.000,NA,0.000,0
2026-01-30 21:59:09,1683484,1386.000,-1934.000,7745.000,-281.000,-150.000,62.000,NA,0.000,0
2026-01-30 21:59:09,1683524,1300.000,-2166.000,7541.000,304.000,187.000,-87.000,NA,0.000,0
2026-01-30 21:59:09,1683564,1179.000,-1550.000,7827.000,441.000,230.000,92.000,NA,0.000,0
2026-01-30 21:59:09,1683604,1071.000,-1408.000,7701.000,348.000,119.000,17.000,NA,0.000,0
2026-01-30 21:59:09,1683644,1437.000,-1615.000,8487.000,-454.000,19.000,164.000,NA,0.000,0
2026-01-30 21:59:09,1683684,1550.000,-2773.000,8362.000,-416.000,87.000,-25.000,NA,0.000,0
2026-01-30 21:59:09,1683724,1541.000,-1990.000,8538.000,285.000,4.000,-98.000,NA,0.000,0
2026-01-30 21:59:09,1683764,1701.000,-1964.000,8534.000,-245.000,-264.000,-68.000,NA,0.000,0
2026-01-30 21:59:09,1683804,1905.000,-2777.000,8317.000,-577.000,-291.000,-85.000,NA,0.000,0
2026-01-30 21:59:09,1683844,1824.000,-2453.000,8060.000,60.000,-87.000,-141.000,NA,0.000,0
2026-01-30 21:59:09,1683884,1585.000,-2005.000,8038.000,29.000,-28.000,26.000,NA,0.000,0
2026-01-30 21:59:09,1683924,1680.000,-1946.000,8350.000,-345.000,-98.000,161.000,NA,0.000,0
2026-01-30 21:59:09,1683964,1642.000,-2850.000,8316.000,-482.000,51.000,160.000,NA,0.000,0
2026-01-30 21:59:09,1684004,1489.000,-2453.000,8029.000,469.000,114.000,-29.000,NA,0.000,0
2026-01-30 21:59:09,1684044,1363.000,-1852.000,7660.000,370.000,-95.000,-24.000,NA,0.000,0
2026-01-30 21:59:09,1684084,1730.000,-1649.000,8059.000,145.000,-94.000,91.000,NA,0.000,0
2026-01-30 21:59:09,1684126,1648.000,-1780.000,7497.000,658.000,181.000,-93.000,NA,0.000,0
2026-01-30 21:59:09,1684165,1607.000,-905.000,7697.000,746.000,217.000,150.000,NA,0.000,0
2026-01-30 21:59:09,1684204,1718.000,-985.000,7864.000,219.000,83.000,171.000,NA,0.000,0
2026-01-30 21:59:09,1684244,2183.000,-1452.000,8673.000,-273.000,104.000,59.000,NA,0.000,0
2026-01-30 21:59:10,1684284,1766.000,-2487.000,8342.000,-86.000,400.000,-175.000,NA,0.000,0
2026-01-30 21:59:10,1684326,1605.000,-1370.000,8764.000,718.000,283.000,-167.000,NA,0.000,0
2026-01-30 21:59:10,1684364,1666.000,-912.000,8181.000,479.000,-65.000,-72.000,NA,0.000,0
2026-01-30 21:59:10,1684404,1887.000,-930.000,8106.000,14.000,-186.000,-56.000,NA,0.000,0
2026-01-30 21:59:10,1684444,2024.000,-1229.000,8274.000,-226.000,-181.000,-47.000,NA,0.000,0
2026-01-30 21:59:10,1684484,1895.000,-1395.000,8593.000,-210.000,2.000,-15.000,NA,0.000,0
2026-01-30 21:59:10,1684524,1521.000,-1629.000,8005.000,-34.000,55.000,-199.000,NA,0.000,0
2026-01-30 21:59:10,1684564,1393.000,-1005.000,7582.000,343.000,-157.000,-277.000,NA,0.000,0
2026-01-30 21:59:10,1684604,1460.000,-669.000,7750.000,-360.000,-305.000,-43.000,NA,0.000,0
2026-01-30 21:59:10,1684644,1710.000,-1525.000,8171.000,-995.000,-164.000,69.000,NA,0.000,0
2026-01-30 21:59:10,1684684,1652.000,-2277.000,8165.000,-464.000,153.000,-43.000,NA,0.000,0
2026-01-30 21:59:10,1684724,1456.000,-1605.000,8213.000,319.000,156.000,-18.000,NA,0.000,0
2026-01-30 21:59:10,1684764,1448.000,-1255.000,7966.000,87.000,-155.000,-11.000,NA,0.000,0
2026-01-30 21:59:10,1684804,1593.000,-1637.000,7786.000,-336.000,-262.000,-164.000,NA,0.000,0
2026-01-30 21:59:10,1684844,1834.000,-2152.000,8154.000,-392.000,-176.000,2.000,NA,0.000,0
2026-01-30 21:59:10,1684884,1732.000,-1695.000,8221.000,376.000,181.000,-106.000,NA,0.000,0
2026-01-30 21:59:10,1684924,1577.000,-1763.000,8326.000,-9.000,153.000,11.000,NA,0.000,0
2026-01-30 21:59:10,1684964,1364.000,-1950.000,7970.000,175.000,15.000,-59.000,NA,0.000,0
2026-01-30 21:59:10,1685004,1668.000,-1349.000,8531.000,-21.000,-135.000,118.000,NA,0.000,0
2026-01-30 21:59:10,1685044,1601.000,-2306.000,7871.000,-277.000,10.000,19.000,NA,0.000,0
2026-01-30 21:59:10,1685084,1624.000,-1441.000,8169.000,465.000,99.000,-219.000,NA,0.000,0
2026-01-30 21:59:10,1685124,1458.000,-1813.000,8095.000,-245.000,36.000,45.000,NA,0.000,0
2026-01-30 21:59:10,1685164,1607.000,-1780.000,8472.000,-25.000,-2.000,-85.000,NA,0.000,0
2026-01-30 21:59:10,1685204,1651.000,-2268.000,8604.000,-338.000,-42.000,52.000,NA,0.000,0
2026-01-30 21:59:10,1685244,1380.000,-1821.000,7311.000,759.000,-158.000,-366.000,NA,0.000,0
2026-01-30 21:59:11,1685284,1402.000,-875.000,7471.000,578.000,-335.000,-138.000,NA,0.000,0
2026-01-30 21:59:11,1685324,1656.000,-1357.000,8252.000,-903.000,-77.000,289.000,NA,0.000,0
2026-01-30 21:59:11,1685364,1809.000,-2508.000,8437.000,-515.000,281.000,65.000,NA,0.000,0
2026-01-30 21:59:11,1685404,1417.000,-2625.000,8072.000,537.000,460.000,-26.000,NA,0.000,0
2026-01-30 21:59:11,1685444,961.000,-1324.000,7005.000,1486.000,73.000,-358.000,NA,0.000,0
2026-01-30 21:59:11,1685484,1534.000,179.000,7753.000,665.000,-340.000,-85.000,NA,0.000,0
2026-01-30 21:59:11,1685524,1806.000,-927.000,9058.000,-1733.000,147.000,399.000,NA,0.000,0
2026-01-30 21:59:11,1685564,1793.000,-3923.000,8564.000,-1026.000,626.000,66.000,NA,0.000,0
2026-01-30 21:59:11,1685604,935.000,-1299.000,8448.000,1513.000,750.000,-80.000,NA,0.000,0
2026-01-30 21:59:11,1685644,1082.000,-374.000,7866.000,631.000,-210.000,-139.000,NA,0.000,0
2026-01-30 21:59:11,1685684,1838.000,-1185.000,8990.000,-1595.000,-356.000,165.000,NA,0.000,0
2026-01-30 21:59:11,1685724,1773.000,-3931.000,8787.000,-1372.000,-118.000,-45.000,NA,0.000,0
2026-01-30 21:59:11,1685764,1563.000,-2532.000,8666.000,649.000,21.000,-149.000,NA,0.000,0
2026-01-30 21:59:11,1685804,1247.000,-1543.000,7411.000,707.000,-229.000,-262.000,NA,0.000,0
2026-01-30 21:59:11,1685844,1553.000,-1028.000,7430.000,12.000,-635.000,-230.000,NA,0.000,0
2026-01-30 21:59:11,1685884,1927.000,-1730.000,7933.000,-1391.000,-649.000,206.000,NA,0.000,0
2026-01-30 21:59:11,1685924,2077.000,-3130.000,8126.000,-1050.000,-76.000,141.000,NA,0.000,0
2026-01-30 21:59:11,1685964,1550.000,-2879.000,7821.000,653.000,361.000,-136.000,NA,0.000,0
2026-01-30 21:59:11,1686004,1470.000,-1078.000,7795.000,360.000,-163.000,195.000,NA,0.000,0
2026-01-30 21:59:11,1686044,1723.000,-1629.000,7406.000,-30.000,-207.000,97.000,NA,0.000,0
2026-01-30 21:59:11,1686084,1736.000,-1398.000,7547.000,510.000,54.000,-13.000,NA,0.000,0
2026-01-30 21:59:11,1686126,1945.000,-865.000,8705.000,90.000,147.000,364.000,NA,0.000,0
2026-01-30 21:59:11,1686165,1494.000,-2604.000,7559.000,219.000,426.000,-33.000,NA,0.000,0
2026-01-30 21:59:11,1686204,1789.000,-948.000,8569.000,1100.000,270.000,-220.000,NA,0.000,0
2026-01-30 21:59:11,1686244,1644.000,-1674.000,7686.000,137.000,4.000,-14.000,NA,0.000,0
2026-01-30 21:59:12,1686284,1902.000,-472.000,7724.000,1018.000,-180.000,-337.000,NA,0.000,0
2026-01-30 21:59:12,1686326,2198.000,-1726.000,8560.000,-1251.000,63.000,179.000,NA,0.000,0
2026-01-30 21:59:12,1686364,2204.000,-2341.000,8658.000,-893.000,109.000,36.000,NA,0.000,0
2026-01-30 21:59:12,1686404,1795.000,-2115.000,8543.000,-90.000,137.000,-75.000,NA,0.000,0
2026-01-30 21:59:12,1686444,1624.000,-1244.000,8112.000,-49.000,-228.000,-64.000,NA,0.000,0
2026-01-30 21:59:12,1686484,1925.000,-1506.000,8367.000,-1002.000,-372.000,147.000,NA,0.000,0
2026-01-30 21:59:12,1686524,1968.000,-2248.000,8323.000,-883.000,-206.000,154.000,NA,0.000,0
2026-01-30 21:59:12,1686564,1988.000,-2031.000,8662.000,-388.000,-56.000,189.000,NA,0.000,0
2026-01-30 21:59:12,1686604,1815.000,-2550.000,8319.000,-496.000,-51.000,187.000,NA,0.000,0
2026-01-30 21:59:12,1686644,1735.000,-2188.000,7946.000,49.000,-145.000,-49.000,NA,0.000,0
2026-01-30 21:59:12,1686684,1710.000,-1961.000,7719.000,-194.000,-259.000,-62.000,NA,0.000,0
2026-01-30 21:59:12,1686724,1831.000,-2215.000,7969.000,-669.000,-376.000,39.000,NA,0.000,0
2026-01-30 21:59:12,1686764,1924.000,-3297.000,7858.000,-335.000,-55.000,-52.000,NA,0.000,0
2026-01-30 21:59:12,1686804,1611.000,-2498.000,7202.000,777.000,69.000,-210.000,NA,0.000,0
2026-01-30 21:59:12,1686844,1482.000,-1568.000,7081.000,777.000,-132.000,-140.000,NA,0.000,0
2026-01-30 21:59:12,1686884,1823.000,-1110.000,7959.000,-409.000,-305.000,237.000,NA,0.000,0
2026-01-30 21:59:12,1686924,1978.000,-3094.000,8363.000,-1221.000,60.000,405.000,NA,0.000,0
2026-01-30 21:59:12,1686964,1773.000,-3578.000,7915.000,573.000,492.000,14.000,NA,0.000,0
2026-01-30 21:59:12,1687004,1353.000,-1719.000,8052.000,1431.000,377.000,13.000,NA,0.000,0
2026-01-30 21:59:12,1687044,1370.000,-1123.000,7984.000,247.000,-47.000,153.000,NA,0.000,0
2026-01-30 21:59:12,1687084,1730.000,-2301.000,8432.000,-797.000,-65.000,44.000,NA,0.000,0
2026-01-30 21:59:12,1687124,1614.000,-3268.000,8320.000,-352.000,120.000,37.000,NA,0.000,0
2026-01-30 21:59:12,1687164,1450.000,-1663.000,8266.000,932.000,71.000,-127.000,NA,0.000,0
2026-01-30 21:59:12,1687204,1428.000,-1879.000,7863.000,-154.000,-173.000,-30.000,NA,0.000,0
2026-01-30 21:59:12,1687244,1583.000,-2587.000,7633.000,-382.000,-336.000,-31.000,NA,0.000,0
2026-01-30 21:59:13,1687284,1856.000,-2215.000,7869.000,-227.000,-358.000,82.000,NA,0.000,0
2026-01-30 21:59:13,1687324,2118.000,-2394.000,8278.000,-632.000,-210.000,162.000,NA,0.000,0
2026-01-30 21:59:13,1687364,1811.000,-3287.000,7782.000,-206.000,43.000,-86.000,NA,0.000,0
2026-01-30 21:59:13,1687404,1682.000,-2092.000,8033.000,356.000,-3.000,30.000,NA,0.000,0
2026-01-30 21:59:13,1687444,1667.000,-2521.000,8093.000,-606.000,-250.000,256.000,NA,0.000,0
2026-01-30 21:59:13,1687484,1832.000,-2890.000,8137.000,-192.000,-187.000,32.000,NA,0.000,0
2026-01-30 21:59:13,1687524,1456.000,-2633.000,7632.000,479.000,52.000,13.000,NA,0.000,0
2026-01-30 21:59:13,1687564,1328.000,-1747.000,7671.000,715.000,24.000,23.000,NA,0.000,0
2026-01-30 21:59:13,1687604,1601.000,-1615.000,7658.000,16.000,-96.000,59.000,NA,0.000,0
2026-01-30 21:59:13,1687644,1559.000,-2368.000,7873.000,-199.000,98.000,57.000,NA,0.000,0
2026-01-30 21:59:13,1687684,1549.000,-2255.000,8144.000,173.000,266.000,40.000,NA,0.000,0
2026-01-30 21:59:13,1687724,1560.000,-2337.000,8345.000,97.000,288.000,-50.000,NA,0.000,0
2026-01-30 21:59:13,1687764,1639.000,-2509.000,8309.000,158.000,192.000,-139.000,NA,0.000,0
2026-01-30 21:59:13,1687804,1496.000,-2240.000,8195.000,361.000,205.000,-136.000,NA,0.000,0
2026-01-30 21:59:13,1687844,1230.000,-2015.000,8159.000,253.000,172.000,12.000,NA,0.000,0
2026-01-30 21:59:13,1687884,1632.000,-1925.000,8459.000,92.000,65.000,7.000,NA,0.000,0
2026-01-30 21:59:13,1687924,1355.000,-2786.000,7800.000,160.000,178.000,-59.000,NA,0.000,0
2026-01-30 21:59:13,1687964,1163.000,-1507.000,7875.000,867.000,222.000,-190.000,NA,0.000,0
2026-01-30 21:59:13,1688004,1222.000,-1333.000,8328.000,-182.000,100.000,172.000,NA,0.000,0
2026-01-30 21:59:13,1688044,1277.000,-2636.000,8536.000,-610.000,159.000,114.000,NA,0.000,0
2026-01-30 21:59:13,1688084,1286.000,-2690.000,8320.000,329.000,245.000,-82.000,NA,0.000,0
2026-01-30 21:59:13,1688127,1104.000,-1087.000,8131.000,449.000,-102.000,-72.000,NA,0.000,0
2026-01-30 21:59:13,1688166,1277.000,-1160.000,8254.000,-237.000,-220.000,56.000,NA,0.000,0
2026-01-30 21:59:13,1688204,1412.000,-2635.000,7962.000,-628.000,-67.000,-78.000,NA,0.000,0
2026-01-30 21:59:13,1688244,1176.000,-1956.000,7924.000,502.000,160.000,-183.000,NA,0.000,0
2026-01-30 21:59:14,1688284,1059.000,-1969.000,8435.000,-724.000,-17.000,201.000,NA,0.000,0
2026-01-30 21:59:14,1688326,1242.000,-2538.000,8421.000,16.000,-35.000,-122.000,NA,0.000,0
2026-01-30 21:59:14,1688364,1091.000,-2227.000,8259.000,232.000,-67.000,-123.000,NA,0.000,0
2026-01-30 21:59:14,1688404,1188.000,-1509.000,8080.000,156.000,-303.000,-102.000,NA,0.000,0
2026-01-30 21:59:14,1688444,1409.000,-2002.000,7761.000,-377.000,-327.000,-165.000,NA,0.000,0
2026-01-30 21:59:14,1688484,1553.000,-2002.000,7771.000,-116.000,-241.000,-208.000,NA,0.000,0
2026-01-30 21:59:14,1688524,1713.000,-1933.000,7920.000,-178.000,-216.000,-101.000,NA,0.000,0
2026-01-30 21:59:14,1688564,1813.000,-2247.000,8131.000,-291.000,-59.000,-92.000,NA,0.000,0
2026-01-30 21:59:14,1688604,1788.000,-2523.000,8110.000,32.000,-18.000,-139.000,NA,0.000,0
2026-01-30 21:59:14,1688644,2023.000,-1809.000,7896.000,354.000,-194.000,-11.000,NA,0.000,0
2026-01-30 21:59:14,1688684,1908.000,-1598.000,7189.000,785.000,-91.000,-273.000,NA,0.000,0
2026-01-30 21:59:14,1688724,1782.000,-741.000,7599.000,533.000,-52.000,52.000,NA,0.000,0
2026-01-30 21:59:14,1688764,2167.000,-966.000,8611.000,-655.000,62.000,328.000,NA,0.000,0
2026-01-30 21:59:14,1688804,1962.000,-3143.000,8372.000,-790.000,611.000,262.000,NA,0.000,0
2026-01-30 21:59:14,1688844,1598.000,-1975.000,8117.000,1764.000,800.000,-323.000,NA,0.000,0
2026-01-30 21:59:14,1688884,1202.000,-51.000,8056.000,1532.000,418.000,184.000,NA,0.000,0
2026-01-30 21:59:14,1688924,1639.000,428.000,8206.000,197.000,-84.000,177.000,NA,0.000,0
2026-01-30 21:59:14,1688964,2109.000,-1779.000,8796.000,-1492.000,35.000,180.000,NA,0.000,0
2026-01-30 21:59:14,1689004,2161.000,-2400.000,9004.000,-65.000,149.000,-5.000,NA,0.000,0
2026-01-30 21:59:14,1689044,1750.000,-909.000,8273.000,952.000,9.000,-392.000,NA,0.000,0
2026-01-30 21:59:14,1689084,1619.000,-705.000,7279.000,414.000,-262.000,-438.000,NA,0.000,0
2026-01-30 21:59:14,1689124,1819.000,-506.000,7122.000,73.000,-506.000,-225.000,NA,0.000,0
2026-01-30 21:59:14,1689164,2267.000,-451.000,7902.000,-914.000,-517.000,20.000,NA,0.000,0
2026-01-30 21:59:14,1689204,2637.000,-2059.000,8681.000,-1731.000,-183.000,147.000,NA,0.000,0
2026-01-30 21:59:14,1689244,2344.000,-3308.000,8401.000,-552.000,267.000,-81.000,NA,0.000,0
2026-01-30 21:59:15,1689284,1629.000,-1845.000,7949.000,1009.000,379.000,-82.000,NA,0.000,0
2026-01-30 21:59:15,1689324,1228.000,-594.000,6963.000,1157.000,-113.000,-180.000,NA,0.000,0
2026-01-30 21:59:15,1689364,1615.000,270.000,7440.000,35.000,-621.000,83.000,NA,0.000,0
2026-01-30 21:59:15,1689404,2422.000,-559.000,8727.000,-2112.000,-634.000,519.000,NA,0.000,0
2026-01-30 21:59:15,1689444,2871.000,-4118.000,8640.000,-979.000,420.000,128.000,NA,0.000,0
2026-01-30 21:59:15,1689484,1842.000,-2900.000,8617.000,1439.000,976.000,-191.000,NA,0.000,0
2026-01-30 21:59:15,1689524,1133.000,-1021.000,8379.000,1510.000,468.000,-226.000,NA,0.000,0
2026-01-30 21:59:15,1689564,1615.000,-617.000,8463.000,-250.000,-284.000,3.000,NA,0.000,0
2026-01-30 21:59:15,1689604,2248.000,-2311.000,8202.000,-1061.000,-386.000,136.000,NA,0.000,0
2026-01-30 21:59:15,1689644,2233.000,-2381.000,8076.000,162.000,32.000,101.000,NA,0.000,0
2026-01-30 21:59:15,1689684,2047.000,-1243.000,8416.000,528.000,214.000,139.000,NA,0.000,0
2026-01-30 21:59:15,1689724,1944.000,-1601.000,8240.000,-7.000,109.000,31.000,NA,0.000,0
2026-01-30 21:59:15,1689764,2181.000,-1533.000,8672.000,38.000,-18.000,50.000,NA,0.000,0
2026-01-30 21:59:15,1689804,1871.000,-1217.000,7858.000,668.000,-65.000,-167.000,NA,0.000,0
2026-01-30 21:59:15,1689844,2043.000,-783.000,7879.000,306.000,-282.000,4.000,NA,0.000,0
2026-01-30 21:59:15,1689884,2212.000,-811.000,7659.000,237.000,-381.000,18.000,NA,0.000,0
2026-01-30 21:59:15,1689924,2443.000,-679.000,7880.000,191.000,-207.000,-27.000,NA,0.000,0
2026-01-30 21:59:15,1689964,2408.000,-783.000,7341.000,380.000,-30.000,-122.000,NA,0.000,0
2026-01-30 21:59:15,1690004,2413.000,-385.000,7733.000,269.000,-31.000,-194.000,NA,0.000,0
2026-01-30 21:59:15,1690044,2436.000,-639.000,8161.000,-687.000,8.000,-64.000,NA,0.000,0
2026-01-30 21:59:15,1690084,2324.000,-1708.000,8492.000,-1177.000,168.000,-56.000,NA,0.000,0
2026-01-30 21:59:15,1690124,1958.000,-2239.000,8304.000,-410.000,286.000,-244.000,NA,0.000,0
2026-01-30 21:59:15,1690164,1705.000,-1506.000,8441.000,77.000,220.000,-106.000,NA,0.000,0
2026-01-30 21:59:15,1690204,1712.000,-1763.000,8478.000,-643.000,-113.000,156.000,NA,0.000,0
2026-01-30 21:59:15,1690244,1871.000,-2031.000,8090.000,-46.000,-60.000,21.000,NA,0.000,0
2026-01-30 21:59:16,1690284,1863.000,-1560.000,8389.000,56.000,-19.000,105.000,NA,0.000,0
2026-01-30 21:59:16,1690326,1784.000,-1886.000,8299.000,-261.000,-19.000,67.000,NA,0.000,0
2026-01-30 21:59:16,1690364,1689.000,-2154.000,8080.000,-161.000,5.000,-2.000,NA,0.000,0
2026-01-30 21:59:16,1690404,1564.000,-1645.000,8220.000,418.000,157.000,-61.000,NA,0.000,0
2026-01-30 21:59:16,1690444,1587.000,-1507.000,8517.000,-76.000,-6.000,133.000,NA,0.000,0
2026-01-30 21:59:16,1690484,1584.000,-2134.000,8361.000,-211.000,23.000,14.000,NA,0.000,0
2026-01-30 21:59:16,1690524,1378.000,-2339.000,7646.000,366.000,64.000,-200.000,NA,0.000,0
2026-01-30 21:59:16,1690564,1439.000,-901.000,7918.000,210.000,-221.000,-17.000,NA,0.000,0
2026-01-30 21:59:16,1690604,1770.000,-1671.000,7819.000,-593.000,-307.000,-83.000,NA,0.000,0
2026-01-30 21:59:16,1690644,1793.000,-2342.000,7808.000,-201.000,-39.000,-170.000,NA,0.000,0
2026-01-30 21:59:16,1690684,1557.000,-1569.000,7801.000,472.000,138.000,-51.000,NA,0.000,0
2026-01-30 21:59:16,1690724,1513.000,-1270.000,7967.000,-74.000,9.000,64.000,NA,0.000,0
2026-01-30 21:59:16,1690764,1675.000,-1810.000,8075.000,-385.000,-43.000,28.000,NA,0.000,0
2026-01-30 21:59:16,1690804,1815.000,-1992.000,8494.000,-354.000,20.000,153.000,NA,0.000,0
2026-01-30 21:59:16,1690844,1735.000,-2194.000,8542.000,-62.000,132.000,72.000,NA,0.000,0
2026-01-30 21:59:16,1690884,1628.000,-2166.000,8268.000,193.000,124.000,-147.000,NA,0.000,0
2026-01-30 21:59:16,1690924,1449.000,-1749.000,7890.000,231.000,-15.000,-260.000,NA,0.000,0
2026-01-30 21:59:16,1690964,1902.000,-2048.000,8209.000,-544.000,-295.000,16.000,NA,0.000,0
2026-01-30 21:59:16,1691004,1920.000,-2300.000,7925.000,-3.000,-25.000,-127.000,NA,0.000,0
2026-01-30 21:59:16,1691044,1758.000,-1798.000,7752.000,296.000,66.000,-92.000,NA,0.000,0
2026-01-30 21:59:16,1691084,1729.000,-1666.000,7925.000,-181.000,-52.000,113.000,NA,0.000,0
2026-01-30 21:59:16,1691124,1941.000,-2305.000,8259.000,-453.000,-40.000,132.000,NA,0.000,0
2026-01-30 21:59:16,1691164,2011.000,-2647.000,8331.000,-112.000,57.000,43.000,NA,0.000,0
2026-01-30 21:59:16,1691204,1829.000,-2224.000,8098.000,263.000,76.000,-24.000,NA,0.000,0
2026-01-30 21:59:16,1691244,1857.000,-1885.000,8040.000,114.000,-100.000,-87.000,NA,0.000,0
2026-01-30 21:59:17,1691284,1825.000,-2278.000,7706.000,-210.000,-171.000,-34.000,NA,0.000,0
2026-01-30 21:59:17,1691324,1920.000,-1707.000,7902.000,141.000,-85.000,40.000,NA,0.000,0
2026-01-30 21:59:17,1691364,1821.000,-2237.000,7825.000,-164.000,80.000,164.000,NA,0.000,0
2026-01-30 21:59:17,1691404,1814.000,-1987.000,8089.000,345.000,238.000,34.000,NA,0.000,0
2026-01-30 21:59:17,1691444,1620.000,-1968.000,7929.000,217.000,194.000,164.000,NA,0.000,0
2026-01-30 21:59:17,1691484,1651.000,-1645.000,8045.000,333.000,147.000,66.000,NA,0.000,0
2026-01-30 21:59:17,1691524,1667.000,-1952.000,8151.000,-62.000,77.000,99.000,NA,0.000,0
2026-01-30 21:59:17,1691564,1700.000,-1985.000,8277.000,162.000,68.000,-47.000,NA,0.000,0
2026-01-30 21:59:17,1691604,1762.000,-1995.000,8264.000,52.000,28.000,2.000,NA,0.000,0
2026-01-30 21:59:17,1691644,1719.000,-1831.000,8029.000,187.000,49.000,-110.000,NA,0.000,0
2026-01-30 21:59:17,1691684,1687.000,-1771.000,7968.000,70.000,6.000,-55.000,NA,0.000,0
2026-01-30 21:59:17,1691724,1780.000,-1920.000,8320.000,-215.000,46.000,98.000,NA,0.000,0
2026-01-30 21:59:17,1691764,1787.000,-2288.000,8457.000,-55.000,153.000,87.000,NA,0.000,0
2026-01-30 21:59:17,1691804,1542.000,-2107.000,8170.000,405.000,201.000,-78.000,NA,0.000,0
2026-01-30 21:59:17,1691844,1450.000,-1499.000,8186.000,275.000,-14.000,-72.000,NA,0.000,0
2026-01-30 21:59:17,1691884,1537.000,-1897.000,7989.000,-175.000,-143.000,5.000,NA,0.000,0
2026-01-30 21:59:17,1691924,1510.000,-1806.000,7759.000,377.000,21.000,-200.000,NA,0.000,0
2026-01-30 21:59:17,1691964,1509.000,-1248.000,7821.000,348.000,35.000,-41.000,NA,0.000,0
2026-01-30 21:59:17,1692004,1524.000,-1394.000,7884.000,-2.000,58.000,65.000,NA,0.000,0
2026-01-30 21:59:17,1692044,1672.000,-1595.000,8193.000,40.000,152.000,45.000,NA,0.000,0
2026-01-30 21:59:17,1692084,1545.000,-1548.000,8307.000,213.000,173.000,-17.000,NA,0.000,0
2026-01-30 21:59:17,1692126,1539.000,-1423.000,8487.000,118.000,65.000,11.000,NA,0.000,0
2026-01-30 21:59:17,1692165,1517.000,-1706.000,8334.000,103.000,69.000,-122.000,NA,0.000,0
2026-01-30 21:59:17,1692204,1485.000,-1370.000,8131.000,362.000,-20.000,-141.000,NA,0.000,0
2026-01-30 21:59:17,1692244,1744.000,-782.000,7940.000,383.000,-209.000,-37.000,NA,0.000,0
2026-01-30 21:59:18,1692284,2025.000,-846.000,8180.000,-103.000,-183.000,49.000,NA,0.000,0
2026-01-30 21:59:18,1692326,2207.000,-1427.000,8169.000,-22.000,14.000,-67.000,NA,0.000,0
2026-01-30 21:59:18,1692364,2164.000,-1207.000,8416.000,135.000,98.000,-18.000,NA,0.000,0
2026-01-30 21:59:18,1692404,2072.000,-976.000,8579.000,109.000,140.000,68.000,NA,0.000,0
2026-01-30 21:59:18,1692444,2110.000,-1071.000,8638.000,17.000,60.000,-2.000,NA,0.000,0
2026-01-30 21:59:18,1692484,2049.000,-983.000,8358.000,143.000,-52.000,-55.000,NA,0.000,0
2026-01-30 21:59:18,1692524,2038.000,-1081.000,8166.000,-50.000,-123.000,-121.000,NA,0.000,0
2026-01-30 21:59:18,1692564,1776.000,-1139.000,7633.000,-21.000,-76.000,-227.000,NA,0.000,0
2026-01-30 21:59:18,1692604,1822.000,-706.000,7791.000,-21.000,-155.000,-187.000,NA,0.000,0
2026-01-30 21:59:18,1692644,1980.000,-1176.000,8215.000,-810.000,-228.000,186.000,NA,0.000,0
2026-01-30 21:59:18,1692684,2140.000,-1625.000,7975.000,-285.000,-76.000,-95.000,NA,0.000,0
2026-01-30 21:59:18,1692724,1960.000,-1594.000,8275.000,-253.000,111.000,23.000,NA,0.000,0
2026-01-30 21:59:18,1692764,1690.000,-1599.000,8134.000,-122.000,38.000,32.000,NA,0.000,0
2026-01-30 21:59:18,1692804,1731.000,-1543.000,8341.000,-288.000,-16.000,-6.000,NA,0.000,0
2026-01-30 21:59:18,1692844,1673.000,-1825.000,8116.000,-273.000,-62.000,-16.000,NA,0.000,0
2026-01-30 21:59:18,1692884,1790.000,-1594.000,7991.000,-66.000,-240.000,-21.000,NA,0.000,0
2026-01-30 21:59:18,1692924,1697.000,-1747.000,7865.000,-228.000,-176.000,-22.000,NA,0.000,0
2026-01-30 21:59:18,1692964,1710.000,-1806.000,7996.000,-150.000,-168.000,-2.000,NA,0.000,0
2026-01-30 21:59:18,1693004,1913.000,-1721.000,8101.000,-110.000,-197.000,-3.000,NA,0.000,0
2026-01-30 21:59:18,1693044,1868.000,-1825.000,8041.000,-48.000,-82.000,20.000,NA,0.000,0
2026-01-30 21:59:18,1693084,1755.000,-1677.000,7885.000,40.000,-6.000,-69.000,NA,0.000,0
2026-01-30 21:59:18,1693124,1826.000,-1938.000,7929.000,-266.000,-82.000,19.000,NA,0.000,0
2026-01-30 21:59:18,1693164,1908.000,-1915.000,8078.000,-165.000,-26.000,57.000,NA,0.000,0
2026-01-30 21:59:18,1693204,2103.000,-1994.000,8679.000,-203.000,57.000,89.000,NA,0.000,0
2026-01-30 21:59:18,1693244,1794.000,-2646.000,8089.000,261.000,142.000,-151.000,NA,0.000,0
2026-01-30 21:59:19,1693284,1633.000,-1673.000,8113.000,425.000,-42.000,-116.000,NA,0.000,0
2026-01-30 21:59:19,1693324,1549.000,-1731.000,7619.000,-2.000,-228.000,-9.000,NA,0.000,0
2026-01-30 21:59:19,1693364,1858.000,-1425.000,8122.000,-108.000,-183.000,62.000,NA,0.000,0
2026-01-30 21:59:19,1693404,2003.000,-2238.000,8038.000,-264.000,2.000,121.000,NA,0.000,0
2026-01-30 21:59:19,1693444,1892.000,-1909.000,8044.000,420.000,258.000,-4.000,NA,0.000,0
2026-01-30 21:59:19,1693484,1564.000,-1643.000,7856.000,340.000,272.000,-43.000,NA,0.000,0
2026-01-30 21:59:19,1693524,1632.000,-1690.000,8248.000,-89.000,71.000,11.000,NA,0.000,0
2026-01-30 21:59:19,1693564,1791.000,-2261.000,8401.000,-288.000,27.000,63.000,NA,0.000,0
2026-01-30 21:59:19,1693604,1758.000,-2082.000,8286.000,182.000,80.000,-40.000,NA,0.000,0
2026-01-30 21:59:19,1693644,1457.000,-1873.000,7439.000,426.000,-35.000,-107.000,NA,0.000,0
2026-01-30 21:59:19,1693684,1707.000,-1106.000,7806.000,131.000,-320.000,-21.000,NA,0.000,0
2026-01-30 21:59:19,1693724,1935.000,-2101.000,7821.000,-803.000,-350.000,156.000,NA,0.000,0
2026-01-30 21:59:19,1693764,2130.000,-2165.000,7803.000,153.000,-48.000,-77.000,NA,0.000,0
2026-01-30 21:59:19,1693804,1848.000,-1876.000,7841.000,237.000,188.000,-6.000,NA,0.000,0
2026-01-30 21:59:19,1693844,1758.000,-1691.000,7984.000,108.000,75.000,49.000,NA,0.000,0
2026-01-30 21:59:19,1693884,1894.000,-2026.000,8250.000,-256.000,14.000,160.000,NA,0.000,0
2026-01-30 21:59:19,1693924,1974.000,-2152.000,8297.000,46.000,99.000,60.000,NA,0.000,0
2026-01-30 21:59:19,1693964,1911.000,-2113.000,8261.000,131.000,133.000,79.000,NA,0.000,0
2026-01-30 21:59:19,1694004,1726.000,-1319.000,8322.000,192.000,25.000,-2.000,NA,0.000,0
2026-01-30 21:59:19,1694044,1793.000,-2312.000,8289.000,-569.000,-70.000,169.000,NA,0.000,0
2026-01-30 21:59:19,1694084,1943.000,-2059.000,8249.000,328.000,83.000,-71.000,NA,0.000,0
2026-01-30 21:59:19,1694126,1651.000,-1578.000,8101.000,271.000,175.000,29.000,NA,0.000,0
2026-01-30 21:59:19,1694165,1614.000,-1713.000,7971.000,-16.000,-7.000,-1.000,NA,0.000,0
2026-01-30 21:59:19,1694204,1755.000,-1998.000,8112.000,-215.000,-87.000,50.000,NA,0.000,0
2026-01-30 21:59:19,1694244,1723.000,-1883.000,8157.000,46.000,-4.000,-6.000,NA,0.000,0
2026-01-30 21:59:20,1694284,1818.000,-1945.000,8395.000,-22.000,5.000,77.000,NA,0.000,0
2026-01-30 21:59:20,1694326,1552.000,-1435.000,7462.000,715.000,57.000,-214.000,NA,0.000,0
2026-01-30 21:59:20,1694364,1628.000,-863.000,7950.000,529.000,-18.000,-93.000,NA,0.000,0
2026-01-30 21:59:20,1694404,1995.000,-1950.000,8263.000,-754.000,-201.000,154.000,NA,0.000,0
2026-01-30 21:59:20,1694444,1947.000,-2578.000,8106.000,-11.000,140.000,-74.000,NA,0.000,0
2026-01-30 21:59:20,1694484,1550.000,-1422.000,8060.000,776.000,265.000,-98.000,NA,0.000,0
2026-01-30 21:59:20,1694524,1502.000,-1204.000,8077.000,-4.000,-59.000,74.000,NA,0.000,0
2026-01-30 21:59:20,1694564,1709.000,-1857.000,7988.000,-358.000,-185.000,-40.000,NA,0.000,0
2026-01-30 21:59:20,1694604,1917.000,-1765.000,8314.000,-90.000,-129.000,44.000,NA,0.000,0
2026-01-30 21:59:20,1694644,1704.000,-1936.000,7678.000,236.000,-16.000,-65.000,NA,0.000,0
2026-01-30 21:59:20,1694684,1807.000,-943.000,8159.000,194.000,-66.000,-15.000,NA,0.000,0
2026-01-30 21:59:20,1694724,1807.000,-1931.000,7994.000,-534.000,-97.000,106.000,NA,0.000,0
2026-01-30 21:59:20,1694764,2022.000,-1754.000,8099.000,-11.000,32.000,-18.000,NA,0.000,0
2026-01-30 21:59:20,1694804,1782.000,-1482.000,8228.000,19.000,121.000,16.000,NA,0.000,0
2026-01-30 21:59:20,1694844,1947.000,-1950.000,8653.000,-359.000,65.000,135.000,NA,0.000,0
2026-01-30 21:59:20,1694884,1894.000,-2049.000,8339.000,154.000,111.000,5.000,NA,0.000,0
2026-01-30 21:59:20,1694924,1817.000,-1219.000,8592.000,239.000,46.000,50.000,NA,0.000,0
2026-01-30 21:59:20,1694964,1635.000,-1905.000,7968.000,-167.000,-49.000,-45.000,NA,0.000,0
2026-01-30 21:59:20,1695004,1620.000,-1584.000,7945.000,90.000,-72.000,-138.000,NA,0.000,0
2026-01-30 21:59:20,1695044,1693.000,-1509.000,7951.000,-168.000,-133.000,11.000,NA,0.000,0
2026-01-30 21:59:20,1695084,2044.000,-1688.000,8213.000,-167.000,-119.000,-37.000,NA,0.000,0
2026-01-30 21:59:20,1695124,1836.000,-1822.000,7858.000,-70.000,26.000,-30.000,NA,0.000,0
2026-01-30 21:59:20,1695164,1668.000,-1338.000,7952.000,248.000,49.000,-51.000,NA,0.000,0
2026-01-30 21:59:20,1695204,1712.000,-1661.000,8285.000,-415.000,-43.000,205.000,NA,0.000,0
2026-01-30 21:59:20,1695244,1660.000,-1985.000,8342.000,19.000,73.000,8.000,NA,0.000,0
2026-01-30 21:59:21,1695284,1737.000,-1521.000,8423.000,166.000,-1.000,4.000,NA,0.000,0
2026-01-30 21:59:21,1695324,1655.000,-1656.000,7884.000,125.000,-129.000,-105.000,NA,0.000,0
2026-01-30 21:59:21,1695364,1639.000,-1253.000,7581.000,236.000,-203.000,-245.000,NA,0.000,0
2026-01-30 21:59:21,1695404,1726.000,-1017.000,7737.000,-91.000,-282.000,-73.000,NA,0.000,0
2026-01-30 21:59:21,1695444,1967.000,-1462.000,7946.000,-384.000,-127.000,35.000,NA,0.000,0
2026-01-30 21:59:21,1695484,2024.000,-1710.000,8184.000,-61.000,172.000,14.000,NA,0.000,0
2026-01-30 21:59:21,1695524,1788.000,-1331.000,8275.000,308.000,214.000,22.000,NA,0.000,0
2026-01-30 21:59:21,1695564,1956.000,-1147.000,8616.000,34.000,85.000,50.000,NA,0.000,0
2026-01-30 21:59:21,1695604,2079.000,-1444.000,8675.000,-35.000,102.000,40.000,NA,0.000,0
2026-01-30 21:59:21,1695644,2158.000,-1205.000,8675.000,370.000,113.000,-37.000,NA,0.000,0
2026-01-30 21:59:21,1695684,2117.000,-1131.000,8358.000,420.000,78.000,-47.000,NA,0.000,0
2026-01-30 21:59:21,1695724,2049.000,-742.000,8341.000,596.000,38.000,-149.000,NA,0.000,0
2026-01-30 21:59:21,1695764,2147.000,-798.000,8183.000,273.000,-108.000,-43.000,NA,0.000,0
2026-01-30 21:59:21,1695804,2378.000,-446.000,8198.000,477.000,-149.000,-134.000,NA,0.000,0
2026-01-30 21:59:21,1695844,2398.000,-541.000,7816.000,107.000,-123.000,-80.000,NA,0.000,0
2026-01-30 21:59:21,1695884,2391.000,31.000,8117.000,424.000,-158.000,-159.000,NA,0.000,0
2026-01-30 21:59:21,1695924,2707.000,-820.000,7865.000,-583.000,-102.000,-37.000,NA,0.000,0
2026-01-30 21:59:21,1695964,2698.000,-816.000,8255.000,-183.000,1.000,-156.000,NA,0.000,0
2026-01-30 21:59:21,1696004,2606.000,-1001.000,8785.000,-484.000,109.000,72.000,NA,0.000,0
2026-01-30 21:59:21,1696044,2202.000,-1247.000,8036.000,140.000,156.000,-143.000,NA,0.000,0
2026-01-30 21:59:21,1696084,2061.000,-587.000,7942.000,348.000,5.000,-159.000,NA,0.000,0
2026-01-30 21:59:21,1696125,2055.000,-430.000,7474.000,88.000,-284.000,-30.000,NA,0.000,0
2026-01-30 21:59:21,1696164,2579.000,-261.000,7732.000,-81.000,-451.000,35.000,NA,0.000,0
2026-01-30 21:59:21,1696204,2848.000,-646.000,7839.000,-287.000,-209.000,70.000,NA,0.000,0
2026-01-30 21:59:21,1696244,2841.000,-627.000,7962.000,171.000,161.000,2.000,NA,0.000,0
2026-01-30 21:59:22,1696284,2462.000,-497.000,8155.000,138.000,375.000,-73.000,NA,0.000,0
2026-01-30 21:59:22,1696327,2513.000,-1000.000,8696.000,-295.000,335.000,112.000,NA,0.000,0
2026-01-30 21:59:22,1696365,2548.000,-1090.000,8814.000,-45.000,396.000,35.000,NA,0.000,0
2026-01-30 21:59:22,1696404,2441.000,-993.000,8817.000,226.000,385.000,-21.000,NA,0.000,0
2026-01-30 21:59:22,1696444,2228.000,-863.000,8418.000,214.000,100.000,-126.000,NA,0.000,0
2026-01-30 21:59:22,1696484,2239.000,-556.000,8261.000,92.000,-160.000,-133.000,NA,0.000,0
2026-01-30 21:59:22,1696524,2529.000,-688.000,8261.000,-254.000,-234.000,34.000,NA,0.000,0
2026-01-30 21:59:22,1696564,2473.000,-988.000,7837.000,150.000,-80.000,-108.000,NA,0.000,0
2026-01-30 21:59:22,1696604,2450.000,-454.000,7768.000,237.000,-120.000,5.000,NA,0.000,0
2026-01-30 21:59:22,1696644,2417.000,-349.000,7937.000,40.000,-147.000,27.000,NA,0.000,0
2026-01-30 21:59:22,1696684,2468.000,-1006.000,8054.000,-234.000,77.000,55.000,NA,0.000,0
2026-01-30 21:59:22,1696724,2254.000,-815.000,7916.000,356.000,176.000,-99.000,NA,0.000,0
2026-01-30 21:59:22,1696764,2316.000,-339.000,8150.000,175.000,-18.000,9.000,NA,0.000,0
2026-01-30 21:59:22,1696804,2482.000,-802.000,8076.000,-130.000,-135.000,-21.000,NA,0.000,0
2026-01-30 21:59:22,1696844,2384.000,-867.000,7844.000,189.000,-52.000,-154.000,NA,0.000,0
2026-01-30 21:59:22,1696884,2346.000,-382.000,7770.000,362.000,-115.000,-107.000,NA,0.000,0
2026-01-30 21:59:22,1696924,2611.000,-263.000,8185.000,-160.000,-174.000,185.000,NA,0.000,0
2026-01-30 21:59:22,1696964,2688.000,-885.000,8018.000,-79.000,7.000,74.000,NA,0.000,0
2026-01-30 21:59:22,1697004,2504.000,-394.000,7989.000,394.000,117.000,-1.000,NA,0.000,0
2026-01-30 21:59:22,1697044,2615.000,-522.000,8218.000,-347.000,9.000,73.000,NA,0.000,0
2026-01-30 21:59:22,1697084,2809.000,-813.000,8840.000,-541.000,132.000,67.000,NA,0.000,0
2026-01-30 21:59:22,1697124,2593.000,-1236.000,8771.000,-198.000,269.000,-43.000,NA,0.000,0
2026-01-30 21:59:22,1697164,2473.000,-911.000,8786.000,-18.000,124.000,-82.000,NA,0.000,0
2026-01-30 21:59:22,1697204,2433.000,-1158.000,8569.000,-397.000,-123.000,-7.000,NA,0.000,0
2026-01-30 21:59:22,1697244,2461.000,-1117.000,8293.000,-84.000,-238.000,-50.000,NA,0.000,0
2026-01-30 21:59:23,1697284,2566.000,-702.000,8087.000,95.000,-279.000,44.000,NA,0.000,0
2026-01-30 21:59:23,1697324,2607.000,-721.000,7789.000,6.000,-245.000,45.000,NA,0.000,0
2026-01-30 21:59:23,1697364,2505.000,-883.000,7431.000,110.000,-133.000,-41.000,NA,0.000,0
2026-01-30 21:59:23,1697404,2442.000,-454.000,7732.000,272.000,-100.000,-27.000,NA,0.000,0
2026-01-30 21:59:23,1697444,2627.000,-907.000,8136.000,-379.000,-47.000,121.000,NA,0.000,0
2026-01-30 21:59:23,1697484,2715.000,-1451.000,8387.000,-106.000,95.000,-37.000,NA,0.000,0
2026-01-30 21:59:23,1697524,2428.000,-1308.000,7976.000,392.000,107.000,-162.000,NA,0.000,0
2026-01-30 21:59:23,1697564,2365.000,-650.000,7800.000,385.000,-176.000,-122.000,NA,0.000,0
2026-01-30 21:59:23,1697604,2366.000,-795.000,7398.000,-28.000,-312.000,-31.000,NA,0.000,0
2026-01-30 21:59:23,1697644,2473.000,-492.000,7473.000,154.000,-251.000,61.000,NA,0.000,0
2026-01-30 21:59:23,1697684,2849.000,-449.000,8005.000,-156.000,-162.000,217.000,NA,0.000,0
2026-01-30 21:59:23,1697724,2993.000,-1147.000,8239.000,-259.000,109.000,179.000,NA,0.000,0
2026-01-30 21:59:23,1697764,2789.000,-1308.000,8177.000,289.000,343.000,-48.000,NA,0.000,0
2026-01-30 21:59:23,1697804,2334.000,-392.000,8033.000,369.000,89.000,-86.000,NA,0.000,0
2026-01-30 21:59:23,1697844,2661.000,-683.000,8323.000,-480.000,-123.000,179.000,NA,0.000,0
2026-01-30 21:59:23,1697884,2886.000,-1338.000,8354.000,-185.000,79.000,82.000,NA,0.000,0
2026-01-30 21:59:23,1697924,2613.000,-977.000,8384.000,329.000,324.000,30.000,NA,0.000,0
2026-01-30 21:59:23,1697964,2226.000,-608.000,8204.000,413.000,235.000,-16.000,NA,0.000,0
2026-01-30 21:59:23,1698004,2258.000,-573.000,8213.000,84.000,11.000,38.000,NA,0.000,0
2026-01-30 21:59:23,1698044,2395.000,-589.000,8050.000,124.000,-80.000,25.000,NA,0.000,0
2026-01-30 21:59:23,1698084,2538.000,-383.000,8116.000,192.000,-68.000,25.000,NA,0.000,0
2026-01-30 21:59:23,1698126,2405.000,-488.000,7761.000,181.000,44.000,-87.000,NA,0.000,0
2026-01-30 21:59:23,1698165,2427.000,-407.000,7857.000,165.000,33.000,-64.000,NA,0.000,0
2026-01-30 21:59:23,1698204,2551.000,-750.000,8255.000,-393.000,17.000,69.000,NA,0.000,0
2026-01-30 21:59:23,1698244,2516.000,-1000.000,8260.000,-124.000,79.000,-91.000,NA,0.000,0
2026-01-30 21:59:24,1698284,2381.000,-649.000,8465.000,-64.000,18.000,-40.000,NA,0.000,0
2026-01-30 21:59:24,1698326,2468.000,-742.000,8495.000,-310.000,-136.000,51.000,NA,0.000,0
2026-01-30 21:59:24,1698364,2484.000,-1066.000,8222.000,-93.000,-87.000,-42.000,NA,0.000,0
2026-01-30 21:59:24,1698404,2301.000,-708.000,7818.000,318.000,-133.000,-107.000,NA,0.000,0
2026-01-30 21:59:24,1698444,2444.000,-188.000,7947.000,106.000,-289.000,58.000,NA,0.000,0
2026-01-30 21:59:24,1698484,2575.000,-699.000,7822.000,-365.000,-237.000,71.000,NA,0.000,0
2026-01-30 21:59:24,1698524,2499.000,-704.000,7953.000,88.000,25.000,-82.000,NA,0.000,0
2026-01-30 21:59:24,1698564,2388.000,-1003.000,8241.000,-158.000,19.000,119.000,NA,0.000,0
2026-01-30 21:59:24,1698604,2393.000,-1054.000,7994.000,130.000,21.000,-196.000,NA,0.000,0
2026-01-30 21:59:24,1698644,2369.000,-708.000,7987.000,-29.000,-143.000,-88.000,NA,0.000,0
2026-01-30 21:59:24,1698684,2553.000,-865.000,7946.000,-273.000,-292.000,-83.000,NA,0.000,0
2026-01-30 21:59:24,1698724,2807.000,-1037.000,8287.000,-428.000,-87.000,-10.000,NA,0.000,0
2026-01-30 21:59:24,1698764,2457.000,-1418.000,7880.000,16.000,249.000,-40.000,NA,0.000,0
2026-01-30 21:59:24,1698804,2265.000,-590.000,8156.000,334.000,252.000,49.000,NA,0.000,0
2026-01-30 21:59:24,1698844,2219.000,-839.000,8551.000,-470.000,105.000,322.000,NA,0.000,0
2026-01-30 21:59:24,1698884,2272.000,-1409.000,8382.000,-127.000,198.000,50.000,NA,0.000,0
2026-01-30 21:59:24,1698924,2256.000,-971.000,8489.000,164.000,243.000,10.000,NA,0.000,0
2026-01-30 21:59:24,1698964,2310.000,-1316.000,7835.000,-57.000,62.000,-227.000,NA,0.000,0
2026-01-30 21:59:24,1699004,2111.000,-1125.000,8137.000,119.000,118.000,-190.000,NA,0.000,0
2026-01-30 21:59:24,1699044,2143.000,-1073.000,8567.000,-268.000,126.000,159.000,NA,0.000,0
2026-01-30 21:59:24,1699084,2145.000,-1344.000,8492.000,75.000,303.000,188.000,NA,0.000,0
2026-01-30 21:59:24,1699124,1660.000,-1517.000,8226.000,488.000,466.000,134.000,NA,0.000,0
2026-01-30 21:59:24,1699164,1573.000,-940.000,8741.000,356.000,43.000,284.000,NA,0.000,0
2026-01-30 21:59:24,1699204,1825.000,-1097.000,7948.000,42.000,-370.000,-93.000,NA,0.000,0
2026-01-30 21:59:24,1699244,1850.000,-1041.000,7236.000,429.000,-387.000,-382.000,NA,0.000,0
2026-01-30 21:59:25,1699284,1979.000,-152.000,7616.000,552.000,-463.000,-170.000,NA,0.000,0
2026-01-30 21:59:25,1699324,2846.000,-1384.000,8894.000,-931.000,-155.000,361.000,NA,0.000,0
2026-01-30 21:59:25,1699364,2108.000,-2978.000,6757.000,430.000,491.000,-456.000,NA,0.000,0
2026-01-30 21:59:25,1699404,1993.000,-276.000,7388.000,1862.000,43.000,-293.000,NA,0.000,0
2026-01-30 21:59:25,1699444,1937.000,1223.000,8630.000,-413.000,-488.000,525.000,NA,0.000,0
2026-01-30 21:59:25,1699484,3253.000,-1965.000,8689.000,-3152.000,-757.000,187.000,NA,0.000,0
2026-01-30 21:59:25,1699524,2982.000,-3803.000,8671.000,-796.000,406.000,-203.000,NA,0.000,0
2026-01-30 21:59:25,1699564,1985.000,-1349.000,8356.000,1811.000,672.000,-55.000,NA,0.000,0
2026-01-30 21:59:25,1699604,1826.000,403.000,8348.000,569.000,-31.000,153.000,NA,0.000,0
2026-01-30 21:59:25,1699644,2161.000,-1391.000,8127.000,-1296.000,-270.000,57.000,NA,0.000,0
2026-01-30 21:59:25,1699684,2146.000,-2228.000,7865.000,-13.000,60.000,-50.000,NA,0.000,0
2026-01-30 21:59:25,1699724,1820.000,-351.000,7905.000,933.000,231.000,29.000,NA,0.000,0
2026-01-30 21:59:25,1699764,1890.000,-499.000,8203.000,106.000,267.000,84.000,NA,0.000,0
2026-01-30 21:59:25,1699804,2045.000,-1280.000,8163.000,107.000,240.000,-12.000,NA,0.000,0
2026-01-30 21:59:25,1699844,2073.000,-1182.000,8358.000,423.000,166.000,-56.000,NA,0.000,0
2026-01-30 21:59:25,1699884,1732.000,-956.000,7994.000,489.000,109.000,-185.000,NA,0.000,0
2026-01-30 21:59:25,1699924,1717.000,-638.000,7628.000,475.000,-47.000,-293.000,NA,0.000,0
2026-01-30 21:59:25,1699964,1979.000,-498.000,7819.000,-20.000,-196.000,-76.000,NA,0.000,0
2026-01-30 21:59:25,1700004,2365.000,-828.000,8305.000,-489.000,-165.000,73.000,NA,0.000,0
2026-01-30 21:59:25,1700044,2410.000,-1592.000,8484.000,-350.000,120.000,-4.000,NA,0.000,0
2026-01-30 21:59:25,1700084,1726.000,-889.000,8144.000,482.000,380.000,-102.000,NA,0.000,0
2026-01-30 21:59:25,1700126,1795.000,-536.000,8278.000,-270.000,-158.000,112.000,NA,0.000,0
2026-01-30 21:59:25,1700165,1942.000,-857.000,8372.000,-514.000,-188.000,140.000,NA,0.000,0
2026-01-30 21:59:25,1700204,2024.000,-1413.000,8123.000,-188.000,-51.000,-88.000,NA,0.000,0
2026-01-30 21:59:25,1700244,1951.000,-903.000,8157.000,210.000,-15.000,-134.000,NA,0.000,0
2026-01-30 21:59:26,1700284,1979.000,-748.000,8360.000,-126.000,-123.000,-38.000,NA,0.000,0
2026-01-30 21:59:26,1700326,1922.000,-1466.000,8150.000,80.000,48.000,-151.000,NA,0.000,0
2026-01-30 21:59:26,1700364,1903.000,-1012.000,8178.000,426.000,64.000,-138.000,NA,0.000,0
2026-01-30 21:59:26,1700404,1841.000,-600.000,8015.000,233.000,-15.000,67.000,NA,0.000,0
2026-01-30 21:59:26,1700444,2153.000,-600.000,8229.000,-92.000,-118.000,68.000,NA,0.000,0
2026-01-30 21:59:26,1700484,2141.000,-1163.000,8086.000,42.000,117.000,-81.000,NA,0.000,0
2026-01-30 21:59:26,1700524,2022.000,-734.000,8427.000,49.000,206.000,4.000,NA,0.000,0
2026-01-30 21:59:26,1700564,2010.000,-1117.000,8500.000,-317.000,167.000,-10.000,NA,0.000,0
2026-01-30 21:59:26,1700604,2085.000,-1361.000,8457.000,-236.000,107.000,-24.000,NA,0.000,0
2026-01-30 21:59:26,1700644,2100.000,-1132.000,8188.000,-27.000,11.000,-129.000,NA,0.000,0
2026-01-30 21:59:26,1700684,2414.000,-925.000,8674.000,-427.000,-117.000,39.000,NA,0.000,0
2026-01-30 21:59:26,1700724,2513.000,-1825.000,8748.000,-609.000,-34.000,-3.000,NA,0.000,0
2026-01-30 21:59:26,1700764,2116.000,-1796.000,8136.000,261.000,202.000,-133.000,NA,0.000,0
2026-01-30 21:59:26,1700804,1842.000,-752.000,7798.000,945.000,86.000,-90.000,NA,0.000,0
2026-01-30 21:59:26,1700844,1917.000,-399.000,7443.000,515.000,-106.000,205.000,NA,0.000,0
2026-01-30 21:59:26,1700884,2228.000,10.000,8374.000,483.000,12.000,227.000,NA,0.000,0
2026-01-30 21:59:26,1700924,2379.000,-682.000,8336.000,349.000,27.000,200.000,NA,0.000,0
2026-01-30 21:59:26,1700964,2294.000,-584.000,8212.000,990.000,103.000,-170.000,NA,0.000,0
2026-01-30 21:59:26,1701004,1922.000,-329.000,7742.000,1081.000,25.000,-395.000,NA,0.000,0
2026-01-30 21:59:26,1701044,1970.000,449.000,7807.000,711.000,-199.000,-277.000,NA,0.000,0
2026-01-30 21:59:26,1701084,2366.000,116.000,7636.000,87.000,-138.000,-356.000,NA,0.000,0
2026-01-30 21:59:26,1701124,2858.000,-12.000,7818.000,-141.000,-60.000,-296.000,NA,0.000,0
2026-01-30 21:59:26,1701164,3026.000,-135.000,7979.000,-423.000,64.000,-202.000,NA,0.000,0
2026-01-30 21:59:26,1701204,2727.000,-477.000,8503.000,-1038.000,226.000,-72.000,NA,0.000,0
2026-01-30 21:59:26,1701244,2067.000,-1440.000,8266.000,-712.000,197.000,57.000,NA,0.000,0
2026-01-30 21:59:27,1701284,1604.000,-1004.000,8189.000,46.000,194.000,321.000,NA,0.000,0
2026-01-30 21:59:27,1701324,1710.000,-251.000,8983.000,-185.000,0.000,589.000,NA,0.000,0
2026-01-30 21:59:27,1701364,2171.000,-865.000,8522.000,-687.000,-438.000,302.000,NA,0.000,0
2026-01-30 21:59:27,1701404,2419.000,-1253.000,8634.000,-642.000,-523.000,40.000,NA,0.000,0
2026-01-30 21:59:27,1701444,2058.000,-1708.000,8074.000,-467.000,-450.000,-82.000,NA,0.000,0
2026-01-30 21:59:27,1701484,1988.000,-1153.000,8006.000,32.000,-406.000,-208.000,NA,0.000,0
2026-01-30 21:59:27,1701524,1938.000,-1241.000,7514.000,0.000,-255.000,-259.000,NA,0.000,0
2026-01-30 21:59:27,1701564,2002.000,-787.000,7372.000,303.000,-274.000,-172.000,NA,0.000,0
2026-01-30 21:59:27,1701604,2701.000,-917.000,8120.000,-231.000,-457.000,159.000,NA,0.000,0
2026-01-30 21:59:27,1701644,2771.000,-2205.000,8083.000,-624.000,-33.000,138.000,NA,0.000,0
2026-01-30 21:59:27,1701684,2209.000,-2033.000,7903.000,442.000,405.000,-56.000,NA,0.000,0
2026-01-30 21:59:27,1701724,1644.000,-902.000,8042.000,739.000,394.000,35.000,NA,0.000,0
2026-01-30 21:59:27,1701764,1566.000,-656.000,8446.000,-190.000,87.000,302.000,NA,0.000,0
2026-01-30 21:59:27,1701804,2010.000,-1569.000,8372.000,-510.000,-57.000,231.000,NA,0.000,0
2026-01-30 21:59:27,1701844,2119.000,-1584.000,8127.000,160.000,117.000,64.000,NA,0.000,0
2026-01-30 21:59:27,1701884,1898.000,-1103.000,8015.000,334.000,76.000,-19.000,NA,0.000,0
2026-01-30 21:59:27,1701924,1988.000,-1250.000,8132.000,-283.000,-89.000,-69.000,NA,0.000,0
2026-01-30 21:59:27,1701964,2089.000,-1876.000,8286.000,-432.000,-44.000,-40.000,NA,0.000,0
2026-01-30 21:59:27,1702004,1769.000,-1448.000,7870.000,448.000,128.000,-24.000,NA,0.000,0
2026-01-30 21:59:27,1702044,1688.000,-955.000,7903.000,141.000,23.000,87.000,NA,0.000,0
2026-01-30 21:59:27,1702084,1965.000,-1257.000,8393.000,-361.000,-120.000,291.000,NA,0.000,0
2026-01-30 21:59:27,1702124,2201.000,-1377.000,8590.000,53.000,-33.000,206.000,NA,0.000,0
2026-01-30 21:59:27,1702164,2306.000,-1294.000,8478.000,475.000,46.000,33.000,NA,0.000,0
2026-01-30 21:59:27,1702204,2146.000,-861.000,8225.000,627.000,55.000,-136.000,NA,0.000,0
2026-01-30 21:59:27,1702244,2155.000,-724.000,8051.000,372.000,-101.000,-173.000,NA,0.000,0
2026-01-30 21:59:28,1702284,2226.000,-640.000,7909.000,312.000,-121.000,-179.000,NA,0.000,0
2026-01-30 21:59:28,1702326,2485.000,-364.000,7912.000,324.000,33.000,-104.000,NA,0.000,0
2026-01-30 21:59:28,1702364,2629.000,-398.000,8059.000,272.000,68.000,3.000,NA,0.000,0
2026-01-30 21:59:28,1702404,2528.000,-512.000,7780.000,340.000,287.000,-49.000,NA,0.000,0
2026-01-30 21:59:28,1702444,2593.000,-301.000,8788.000,-132.000,293.000,85.000,NA,0.000,0
2026-01-30 21:59:28,1702484,2269.000,-1239.000,8324.000,-298.000,356.000,-45.000,NA,0.000,0
2026-01-30 21:59:28,1702524,2173.000,-558.000,8391.000,368.000,251.000,-192.000,NA,0.000,0
2026-01-30 21:59:28,1702564,1957.000,-277.000,8131.000,251.000,43.000,-90.000,NA,0.000,0
2026-01-30 21:59:28,1702604,2325.000,-150.000,8286.000,-235.000,-262.000,107.000,NA,0.000,0
2026-01-30 21:59:28,1702644,2615.000,-813.000,8394.000,-522.000,-121.000,107.000,NA,0.000,0
2026-01-30 21:59:28,1702684,2387.000,-883.000,8206.000,134.000,181.000,-54.000,NA,0.000,0
2026-01-30 21:59:28,1702724,2192.000,-216.000,8241.000,431.000,168.000,-43.000,NA,0.000,0
2026-01-30 21:59:28,1702764,2158.000,-460.000,8069.000,-155.000,-47.000,-45.000,NA,0.000,0
2026-01-30 21:59:28,1702804,2118.000,-582.000,8019.000,-127.000,-15.000,-15.000,NA,0.000,0
2026-01-30 21:59:28,1702844,2141.000,-336.000,8070.000,-13.000,21.000,-34.000,NA,0.000,0
2026-01-30 21:59:28,1702884,2213.000,-730.000,8330.000,-312.000,59.000,11.000,NA,0.000,0
2026-01-30 21:59:28,1702924,2138.000,-931.000,8278.000,-133.000,142.000,-2.000,NA,0.000,0
2026-01-30 21:59:28,1702964,2050.000,-697.000,8366.000,0.000,109.000,2.000,NA,0.000,0
2026-01-30 21:59:28,1703004,1860.000,-898.000,8087.000,-164.000,-15.000,-20.000,NA,0.000,0
2026-01-30 21:59:28,1703044,2239.000,-761.000,8307.000,-282.000,-270.000,-8.000,NA,0.000,0
2026-01-30 21:59:28,1703084,2302.000,-1178.000,8181.000,-420.000,-235.000,-38.000,NA,0.000,0
2026-01-30 21:59:28,1703124,2167.000,-992.000,8208.000,-58.000,-29.000,-57.000,NA,0.000,0
2026-01-30 21:59:28,1703164,2045.000,-734.000,8234.000,170.000,45.000,67.000,NA,0.000,0
2026-01-30 21:59:28,1703204,2011.000,-810.000,8129.000,145.000,57.000,88.000,NA,0.000,0
2026-01-30 21:59:28,1703244,1995.000,-646.000,8274.000,169.000,31.000,45.000,NA,0.000,0
2026-01-30 21:59:29,1703284,2006.000,-790.000,8196.000,50.000,-52.000,13.000,NA,0.000,0
2026-01-30 21:59:29,1703324,2107.000,-713.000,8268.000,31.000,-66.000,-37.000,NA,0.000,0
2026-01-30 21:59:29,1703364,2108.000,-893.000,8217.000,-66.000,-19.000,-115.000,NA,0.000,0
2026-01-30 21:59:29,1703404,2090.000,-1032.000,8273.000,-114.000,-12.000,-99.000,NA,0.000,0
2026-01-30 21:59:29,1703444,1995.000,-1142.000,7960.000,-83.000,-33.000,-152.000,NA,0.000,0
2026-01-30 21:59:29,1703484,2075.000,-925.000,8010.000,-143.000,-80.000,-80.000,NA,0.000,0
2026-01-30 21:59:29,1703524,2332.000,-1280.000,8068.000,-383.000,-154.000,41.000,NA,0.000,0
2026-01-30 21:59:29,1703564,2298.000,-1347.000,8280.000,-141.000,-16.000,54.000,NA,0.000,0
2026-01-30 21:59:29,1703604,2019.000,-1312.000,8097.000,14.000,83.000,196.000,NA,0.000,0
2026-01-30 21:59:29,1703644,1815.000,-1066.000,8066.000,168.000,169.000,131.000,NA,0.000,0
2026-01-30 21:59:29,1703684,1854.000,-945.000,8409.000,-87.000,70.000,182.000,NA,0.000,0
2026-01-30 21:59:29,1703724,1825.000,-1108.000,8446.000,-55.000,74.000,162.000,NA,0.000,0
2026-01-30 21:59:29,1703764,1814.000,-1188.000,8464.000,151.000,146.000,88.000,NA,0.000,0
2026-01-30 21:59:29,1703804,1615.000,-1136.000,8055.000,410.000,116.000,-36.000,NA,0.000,0
2026-01-30 21:59:29,1703844,1690.000,-597.000,8025.000,366.000,-18.000,-154.000,NA,0.000,0
2026-01-30 21:59:29,1703884,1991.000,-822.000,8244.000,-271.000,-194.000,-38.000,NA,0.000,0
2026-01-30 21:59:29,1703924,2184.000,-1472.000,8347.000,-181.000,-83.000,-122.000,NA,0.000,0
2026-01-30 21:59:29,1703964,2050.000,-1373.000,8082.000,31.000,-35.000,-123.000,NA,0.000,0
2026-01-30 21:59:29,1704004,2008.000,-1070.000,7904.000,-5.000,-121.000,-144.000,NA,0.000,0
2026-01-30 21:59:29,1704044,2068.000,-1241.000,8201.000,-420.000,-190.000,58.000,NA,0.000,0
2026-01-30 21:59:29,1704084,2067.000,-1511.000,8226.000,-221.000,-72.000,148.000,NA,0.000,0
2026-01-30 21:59:29,1704127,1788.000,-888.000,8367.000,188.000,171.000,232.000,NA,0.000,0
2026-01-30 21:59:29,1704166,1656.000,-969.000,8362.000,51.000,146.000,301.000,NA,0.000,0
2026-01-30 21:59:29,1704204,1689.000,-1062.000,8067.000,136.000,56.000,99.000,NA,0.000,0
2026-01-30 21:59:29,1704244,1773.000,-840.000,8195.000,72.000,-20.000,0.000,NA,0.000,0
2026-01-30 21:59:30,1704284,2062.000,-1368.000,8383.000,-247.000,-133.000,-122.000,NA,0.000,0
2026-01-30 21:59:30,1704326,1999.000,-1467.000,8102.000,161.000,-26.000,-316.000,NA,0.000,0
2026-01-30 21:59:30,1704364,1993.000,-1230.000,7975.000,224.000,-72.000,-290.000,NA,0.000,0
2026-01-30 21:59:30,1704404,2089.000,-962.000,7959.000,-47.000,-188.000,-119.000,NA,0.000,0
2026-01-30 21:59:30,1704444,2228.000,-1363.000,8208.000,-436.000,-140.000,92.000,NA,0.000,0
2026-01-30 21:59:30,1704484,2058.000,-1713.000,8116.000,-1.000,121.000,160.000,NA,0.000,0
2026-01-30 21:59:30,1704524,1843.000,-933.000,8160.000,427.000,217.000,186.000,NA,0.000,0
2026-01-30 21:59:30,1704564,1775.000,-887.000,8257.000,-44.000,68.000,266.000,NA,0.000,0
2026-01-30 21:59:30,1704604,1850.000,-1215.000,8252.000,-103.000,9.000,89.000,NA,0.000,0
2026-01-30 21:59:30,1704644,1876.000,-1134.000,8285.000,100.000,72.000,-9.000,NA,0.000,0
2026-01-30 21:59:30,1704684,1810.000,-1177.000,8125.000,174.000,62.000,-212.000,NA,0.000,0
2026-01-30 21:59:30,1704724,1890.000,-1106.000,8179.000,43.000,-15.000,-142.000,NA,0.000,0
2026-01-30 21:59:30,1704764,1944.000,-1194.000,8105.000,-23.000,-34.000,-65.000,NA,0.000,0
2026-01-30 21:59:30,1704804,2006.000,-1208.000,8073.000,-47.000,-29.000,-28.000,NA,0.000,0
2026-01-30 21:59:30,1704844,1881.000,-1284.000,8047.000,-82.000,-5.000,47.000,NA,0.000,0
2026-01-30 21:59:30,1704884,1874.000,-1119.000,8280.000,-26.000,17.000,108.000,NA,0.000,0
2026-01-30 21:59:30,1704924,1884.000,-1254.000,8265.000,-90.000,24.000,53.000,NA,0.000,0
2026-01-30 21:59:30,1704964,1835.000,-1311.000,8155.000,13.000,8.000,-46.000,NA,0.000,0
2026-01-30 21:59:30,1705004,1879.000,-1112.000,8180.000,39.000,-46.000,-17.000,NA,0.000,0
2026-01-30 21:59:30,1705044,1954.000,-1321.000,8282.000,-9.000,21.000,-47.000,NA,0.000,0
2026-01-30 21:59:30,1705084,1899.000,-1346.000,8201.000,91.000,72.000,-11.000,NA,0.000,0
2026-01-30 21:59:30,1705124,1814.000,-1155.000,8170.000,131.000,61.000,13.000,NA,0.000,0
2026-01-30 21:59:30,1705164,1743.000,-1140.000,8141.000,34.000,8.000,3.000,NA,0.000,0
2026-01-30 21:59:30,1705204,1828.000,-1113.000,8202.000,-17.000,0.000,22.000,NA,0.000,0
2026-01-30 21:59:30,1705244,1827.000,-1261.000,8138.000,-9.000,42.000,-22.000,NA,0.000,0
2026-01-30 21:59:31,1705284,1791.000,-1279.000,8195.000,77.000,37.000,-35.000,NA,0.000,0
2026-01-30 21:59:31,1705324,1793.000,-1100.000,8142.000,121.000,-17.000,-33.000,NA,0.000,0
2026-01-30 21:59:31,1705364,1876.000,-996.000,8131.000,76.000,-57.000,22.000,NA,0.000,0
2026-01-30 21:59:31,1705404,2106.000,-848.000,8404.000,1.000,-126.000,130.000,NA,0.000,0
2026-01-30 21:59:31,1705444,2138.000,-941.000,8172.000,325.000,-65.000,-24.000,NA,0.000,0
2026-01-30 21:59:31,1705484,2167.000,-593.000,8050.000,412.000,-160.000,-54.000,NA,0.000,0
2026-01-30 21:59:31,1705524,2386.000,-470.000,8145.000,117.000,-266.000,-17.000,NA,0.000,0
2026-01-30 21:59:31,1705564,2554.000,-743.000,8236.000,-50.000,-167.000,-101.000,NA,0.000,0
2026-01-30 21:59:31,1705604,2474.000,-918.000,8143.000,50.000,7.000,-123.000,NA,0.000,0
2026-01-30 21:59:31,1705644,2256.000,-701.000,8092.000,205.000,92.000,-52.000,NA,0.000,0
2026-01-30 21:59:31,1705684,2225.000,-530.000,8106.000,87.000,70.000,25.000,NA,0.000,0
2026-01-30 21:59:31,1705724,2212.000,-671.000,8179.000,-23.000,86.000,60.000,NA,0.000,0
2026-01-30 21:59:31,1705764,2296.000,-584.000,8267.000,-16.000,52.000,88.000,NA,0.000,0
2026-01-30 21:59:31,1705804,2166.000,-796.000,8057.000,-67.000,112.000,-56.000,NA,0.000,0
2026-01-30 21:59:31,1705844,2010.000,-693.000,8019.000,91.000,82.000,-89.000,NA,0.000,0
2026-01-30 21:59:31,1705884,2170.000,-384.000,8264.000,-29.000,-65.000,40.000,NA,0.000,0
2026-01-30 21:59:31,1705924,2388.000,-742.000,8263.000,-250.000,-55.000,39.000,NA,0.000,0
2026-01-30 21:59:31,1705964,2350.000,-949.000,8204.000,-48.000,67.000,-45.000,NA,0.000,0
2026-01-30 21:59:31,1706004,2097.000,-829.000,8109.000,68.000,89.000,-36.000,NA,0.000,0
2026-01-30 21:59:31,1706044,2153.000,-700.000,8194.000,-81.000,-27.000,4.000,NA,0.000,0
2026-01-30 21:59:31,1706084,2314.000,-943.000,8257.000,-180.000,-48.000,8.000,NA,0.000,0
2026-01-30 21:59:31,1706124,2243.000,-881.000,8223.000,66.000,24.000,-2.000,NA,0.000,0
2026-01-30 21:59:31,1706164,2106.000,-794.000,8040.000,100.000,69.000,-9.000,NA,0.000,0
2026-01-30 21:59:31,1706205,2012.000,-663.000,8303.000,45.000,74.000,99.000,NA,0.000,0
2026-01-30 21:59:31,1706244,2089.000,-706.000,8308.000,77.000,55.000,73.000,NA,0.000,0
2026-01-30 21:59:32,1706284,2031.000,-782.000,8060.000,147.000,74.000,-58.000,NA,0.000,0
2026-01-30 21:59:32,1706326,2031.000,-592.000,8050.000,127.000,-38.000,-72.000,NA,0.000,0
2026-01-30 21:59:32,1706364,2182.000,-626.000,8315.000,-131.000,-128.000,12.000,NA,0.000,0
2026-01-30 21:59:32,1706404,2242.000,-1023.000,8236.000,-118.000,-31.000,-60.000,NA,0.000,0
2026-01-30 21:59:32,1706444,2036.000,-791.000,8104.000,172.000,79.000,-87.000,NA,0.000,0
2026-01-30 21:59:32,1706484,1916.000,-611.000,8082.000,-24.000,-19.000,29.000,NA,0.000,0
2026-01-30 21:59:32,1706524,2086.000,-981.000,8231.000,-353.000,-129.000,15.000,NA,0.000,0
2026-01-30 21:59:32,1706564,2086.000,-1216.000,8453.000,-266.000,-9.000,-21.000,NA,0.000,0
2026-01-30 21:59:32,1706604,1937.000,-1173.000,8202.000,-7.000,38.000,-83.000,NA,0.000,0
2026-01-30 21:59:32,1706644,1779.000,-1234.000,8149.000,-60.000,12.000,-25.000,NA,0.000,0
2026-01-30 21:59:32,1706684,1856.000,-1173.000,8086.000,10.000,-93.000,-3.000,NA,0.000,0
2026-01-30 21:59:32,1706724,1922.000,-995.000,8044.000,21.000,-80.000,6.000,NA,0.000,0
2026-01-30 21:59:32,1706764,1992.000,-1121.000,8153.000,-135.000,-29.000,48.000,NA,0.000,0
2026-01-30 21:59:32,1706804,1941.000,-1260.000,8208.000,-5.000,71.000,35.000,NA,0.000,0
2026-01-30 21:59:32,1706844,1760.000,-1148.000,8023.000,174.000,142.000,-8.000,NA,0.000,0
2026-01-30 21:59:32,1706884,1644.000,-823.000,8170.000,142.000,79.000,44.000,NA,0.000,0
2026-01-30 21:59:32,1706924,1698.000,-928.000,8229.000,-112.000,-4.000,88.000,NA,0.000,0
2026-01-30 21:59:32,1706964,1847.000,-1303.000,8273.000,-167.000,-51.000,-34.000,NA,0.000,0
2026-01-30 21:59:32,1707004,1799.000,-1336.000,8056.000,-91.000,-103.000,-119.000,NA,0.000,0
2026-01-30 21:59:32,1707044,1645.000,-1315.000,7975.000,-140.000,-116.000,-85.000,NA,0.000,0
2026-01-30 21:59:32,1707084,1656.000,-1384.000,8273.000,-369.000,-141.000,7.000,NA,0.000,0
2026-01-30 21:59:32,1707124,1617.000,-1774.000,8298.000,-349.000,-54.000,93.000,NA,0.000,0
2026-01-30 21:59:32,1707164,1578.000,-1597.000,8271.000,48.000,26.000,84.000,NA,0.000,0
2026-01-30 21:59:32,1707204,1526.000,-1351.000,8084.000,131.000,5.000,69.000,NA,0.000,0
2026-01-30 21:59:32,1707244,1559.000,-1218.000,8095.000,-63.000,-112.000,42.000,NA,0.000,0
2026-01-30 21:59:33,1707284,1583.000,-1606.000,8209.000,-435.000,-167.000,-20.000,NA,0.000,0
2026-01-30 21:59:33,1707324,1693.000,-2019.000,8211.000,-447.000,-186.000,-92.000,NA,0.000,0
2026-01-30 21:59:33,1707364,1608.000,-1561.000,7922.000,96.000,-170.000,-90.000,NA,0.000,0
2026-01-30 21:59:33,1707404,1576.000,-1514.000,7929.000,-207.000,-248.000,-47.000,NA,0.000,0
2026-01-30 21:59:33,1707444,1525.000,-1874.000,8067.000,-457.000,-229.000,47.000,NA,0.000,0
2026-01-30 21:59:33,1707484,1500.000,-2032.000,8327.000,-275.000,-110.000,116.000,NA,0.000,0
2026-01-30 21:59:33,1707524,1372.000,-2038.000,8326.000,27.000,18.000,113.000,NA,0.000,0
2026-01-30 21:59:33,1707564,1343.000,-1786.000,8237.000,204.000,7.000,30.000,NA,0.000,0
2026-01-30 21:59:33,1707604,1488.000,-1660.000,8137.000,-44.000,-148.000,-36.000,NA,0.000,0
2026-01-30 21:59:33,1707644,1720.000,-1943.000,8129.000,-304.000,-258.000,-106.000,NA,0.000,0
2026-01-30 21:59:33,1707684,1772.000,-2254.000,8235.000,-262.000,-190.000,-115.000,NA,0.000,0
2026-01-30 21:59:33,1707724,1544.000,-2067.000,8125.000,210.000,6.000,-51.000,NA,0.000,0
2026-01-30 21:59:33,1707764,1458.000,-1784.000,7967.000,142.000,-41.000,4.000,NA,0.000,0
2026-01-30 21:59:33,1707804,1545.000,-1815.000,7991.000,-38.000,-137.000,69.000,NA,0.000,0
2026-01-30 21:59:33,1707844,1616.000,-1839.000,8181.000,-70.000,-82.000,120.000,NA,0.000,0
2026-01-30 21:59:33,1707884,1505.000,-1972.000,8135.000,93.000,60.000,35.000,NA,0.000,0
2026-01-30 21:59:33,1707924,1501.000,-1762.000,8225.000,141.000,43.000,-23.000,NA,0.000,0
2026-01-30 21:59:33,1707964,1566.000,-1887.000,8078.000,-57.000,-59.000,-81.000,NA,0.000,0
2026-01-30 21:59:33,1708004,1759.000,-2003.000,8101.000,-100.000,-117.000,-158.000,NA,0.000,0
2026-01-30 21:59:33,1708044,1773.000,-2150.000,8042.000,-96.000,-99.000,-107.000,NA,0.000,0
2026-01-30 21:59:33,1708084,1619.000,-1915.000,8084.000,109.000,7.000,47.000,NA,0.000,0
2026-01-30 21:59:33,1708126,1539.000,-1683.000,8042.000,136.000,62.000,117.000,NA,0.000,0
2026-01-30 21:59:33,1708165,1525.000,-1693.000,8027.000,51.000,35.000,153.000,NA,0.000,0
2026-01-30 21:59:33,1708204,1541.000,-1621.000,8157.000,51.000,42.000,152.000,NA,0.000,0
2026-01-30 21:59:33,1708244,1499.000,-1657.000,8258.000,93.000,99.000,70.000,NA,0.000,0
2026-01-30 21:59:34,1708284,1578.000,-1724.000,8220.000,12.000,50.000,-61.000,NA,0.000,0
2026-01-30 21:59:34,1708326,1670.000,-1840.000,8071.000,-29.000,-46.000,-161.000,NA,0.000,0
2026-01-30 21:59:34,1708364,1815.000,-1774.000,8103.000,-95.000,-120.000,-185.000,NA,0.000,0
2026-01-30 21:59:34,1708404,1884.000,-1906.000,8041.000,-110.000,-99.000,-147.000,NA,0.000,0
2026-01-30 21:59:34,1708444,1855.000,-1897.000,8041.000,18.000,-12.000,-48.000,NA,0.000,0
2026-01-30 21:59:34,1708484,1793.000,-1562.000,7993.000,97.000,10.000,89.000,NA,0.000,0
2026-01-30 21:59:34,1708524,1859.000,-1542.000,8154.000,-46.000,26.000,184.000,NA,0.000,0
2026-01-30 21:59:34,1708564,1889.000,-1702.000,8336.000,-16.000,126.000,138.000,NA,0.000,0
2026-01-30 21:59:34,1708604,1827.000,-1679.000,8370.000,192.000,191.000,92.000,NA,0.000,0
2026-01-30 21:59:34,1708644,1705.000,-1434.000,8100.000,312.000,157.000,-106.000,NA,0.000,0
2026-01-30 21:59:34,1708684,1775.000,-1505.000,8088.000,-10.000,-5.000,-163.000,NA,0.000,0
2026-01-30 21:59:34,1708724,2009.000,-1809.000,8230.000,-154.000,-108.000,-90.000,NA,0.000,0
2026-01-30 21:59:34,1708764,2178.000,-1492.000,8101.000,300.000,-30.000,-103.000,NA,0.000,0
2026-01-30 21:59:34,1708804,2175.000,-1139.000,7951.000,341.000,51.000,-36.000,NA,0.000,0
2026-01-30 21:59:34,1708844,2092.000,-1336.000,8250.000,102.000,116.000,60.000,NA,0.000,0
2026-01-30 21:59:34,1708884,2001.000,-1255.000,8217.000,448.000,293.000,146.000,NA,0.000,0
2026-01-30 21:59:34,1708924,1906.000,-675.000,8125.000,782.000,309.000,52.000,NA,0.000,0
2026-01-30 21:59:34,1708964,1926.000,-392.000,8064.000,562.000,160.000,56.000,NA,0.000,0
2026-01-30 21:59:34,1709004,1957.000,-586.000,8150.000,165.000,63.000,-3.000,NA,0.000,0
2026-01-30 21:59:34,1709044,1977.000,-985.000,8197.000,-31.000,54.000,-94.000,NA,0.000,0
2026-01-30 21:59:34,1709084,1940.000,-943.000,8111.000,195.000,16.000,-158.000,NA,0.000,0
2026-01-30 21:59:34,1709124,1986.000,-569.000,8038.000,145.000,-107.000,-123.000,NA,0.000,0
2026-01-30 21:59:34,1709164,2135.000,-699.000,8058.000,-250.000,-220.000,-73.000,NA,0.000,0
2026-01-30 21:59:34,1709204,2323.000,-1024.000,8424.000,-441.000,-209.000,3.000,NA,0.000,0
2026-01-30 21:59:34,1709244,2528.000,-1308.000,8378.000,-161.000,-121.000,8.000,NA,0.000,0
2026-01-30 21:59:35,1709284,2555.000,-1161.000,8056.000,63.000,-115.000,-171.000,NA,0.000,0
2026-01-30 21:59:35,1709324,2536.000,-1364.000,7981.000,-296.000,-220.000,-140.000,NA,0.000,0
2026-01-30 21:59:35,1709364,2516.000,-1359.000,8016.000,-277.000,-186.000,-28.000,NA,0.000,0
2026-01-30 21:59:35,1709404,2496.000,-1191.000,8191.000,-153.000,20.000,84.000,NA,0.000,0
2026-01-30 21:59:35,1709444,2249.000,-1061.000,8019.000,166.000,271.000,150.000,NA,0.000,0
2026-01-30 21:59:35,1709484,1890.000,-932.000,7983.000,290.000,445.000,222.000,NA,0.000,0
2026-01-30 21:59:35,1709524,1602.000,-683.000,8017.000,456.000,495.000,304.000,NA,0.000,0
2026-01-30 21:59:35,1709564,1542.000,-389.000,8301.000,488.000,473.000,293.000,NA,0.000,0
2026-01-30 21:59:35,1709604,1621.000,-813.000,8390.000,270.000,405.000,234.000,NA,0.000,0
2026-01-30 21:59:35,1709644,1615.000,-687.000,8231.000,520.000,173.000,-124.000,NA,0.000,0
2026-01-30 21:59:35,1709684,1724.000,-446.000,8075.000,270.000,-134.000,-238.000,NA,0.000,0
2026-01-30 21:59:35,1709724,2052.000,-652.000,8197.000,-337.000,-377.000,-267.000,NA,0.000,0
2026-01-30 21:59:35,1709764,2331.000,-1268.000,8289.000,-594.000,-356.000,-317.000,NA,0.000,0
2026-01-30 21:59:35,1709804,2281.000,-1416.000,8194.000,-147.000,-151.000,-369.000,NA,0.000,0
2026-01-30 21:59:35,1709844,2173.000,-902.000,8139.000,150.000,-90.000,-236.000,NA,0.000,0
2026-01-30 21:59:35,1709884,2209.000,-898.000,8013.000,-123.000,-137.000,-4.000,NA,0.000,0
2026-01-30 21:59:35,1709924,2173.000,-1193.000,7929.000,-160.000,-3.000,138.000,NA,0.000,0
2026-01-30 21:59:35,1709964,1932.000,-904.000,8092.000,30.000,151.000,292.000,NA,0.000,0
2026-01-30 21:59:35,1710004,1865.000,-978.000,8331.000,-178.000,88.000,311.000,NA,0.000,0
2026-01-30 21:59:35,1710044,1800.000,-1093.000,8388.000,-108.000,93.000,167.000,NA,0.000,0
2026-01-30 21:59:35,1710084,1660.000,-868.000,8239.000,133.000,65.000,-24.000,NA,0.000,0
2026-01-30 21:59:35,1710126,1803.000,-854.000,8275.000,-273.000,-104.000,-133.000,NA,0.000,0
2026-01-30 21:59:35,1710164,1946.000,-1158.000,8416.000,-433.000,-142.000,-155.000,NA,0.000,0
2026-01-30 21:59:35,1710204,2147.000,-1713.000,8746.000,-370.000,-118.000,-234.000,NA,0.000,0
2026-01-30 21:59:35,1710244,2243.000,-1610.000,8351.000,67.000,-172.000,-366.000,NA,0.000,0
2026-01-30 21:59:36,1710284,2306.000,-1412.000,7734.000,148.000,-371.000,-491.000,NA,0.000,0
2026-01-30 21:59:36,1710327,2245.000,-1452.000,7697.000,-461.000,-322.000,-87.000,NA,0.000,0
2026-01-30 21:59:36,1710365,2172.000,-1427.000,8045.000,-384.000,-129.000,83.000,NA,0.000,0
2026-01-30 21:59:36,1710404,1792.000,-1143.000,8240.000,361.000,541.000,512.000,NA,0.000,0
2026-01-30 21:59:36,1710444,1420.000,-969.000,8179.000,577.000,622.000,631.000,NA,0.000,0
2026-01-30 21:59:36,1710484,1260.000,-648.000,8186.000,524.000,410.000,553.000,NA,0.000,0
2026-01-30 21:59:36,1710524,1310.000,-539.000,8265.000,180.000,107.000,274.000,NA,0.000,0
2026-01-30 21:59:36,1710564,1571.000,-907.000,8347.000,-217.000,-154.000,-108.000,NA,0.000,0
2026-01-30 21:59:36,1710604,1728.000,-1342.000,8340.000,-289.000,-193.000,-367.000,NA,0.000,0
2026-01-30 21:59:36,1710644,1699.000,-1371.000,8234.000,-68.000,-148.000,-477.000,NA,0.000,0
2026-01-30 21:59:36,1710684,1759.000,-1197.000,8112.000,54.000,-122.000,-406.000,NA,0.000,0
2026-01-30 21:59:36,1710724,1941.000,-1180.000,8199.000,-63.000,-112.000,-256.000,NA,0.000,0
2026-01-30 21:59:36,1710764,2124.000,-1578.000,8193.000,-189.000,-217.000,-98.000,NA,0.000,0
2026-01-30 21:59:36,1710804,2048.000,-1440.000,8131.000,-143.000,-269.000,-34.000,NA,0.000,0
2026-01-30 21:59:36,1710844,1949.000,-1448.000,8122.000,-347.000,-295.000,108.000,NA,0.000,0
2026-01-30 21:59:36,1710884,1972.000,-1509.000,8109.000,-293.000,-221.000,188.000,NA,0.000,0
2026-01-30 21:59:36,1710924,1955.000,-1331.000,8076.000,39.000,-28.000,175.000,NA,0.000,0
2026-01-30 21:59:36,1710964,1827.000,-1159.000,8148.000,186.000,120.000,171.000,NA,0.000,0
2026-01-30 21:59:36,1711004,1735.000,-1166.000,8235.000,113.000,138.000,106.000,NA,0.000,0
2026-01-30 21:59:36,1711044,1632.000,-1319.000,8302.000,34.000,112.000,35.000,NA,0.000,0
2026-01-30 21:59:36,1711084,1539.000,-1252.000,8330.000,150.000,81.000,-3.000,NA,0.000,0
2026-01-30 21:59:36,1711124,1678.000,-1064.000,8170.000,120.000,-8.000,-45.000,NA,0.000,0
2026-01-30 21:59:36,1711164,1762.000,-1193.000,8081.000,3.000,-36.000,-123.000,NA,0.000,0
2026-01-30 21:59:36,1711204,1853.000,-1264.000,8196.000,-83.000,-92.000,-105.000,NA,0.000,0
2026-01-30 21:59:36,1711244,2005.000,-1448.000,8133.000,-63.000,-79.000,-126.000,NA,0.000,0
2026-01-30 21:59:37,1711284,1942.000,-1355.000,8127.000,70.000,11.000,-185.000,NA,0.000,0
2026-01-30 21:59:37,1711324,1895.000,-1234.000,8231.000,-52.000,-22.000,-69.000,NA,0.000,0
2026-01-30 21:59:37,1711364,1929.000,-1325.000,8398.000,-171.000,-47.000,35.000,NA,0.000,0
2026-01-30 21:59:37,1711404,1932.000,-1738.000,8197.000,-171.000,-11.000,50.000,NA,0.000,0
2026-01-30 21:59:37,1711444,1766.000,-1356.000,7709.000,264.000,48.000,-80.000,NA,0.000,0
2026-01-30 21:59:37,1711484,1711.000,-1088.000,7691.000,-58.000,-99.000,-106.000,NA,0.000,0
2026-01-30 21:59:37,1711524,2064.000,-1589.000,8293.000,-542.000,-137.000,99.000,NA,0.000,0
2026-01-30 21:59:37,1711564,2158.000,-1875.000,8397.000,-106.000,169.000,39.000,NA,0.000,0
2026-01-30 21:59:37,1711604,1783.000,-1621.000,8169.000,528.000,400.000,46.000,NA,0.000,0
2026-01-30 21:59:37,1711644,1426.000,-967.000,8097.000,552.000,350.000,114.000,NA,0.000,0
2026-01-30 21:59:37,1711684,1383.000,-1000.000,8189.000,103.000,184.000,131.000,NA,0.000,0
2026-01-30 21:59:37,1711724,1542.000,-1412.000,8302.000,-86.000,116.000,82.000,NA,0.000,0
2026-01-30 21:59:37,1711764,1680.000,-1487.000,8344.000,125.000,122.000,7.000,NA,0.000,0
2026-01-30 21:59:37,1711804,1626.000,-1264.000,8207.000,266.000,124.000,-78.000,NA,0.000,0
2026-01-30 21:59:37,1711844,1590.000,-1119.000,8135.000,94.000,13.000,-142.000,NA,0.000,0
2026-01-30 21:59:37,1711884,1718.000,-1293.000,8253.000,-160.000,-92.000,-104.000,NA,0.000,0
2026-01-30 21:59:37,1711924,1774.000,-1710.000,8251.000,-159.000,-26.000,-36.000,NA,0.000,0
2026-01-30 21:59:37,1711964,1651.000,-1493.000,8077.000,104.000,24.000,-40.000,NA,0.000,0
2026-01-30 21:59:37,1712004,1674.000,-1186.000,8072.000,-57.000,-87.000,18.000,NA,0.000,0
2026-01-30 21:59:37,1712044,1793.000,-1488.000,8252.000,-361.000,-159.000,92.000,NA,0.000,0
2026-01-30 21:59:37,1712084,1779.000,-1672.000,8310.000,-216.000,-65.000,68.000,NA,0.000,0
2026-01-30 21:59:37,1712127,1498.000,-1267.000,8124.000,92.000,50.000,33.000,NA,0.000,0
2026-01-30 21:59:37,1712166,1469.000,-1193.000,8144.000,12.000,21.000,47.000,NA,0.000,0
2026-01-30 21:59:37,1712204,1633.000,-1368.000,8276.000,-209.000,-71.000,53.000,NA,0.000,0
2026-01-30 21:59:37,1712244,1755.000,-1502.000,8255.000,-130.000,-62.000,-15.000,NA,0.000,0
2026-01-30 21:59:38,1712284,1593.000,-1288.000,8094.000,-13.000,-29.000,-57.000,NA,0.000,0
2026-01-30 21:59:38,1712326,1631.000,-1497.000,8184.000,-319.000,-140.000,-30.000,NA,0.000,0
2026-01-30 21:59:38,1712364,1801.000,-1701.000,8215.000,-244.000,-152.000,2.000,NA,0.000,0
2026-01-30 21:59:38,1712404,1919.000,-1517.000,8166.000,13.000,-81.000,-31.000,NA,0.000,0
2026-01-30 21:59:38,1712444,1944.000,-1362.000,8082.000,26.000,-65.000,-44.000,NA,0.000,0
2026-01-30 21:59:38,1712484,1909.000,-1576.000,8121.000,-153.000,-51.000,-10.000,NA,0.000,0
2026-01-30 21:59:38,1712524,1806.000,-1673.000,8248.000,-4.000,25.000,48.000,NA,0.000,0
2026-01-30 21:59:38,1712564,1693.000,-1338.000,8206.000,226.000,94.000,96.000,NA,0.000,0
2026-01-30 21:59:38,1712604,1699.000,-1156.000,8082.000,188.000,71.000,88.000,NA,0.000,0
2026-01-30 21:59:38,1712644,1804.000,-1087.000,8123.000,52.000,-10.000,93.000,NA,0.000,0
2026-01-30 21:59:38,1712684,1992.000,-1264.000,8261.000,43.000,-27.000,3.000,NA,0.000,0
2026-01-30 21:59:38,1712724,1975.000,-1135.000,8185.000,182.000,8.000,-89.000,NA,0.000,0
2026-01-30 21:59:38,1712764,1975.000,-1007.000,8124.000,122.000,-46.000,-86.000,NA,0.000,0
2026-01-30 21:59:38,1712804,2071.000,-981.000,8168.000,57.000,-96.000,-32.000,NA,0.000,0
2026-01-30 21:59:38,1712844,2273.000,-912.000,8305.000,54.000,-123.000,17.000,NA,0.000,0
2026-01-30 21:59:38,1712884,2352.000,-924.000,8219.000,166.000,-90.000,17.000,NA,0.000,0
2026-01-30 21:59:38,1712924,2435.000,-780.000,8104.000,197.000,-117.000,-7.000,NA,0.000,0
2026-01-30 21:59:38,1712964,2499.000,-594.000,8138.000,143.000,-150.000,-64.000,NA,0.000,0
2026-01-30 21:59:38,1713004,2615.000,-669.000,8080.000,-5.000,-184.000,-69.000,NA,0.000,0
2026-01-30 21:59:38,1713044,2610.000,-682.000,8046.000,34.000,-18.000,-132.000,NA,0.000,0
2026-01-30 21:59:38,1713084,2463.000,-636.000,8081.000,119.000,111.000,-84.000,NA,0.000,0
2026-01-30 21:59:38,1713124,2362.000,-683.000,8159.000,70.000,145.000,-10.000,NA,0.000,0
2026-01-30 21:59:38,1713164,2352.000,-684.000,8131.000,175.000,174.000,34.000,NA,0.000,0
2026-01-30 21:59:38,1713204,2303.000,-504.000,8143.000,206.000,179.000,40.000,NA,0.000,0
2026-01-30 21:59:38,1713244,2205.000,-578.000,8122.000,98.000,141.000,3.000,NA,0.000,0
2026-01-30 21:59:39,1713284,2169.000,-646.000,8238.000,5.000,75.000,-33.000,NA,0.000,0
2026-01-30 21:59:39,1713324,2154.000,-843.000,8169.000,-94.000,34.000,-72.000,NA,0.000,0
2026-01-30 21:59:39,1713364,2149.000,-969.000,8145.000,-66.000,81.000,-133.000,NA,0.000,0
2026-01-30 21:59:39,1713404,2052.000,-1029.000,8207.000,-63.000,115.000,-129.000,NA,0.000,0
2026-01-30 21:59:39,1713444,2031.000,-1020.000,8244.000,-55.000,53.000,-55.000,NA,0.000,0
2026-01-30 21:59:39,1713484,2074.000,-1102.000,8193.000,-90.000,18.000,1.000,NA,0.000,0
2026-01-30 21:59:39,1713524,2069.000,-1143.000,8174.000,7.000,48.000,58.000,NA,0.000,0
2026-01-30 21:59:39,1713564,1985.000,-958.000,8206.000,113.000,80.000,72.000,NA,0.000,0
2026-01-30 21:59:39,1713604,1863.000,-983.000,8135.000,38.000,87.000,54.000,NA,0.000,0
2026-01-30 21:59:39,1713644,1849.000,-921.000,8139.000,21.000,20.000,41.000,NA,0.000,0
2026-01-30 21:59:39,1713684,1859.000,-1019.000,8135.000,-21.000,32.000,22.000,NA,0.000,0
2026-01-30 21:59:39,1713724,1822.000,-1031.000,8247.000,56.000,89.000,-11.000,NA,0.000,0
2026-01-30 21:59:39,1713764,1824.000,-1055.000,8227.000,73.000,93.000,-24.000,NA,0.000,0
2026-01-30 21:59:39,1713804,1884.000,-1032.000,8230.000,90.000,21.000,-39.000,NA,0.000,0
2026-01-30 21:59:39,1713844,1901.000,-1060.000,8195.000,17.000,-8.000,-25.000,NA,0.000,0
2026-01-30 21:59:39,1713884,1938.000,-1053.000,8227.000,-13.000,-38.000,-15.000,NA,0.000,0
2026-01-30 21:59:39,1713924,1942.000,-1123.000,8198.000,-51.000,-51.000,-9.000,NA,0.000,0
2026-01-30 21:59:39,1713964,1942.000,-1114.000,8221.000,-51.000,-52.000,11.000,NA,0.000,0
2026-01-30 21:59:39,1714004,1920.000,-1094.000,8229.000,-62.000,-45.000,11.000,NA,0.000,0
2026-01-30 21:59:39,1714044,1853.000,-1103.000,8179.000,-9.000,-3.000,7.000,NA,0.000,0
2026-01-30 21:59:39,1714084,1836.000,-1019.000,8214.000,-15.000,-17.000,17.000,NA,0.000,0
2026-01-30 21:59:39,1714124,1834.000,-1073.000,8167.000,15.000,16.000,6.000,NA,0.000,0
2026-01-30 21:59:39,1714166,1868.000,-1077.000,8226.000,-19.000,-9.000,9.000,NA,0.000,0
2026-01-30 21:59:39,1714205,1878.000,-1120.000,8211.000,-34.000,-19.000,5.000,NA,0.000,0
2026-01-30 21:59:39,1714244,1879.000,-1063.000,8190.000,22.000,-16.000,-29.000,NA,0.000,0
2026-01-30 21:59:40,1714284,1874.000,-1112.000,8120.000,-63.000,-54.000,-39.000,NA,0.000,0
2026-01-30 21:59:40,1714324,1908.000,-1121.000,8209.000,-75.000,-65.000,-30.000,NA,0.000,0
2026-01-30 21:59:40,1714364,1926.000,-1217.000,8213.000,-92.000,-49.000,-14.000,NA,0.000,0
2026-01-30 21:59:40,1714404,1848.000,-1188.000,8218.000,-8.000,-4.000,-6.000,NA,0.000,0
2026-01-30 21:59:40,1714444,1808.000,-1106.000,8187.000,-18.000,-19.000,15.000,NA,0.000,0
2026-01-30 21:59:40,1714484,1795.000,-1146.000,8194.000,-37.000,-16.000,26.000,NA,0.000,0
2026-01-30 21:59:40,1714524,1789.000,-1110.000,8207.000,-14.000,-19.000,17.000,NA,0.000,0
2026-01-30 21:59:40,1714564,1822.000,-1170.000,8196.000,-53.000,-44.000,-15.000,NA,0.000,0
2026-01-30 21:59:40,1714604,1830.000,-1222.000,8201.000,-73.000,-46.000,-38.000,NA,0.000,0
2026-01-30 21:59:40,1714644,1750.000,-1361.000,8131.000,-42.000,-15.000,-53.000,NA,0.000,0
2026-01-30 21:59:40,1714684,1749.000,-1316.000,8213.000,-75.000,-56.000,-28.000,NA,0.000,0
2026-01-30 21:59:40,1714724,1594.000,-1699.000,8271.000,-348.000,-23.000,22.000,NA,0.000,0
2026-01-30 21:59:40,1714764,1351.000,-2065.000,8313.000,-251.000,15.000,68.000,NA,0.000,0
2026-01-30 21:59:40,1714804,1256.000,-1920.000,8235.000,4.000,-19.000,70.000,NA,0.000,0
2026-01-30 21:59:40,1714844,1349.000,-1518.000,8122.000,106.000,-70.000,25.000,NA,0.000,0
2026-01-30 21:59:40,1714884,1611.000,-1382.000,8062.000,-144.000,-228.000,37.000,NA,0.000,0
2026-01-30 21:59:40,1714924,1770.000,-1595.000,8086.000,-264.000,-201.000,56.000,NA,0.000,0
2026-01-30 21:59:40,1714964,1626.000,-1516.000,8124.000,86.000,13.000,30.000,NA,0.000,0
2026-01-30 21:59:40,1715004,1513.000,-1418.000,8164.000,42.000,7.000,18.000,NA,0.000,0
2026-01-30 21:59:40,1715044,1497.000,-1624.000,8209.000,-88.000,-37.000,2.000,NA,0.000,0
2026-01-30 21:59:40,1715084,1524.000,-1683.000,8269.000,-39.000,-40.000,-25.000,NA,0.000,0
2026-01-30 21:59:40,1715124,1567.000,-1655.000,8224.000,11.000,-28.000,-58.000,NA,0.000,0
2026-01-30 21:59:40,1715164,1633.000,-1634.000,8186.000,11.000,-32.000,-51.000,NA,0.000,0
2026-01-30 21:59:40,1715204,1702.000,-1556.000,8144.000,16.000,-60.000,-34.000,NA,0.000,0
2026-01-30 21:59:40,1715244,1752.000,-1550.000,8107.000,-17.000,-75.000,-19.000,NA,0.000,0
2026-01-30 21:59:41,1715284,1751.000,-1564.000,8091.000,-30.000,-46.000,4.000,NA,0.000,0
2026-01-30 21:59:41,1715324,1661.000,-1659.000,8202.000,-47.000,-13.000,14.000,NA,0.000,0
2026-01-30 21:59:41,1715364,1579.000,-1699.000,8201.000,6.000,34.000,-9.000,NA,0.000,0
2026-01-30 21:59:41,1715404,1533.000,-1626.000,8192.000,35.000,37.000,-12.000,NA,0.000,0
2026-01-30 21:59:41,1715444,1549.000,-1590.000,8162.000,-1.000,4.000,2.000,NA,0.000,0
2026-01-30 21:59:41,1715484,1593.000,-1542.000,8161.000,23.000,16.000,10.000,NA,0.000,0
2026-01-30 21:59:41,1715524,1615.000,-1519.000,8123.000,28.000,37.000,6.000,NA,0.000,0
2026-01-30 21:59:41,1715564,1610.000,-1530.000,8123.000,33.000,41.000,-15.000,NA,0.000,0
2026-01-30 21:59:41,1715604,1654.000,-1556.000,8200.000,7.000,9.000,-34.000,NA,0.000,0
2026-01-30 21:59:41,1715644,1693.000,-1706.000,8194.000,-29.000,-1.000,-46.000,NA,0.000,0
2026-01-30 21:59:41,1715684,1659.000,-1707.000,8196.000,38.000,18.000,-47.000,NA,0.000,0
2026-01-30 21:59:41,1715724,1590.000,-1571.000,8148.000,20.000,11.000,5.000,NA,0.000,0
2026-01-30 21:59:41,1715764,1587.000,-1606.000,8163.000,0.000,9.000,41.000,NA,0.000,0
2026-01-30 21:59:41,1715804,1587.000,-1483.000,8195.000,69.000,35.000,44.000,NA,0.000,0
2026-01-30 21:59:41,1715844,1578.000,-1475.000,8161.000,40.000,41.000,14.000,NA,0.000,0
2026-01-30 21:59:41,1715884,1569.000,-1537.000,8177.000,23.000,38.000,-23.000,NA,0.000,0
2026-01-30 21:59:41,1715924,1582.000,-1591.000,8202.000,9.000,22.000,-54.000,NA,0.000,0
2026-01-30 21:59:41,1715964,1594.000,-1660.000,8184.000,-3.000,9.000,-60.000,NA,0.000,0
2026-01-30 21:59:41,1716004,1614.000,-1602.000,8171.000,24.000,0.000,-28.000,NA,0.000,0
2026-01-30 21:59:41,1716044,1629.000,-1618.000,8142.000,0.000,-4.000,6.000,NA,0.000,0
2026-01-30 21:59:41,1716084,1608.000,-1516.000,8176.000,31.000,-3.000,36.000,NA,0.000,0
2026-01-30 21:59:41,1716124,1578.000,-1555.000,8180.000,10.000,30.000,27.000,NA,0.000,0
2026-01-30 21:59:41,1716166,1538.000,-1507.000,8213.000,27.000,24.000,-6.000,NA,0.000,0
2026-01-30 21:59:41,1716205,1552.000,-1530.000,8200.000,17.000,21.000,-27.000,NA,0.000,0
2026-01-30 21:59:41,1716244,1539.000,-1558.000,8196.000,18.000,17.000,-39.000,NA,0.000,0
2026-01-30 21:59:42,1716284,1579.000,-1589.000,8163.000,-11.000,-19.000,-30.000,NA,0.000,0
2026-01-30 21:59:42,1716326,1613.000,-1589.000,8177.000,-4.000,-5.000,3.000,NA,0.000,0
2026-01-30 21:59:42,1716364,1617.000,-1577.000,8181.000,-5.000,-8.000,16.000,NA,0.000,0
2026-01-30 21:59:42,1716404,1601.000,-1584.000,8181.000,-1.000,6.000,17.000,NA,0.000,0
2026-01-30 21:59:42,1716444,1569.000,-1524.000,8193.000,32.000,13.000,13.000,NA,0.000,0
2026-01-30 21:59:42,1716484,1554.000,-1530.000,8187.000,-11.000,-3.000,-5.000,NA,0.000,0
2026-01-30 21:59:42,1716524,1549.000,-1530.000,8182.000,-7.000,-1.000,-19.000,NA,0.000,0
2026-01-30 21:59:42,1716564,1569.000,-1583.000,8182.000,-29.000,-12.000,-27.000,NA,0.000,0
2026-01-30 21:59:42,1716604,1571.000,-1566.000,8212.000,-1.000,-6.000,-24.000,NA,0.000,0
2026-01-30 21:59:42,1716644,1574.000,-1580.000,8183.000,-77.000,-22.000,-12.000,NA,0.000,0
2026-01-30 21:59:42,1716684,1598.000,-1669.000,8164.000,-73.000,-27.000,3.000,NA,0.000,0
2026-01-30 21:59:42,1716724,1573.000,-1548.000,8191.000,29.000,10.000,0.000,NA,0.000,0
2026-01-30 21:59:42,1716764,1570.000,-1530.000,8181.000,-12.000,0.000,2.000,NA,0.000,0
2026-01-30 21:59:42,1716804,1613.000,-1617.000,8147.000,-43.000,6.000,-4.000,NA,0.000,0
2026-01-30 21:59:42,1716844,1588.000,-1615.000,8168.000,50.000,32.000,-32.000,NA,0.000,0
2026-01-30 21:59:42,1716884,1560.000,-1551.000,8194.000,93.000,54.000,-33.000,NA,0.000,0
2026-01-30 21:59:42,1716924,1544.000,-1572.000,8179.000,36.000,42.000,-25.000,NA,0.000,0
2026-01-30 21:59:42,1716964,1549.000,-1572.000,8203.000,32.000,35.000,3.000,NA,0.000,0
2026-01-30 21:59:42,1717004,1545.000,-1532.000,8192.000,52.000,28.000,6.000,NA,0.000,0
2026-01-30 21:59:42,1717044,1521.000,-1508.000,8192.000,42.000,39.000,2.000,NA,0.000,0
2026-01-30 21:59:42,1717084,1524.000,-1503.000,8212.000,17.000,6.000,1.000,NA,0.000,0
2026-01-30 21:59:42,1717124,1553.000,-1514.000,8174.000,-17.000,-22.000,-11.000,NA,0.000,0
2026-01-30 21:59:42,1717164,1554.000,-1571.000,8186.000,-19.000,-7.000,-24.000,NA,0.000,0
2026-01-30 21:59:42,1717204,1558.000,-1584.000,8185.000,-23.000,-9.000,-14.000,NA,0.000,0
2026-01-30 21:59:42,1717244,1605.000,-1548.000,8156.000,56.000,-122.000,10.000,NA,0.000,0
2026-01-30 21:59:43,1717284,1543.000,-1540.000,8164.000,-51.000,-187.000,24.000,NA,0.000,0
2026-01-30 21:59:43,1717324,1521.000,-1472.000,8257.000,-70.000,19.000,25.000,NA,0.000,0
2026-01-30 21:59:43,1717364,1598.000,-1586.000,8161.000,-114.000,-31.000,11.000,NA,0.000,0
2026-01-30 21:59:43,1717404,1563.000,-1617.000,8183.000,-45.000,-39.000,-13.000,NA,0.000,0
2026-01-30 21:59:43,1717444,1609.000,-1557.000,8188.000,19.000,-21.000,-7.000,NA,0.000,0
2026-01-30 21:59:43,1717484,1598.000,-1634.000,8171.000,38.000,-4.000,-23.000,NA,0.000,0
2026-01-30 21:59:43,1717524,1635.000,-1566.000,8265.000,86.000,104.000,-12.000,NA,0.000,0
2026-01-30 21:59:43,1717564,1584.000,-1815.000,8110.000,97.000,99.000,-6.000,NA,0.000,0
2026-01-30 21:59:43,1717604,1431.000,-1416.000,8164.000,210.000,142.000,-16.000,NA,0.000,0
2026-01-30 21:59:43,1717644,1537.000,-1517.000,8205.000,-59.000,-29.000,14.000,NA,0.000,0
2026-01-30 21:59:43,1717684,1562.000,-1585.000,8214.000,-10.000,-5.000,-15.000,NA,0.000,0
2026-01-30 21:59:43,1717724,1549.000,-1516.000,8185.000,52.000,18.000,-23.000,NA,0.000,0
2026-01-30 21:59:43,1717764,1509.000,-1526.000,8180.000,9.000,15.000,-18.000,NA,0.000,0
2026-01-30 21:59:43,1717804,1542.000,-1538.000,8199.000,-6.000,-16.000,8.000,NA,0.000,0
2026-01-30 21:59:43,1717844,1552.000,-1546.000,8196.000,14.000,-2.000,4.000,NA,0.000,0
2026-01-30 21:59:43,1717884,1541.000,-1505.000,8199.000,24.000,6.000,7.000,NA,0.000,0
2026-01-30 21:59:43,1717924,1543.000,-1543.000,8206.000,-2.000,0.000,6.000,NA,0.000,0
2026-01-30 21:59:43,1717964,1536.000,-1511.000,8202.000,32.000,3.000,-8.000,NA,0.000,0
2026-01-30 21:59:43,1718004,1522.000,-1528.000,8184.000,1.000,-2.000,-11.000,NA,0.000,0
2026-01-30 21:59:43,1718044,1551.000,-1533.000,8199.000,-2.000,-15.000,-6.000,NA,0.000,0
2026-01-30 21:59:43,1718084,1546.000,-1536.000,8197.000,7.000,3.000,-3.000,NA,0.000,0
2026-01-30 21:59:43,1718124,1533.000,-1517.000,8198.000,2.000,1.000,-2.000,NA,0.000,0
2026-01-30 21:59:43,1718166,1533.000,-1510.000,8194.000,1.000,-8.000,3.000,NA,0.000,0
2026-01-30 21:59:43,1718205,1518.000,-1538.000,8196.000,-6.000,-10.000,1.000,NA,0.000,0
2026-01-30 21:59:43,1718244,1517.000,-1496.000,8205.000,16.000,-7.000,3.000,NA,0.000,0
2026-01-30 21:59:44,1718284,1550.000,-1544.000,8184.000,-13.000,-21.000,-6.000,NA,0.000,0
2026-01-30 21:59:44,1718326,1520.000,-1456.000,8218.000,29.000,11.000,-9.000,NA,0.000,0
2026-01-30 21:59:44,1718364,1532.000,-1508.000,8180.000,-27.000,-16.000,-7.000,NA,0.000,0
2026-01-30 21:59:44,1718404,1559.000,-1540.000,8198.000,30.000,13.000,1.000,NA,0.000,0
2026-01-30 21:59:44,1718444,1518.000,-1503.000,8189.000,30.000,19.000,-4.000,NA,0.000,0
2026-01-30 21:59:44,1718484,1531.000,-1499.000,8201.000,-15.000,-19.000,-1.000,NA,0.000,0
2026-01-30 21:59:44,1718524,1561.000,-1526.000,8195.000,-29.000,-20.000,1.000,NA,0.000,0
2026-01-30 21:59:44,1718564,1553.000,-1472.000,8150.000,25.000,85.000,6.000,NA,0.000,0
2026-01-30 21:59:44,1718604,1359.000,-1462.000,8250.000,-53.000,228.000,44.000,NA,0.000,0
2026-01-30 21:59:44,1718644,1448.000,-1569.000,8209.000,-119.000,145.000,46.000,NA,0.000,0
2026-01-30 21:59:44,1718684,1580.000,-1508.000,8213.000,-55.000,176.000,36.000,NA,0.000,0
2026-01-30 21:59:44,1718724,1483.000,-1572.000,8214.000,-36.000,137.000,13.000,NA,0.000,0
2026-01-30 21:59:44,1718764,1359.000,-1604.000,8329.000,-89.000,-203.000,-7.000,NA,0.000,0
2026-01-30 21:59:44,1718804,1736.000,-1914.000,8060.000,123.000,-538.000,-107.000,NA,0.000,0
2026-01-30 21:59:44,1718844,1494.000,-1434.000,8143.000,212.000,54.000,-40.000,NA,0.000,0
