datetime_local,uptime_ms,acc_x,acc_y,acc_z,gyro_x,gyro_y,gyro_z,speed_mps,turn_rate_deg_s,gps_valid
2026-01-30 21:42:05,660004,1184.000,-3496.000,7311.000,1800.000,-1988.000,45.000,NA,0.000,0
2026-01-30 21:42:05,660044,-404.000,-3634.000,7079.000,-50.000,192.000,-169.000,NA,0.000,0
2026-01-30 21:42:05,660084,-438.000,-3615.000,7642.000,-131.000,271.000,-54.000,NA,0.000,0
2026-01-30 21:42:05,660124,-347.000,-3485.000,7731.000,309.000,42.000,31.000,NA,0.000,0
2026-01-30 21:42:05,660164,-183.000,-3164.000,7709.000,134.000,-78.000,-20.000,NA,0.000,0
2026-01-30 21:42:05,660204,-204.000,-3672.000,7813.000,237.000,-112.000,-4.000,NA,0.000,0
2026-01-30 21:42:05,660244,-270.000,-3280.000,7955.000,53.000,26.000,30.000,NA,0.000,0
2026-01-30 21:42:06,660284,-300.000,-3598.000,7680.000,-141.000,20.000,76.000,NA,0.000,0
2026-01-30 21:42:06,660324,-330.000,-3363.000,7736.000,169.000,60.000,-35.000,NA,0.000,0
2026-01-30 21:42:06,660364,-271.000,-3445.000,7744.000,-73.000,-6.000,-19.000,NA,0.000,0
2026-01-30 21:42:06,660404,-190.000,-3602.000,7752.000,92.000,8.000,-39.000,NA,0.000,0
2026-01-30 21:42:06,660444,-289.000,-3574.000,7815.000,155.000,59.000,-54.000,NA,0.000,0
2026-01-30 21:42:06,660484,-227.000,-3514.000,7695.000,-105.000,48.000,61.000,NA,0.000,0
2026-01-30 21:42:06,660524,-339.000,-3832.000,7483.000,131.000,5.000,76.000,NA,0.000,0
2026-01-30 21:42:06,660564,-200.000,-3095.000,7677.000,408.000,-148.000,134.000,NA,0.000,0
2026-01-30 21:42:06,660604,-240.000,-3778.000,7490.000,546.000,-198.000,147.000,NA,0.000,0
2026-01-30 21:42:06,660644,-184.000,-3517.000,7454.000,1321.000,-310.000,28.000,NA,0.000,0
2026-01-30 21:42:06,660684,-65.000,-3286.000,7343.000,1345.000,-464.000,110.000,NA,0.000,0
2026-01-30 21:42:06,660724,-387.000,-3559.000,7109.000,1502.000,-547.000,140.000,NA,0.000,0
2026-01-30 21:42:06,660764,-409.000,-2945.000,7457.000,2675.000,-983.000,108.000,NA,0.000,0
2026-01-30 21:42:06,660804,-102.000,-1977.000,7997.000,1927.000,-1254.000,342.000,NA,0.000,0
2026-01-30 21:42:06,660844,-509.000,-2855.000,7907.000,1570.000,-1194.000,370.000,NA,0.000,0
2026-01-30 21:42:06,660884,139.000,-2010.000,8179.000,2730.000,-1404.000,49.000,NA,0.000,0
2026-01-30 21:42:06,660924,177.000,-1312.000,8616.000,2787.000,-1460.000,-301.000,NA,0.000,0
2026-01-30 21:42:06,660964,506.000,-1772.000,8509.000,1405.000,-1280.000,-215.000,NA,0.000,0
2026-01-30 21:42:06,661004,1456.000,-1349.000,9530.000,1086.000,-1084.000,-143.000,NA,0.000,0
2026-01-30 21:42:06,661044,1349.000,-1980.000,9360.000,1192.000,-460.000,-39.000,NA,0.000,0
2026-01-30 21:42:06,661084,660.000,-791.000,8511.000,1415.000,-110.000,25.000,NA,0.000,0
2026-01-30 21:42:06,661124,680.000,-1324.000,7906.000,152.000,-317.000,69.000,NA,0.000,0
2026-01-30 21:42:06,661164,913.000,-1559.000,8018.000,794.000,-529.000,52.000,NA,0.000,0
2026-01-30 21:42:06,661204,711.000,-1097.000,8284.000,984.000,-252.000,83.000,NA,0.000,0
2026-01-30 21:42:06,661244,712.000,-1163.000,8264.000,623.000,-186.000,153.000,NA,0.000,0
2026-01-30 21:42:07,661284,1240.000,-1066.000,8521.000,828.000,-390.000,120.000,NA,0.000,0
2026-01-30 21:42:07,661324,1285.000,-432.000,8479.000,862.000,-154.000,-33.000,NA,0.000,0
2026-01-30 21:42:07,661364,975.000,-502.000,8359.000,57.000,-26.000,-125.000,NA,0.000,0
2026-01-30 21:42:07,661404,1074.000,-630.000,8506.000,108.000,-60.000,-196.000,NA,0.000,0
2026-01-30 21:42:07,661444,1109.000,-863.000,8510.000,-285.000,14.000,-124.000,NA,0.000,0
2026-01-30 21:42:07,661484,1078.000,-978.000,8377.000,23.000,-2.000,-171.000,NA,0.000,0
2026-01-30 21:42:07,661524,1045.000,-865.000,8342.000,-109.000,-14.000,-57.000,NA,0.000,0
2026-01-30 21:42:07,661564,1150.000,-875.000,8363.000,43.000,-57.000,-13.000,NA,0.000,0
2026-01-30 21:42:07,661604,1230.000,-660.000,8432.000,93.000,-60.000,-69.000,NA,0.000,0
2026-01-30 21:42:07,661644,1111.000,-754.000,8312.000,-152.000,-35.000,-48.000,NA,0.000,0
2026-01-30 21:42:07,661684,1172.000,-946.000,8249.000,-47.000,-45.000,-24.000,NA,0.000,0
2026-01-30 21:42:07,661724,1092.000,-818.000,8345.000,102.000,-24.000,64.000,NA,0.000,0
2026-01-30 21:42:07,661764,1026.000,-825.000,8300.000,164.000,-16.000,34.000,NA,0.000,0
2026-01-30 21:42:07,661804,964.000,-688.000,8360.000,211.000,-59.000,23.000,NA,0.000,0
2026-01-30 21:42:07,661881,1079.000,-634.000,8430.000,77.000,-8.000,-11.000,NA,0.000,0
2026-01-30 21:42:07,661924,1100.000,-754.000,8365.000,-145.000,-6.000,-4.000,NA,0.000,0
2026-01-30 21:42:07,661964,1126.000,-873.000,8379.000,-2.000,-42.000,-29.000,NA,0.000,0
2026-01-30 21:42:07,662004,1081.000,-811.000,8365.000,-60.000,-18.000,-5.000,NA,0.000,0
2026-01-30 21:42:07,662046,1133.000,-733.000,8303.000,-8.000,-13.000,27.000,NA,0.000,0
2026-01-30 21:42:07,662084,1112.000,-776.000,8327.000,65.000,-10.000,13.000,NA,0.000,0
2026-01-30 21:42:07,662124,1080.000,-704.000,8366.000,-19.000,-4.000,18.000,NA,0.000,0
2026-01-30 21:42:07,662164,1072.000,-756.000,8369.000,5.000,9.000,-2.000,NA,0.000,0
2026-01-30 21:42:07,662204,1120.000,-672.000,8424.000,128.000,20.000,-19.000,NA,0.000,0
2026-01-30 21:42:07,662244,1144.000,-675.000,8382.000,-55.000,1.000,-35.000,NA,0.000,0
2026-01-30 21:42:08,662284,1162.000,-779.000,8356.000,-13.000,-6.000,-53.000,NA,0.000,0
2026-01-30 21:42:08,662324,1148.000,-776.000,8353.000,56.000,-32.000,-16.000,NA,0.000,0
2026-01-30 21:42:08,662364,1137.000,-615.000,8369.000,51.000,-13.000,29.000,NA,0.000,0
2026-01-30 21:42:08,662404,1132.000,-639.000,8374.000,-32.000,12.000,49.000,NA,0.000,0
2026-01-30 21:42:08,662444,1087.000,-721.000,8400.000,18.000,8.000,31.000,NA,0.000,0
2026-01-30 21:42:08,662484,1076.000,-704.000,8374.000,-7.000,-4.000,-14.000,NA,0.000,0
2026-01-30 21:42:08,662524,1155.000,-629.000,8369.000,49.000,1.000,-19.000,NA,0.000,0
2026-01-30 21:42:08,662564,1170.000,-685.000,8345.000,72.000,9.000,-35.000,NA,0.000,0
2026-01-30 21:42:08,662604,1196.000,-691.000,8431.000,-1.000,-10.000,-11.000,NA,0.000,0
2026-01-30 21:42:08,662644,1120.000,-689.000,8356.000,82.000,18.000,3.000,NA,0.000,0
2026-01-30 21:42:08,662684,1145.000,-559.000,8363.000,48.000,-11.000,19.000,NA,0.000,0
2026-01-30 21:42:08,662724,1105.000,-627.000,8374.000,13.000,7.000,14.000,NA,0.000,0
2026-01-30 21:42:08,662764,1113.000,-591.000,8419.000,91.000,14.000,19.000,NA,0.000,0
2026-01-30 21:42:08,662804,1120.000,-525.000,8363.000,67.000,29.000,-8.000,NA,0.000,0
2026-01-30 21:42:08,662844,1161.000,-570.000,8388.000,-42.000,3.000,-12.000,NA,0.000,0
2026-01-30 21:42:08,662884,1182.000,-638.000,8385.000,-18.000,4.000,-54.000,NA,0.000,0
2026-01-30 21:42:08,662924,1186.000,-649.000,8295.000,-42.000,15.000,-28.000,NA,0.000,0
2026-01-30 21:42:08,662964,1217.000,-634.000,8374.000,63.000,2.000,-3.000,NA,0.000,0
2026-01-30 21:42:08,663004,1172.000,-584.000,8423.000,46.000,-9.000,34.000,NA,0.000,0
2026-01-30 21:42:08,663044,1095.000,-613.000,8405.000,40.000,-11.000,26.000,NA,0.000,0
2026-01-30 21:42:08,663084,1082.000,-582.000,8344.000,56.000,-11.000,34.000,NA,0.000,0
2026-01-30 21:42:08,663124,1121.000,-472.000,8413.000,77.000,-8.000,3.000,NA,0.000,0
2026-01-30 21:42:08,663164,1138.000,-526.000,8396.000,36.000,12.000,-29.000,NA,0.000,0
2026-01-30 21:42:08,663204,1208.000,-542.000,8335.000,-18.000,20.000,-20.000,NA,0.000,0
2026-01-30 21:42:08,663244,1196.000,-661.000,8344.000,-3.000,-1.000,-21.000,NA,0.000,0
2026-01-30 21:42:09,663284,1164.000,-478.000,8395.000,111.000,-6.000,19.000,NA,0.000,0
2026-01-30 21:42:09,663324,1119.000,-519.000,8411.000,44.000,0.000,33.000,NA,0.000,0
2026-01-30 21:42:09,663364,1058.000,-543.000,8453.000,111.000,-5.000,15.000,NA,0.000,0
2026-01-30 21:42:09,663404,1096.000,-614.000,8393.000,-65.000,0.000,25.000,NA,0.000,0
2026-01-30 21:42:09,663444,1097.000,-513.000,8371.000,56.000,0.000,-20.000,NA,0.000,0
2026-01-30 21:42:09,663484,1169.000,-571.000,8401.000,8.000,-15.000,-24.000,NA,0.000,0
2026-01-30 21:42:09,663524,1146.000,-564.000,8387.000,-10.000,-3.000,-29.000,NA,0.000,0
2026-01-30 21:42:09,663564,1134.000,-603.000,8398.000,-32.000,-13.000,-2.000,NA,0.000,0
2026-01-30 21:42:09,663604,1118.000,-582.000,8328.000,4.000,-4.000,8.000,NA,0.000,0
2026-01-30 21:42:09,663644,1052.000,-655.000,8401.000,-82.000,-37.000,34.000,NA,0.000,0
2026-01-30 21:42:09,663684,1021.000,-800.000,8415.000,-62.000,-42.000,38.000,NA,0.000,0
2026-01-30 21:42:09,663724,999.000,-797.000,8451.000,-34.000,-65.000,29.000,NA,0.000,0
2026-01-30 21:42:09,663764,986.000,-839.000,8433.000,-64.000,-73.000,28.000,NA,0.000,0
2026-01-30 21:42:09,663804,1006.000,-777.000,8395.000,-76.000,-53.000,22.000,NA,0.000,0
2026-01-30 21:42:09,663844,1039.000,-809.000,8312.000,-59.000,-40.000,11.000,NA,0.000,0
2026-01-30 21:42:09,663884,994.000,-828.000,8274.000,-59.000,-23.000,10.000,NA,0.000,0
2026-01-30 21:42:09,663926,1014.000,-777.000,8302.000,94.000,-16.000,22.000,NA,0.000,0
2026-01-30 21:42:09,663965,921.000,-765.000,8328.000,52.000,7.000,34.000,NA,0.000,0
2026-01-30 21:42:09,664004,973.000,-789.000,8451.000,32.000,-9.000,24.000,NA,0.000,0
2026-01-30 21:42:09,664044,1000.000,-897.000,8449.000,-92.000,-11.000,-5.000,NA,0.000,0
2026-01-30 21:42:09,664084,989.000,-972.000,8318.000,-65.000,-28.000,-17.000,NA,0.000,0
2026-01-30 21:42:09,664124,972.000,-975.000,8315.000,-92.000,-72.000,0.000,NA,0.000,0
2026-01-30 21:42:09,664164,952.000,-1029.000,8287.000,-84.000,-39.000,47.000,NA,0.000,0
2026-01-30 21:42:09,664204,882.000,-1040.000,8346.000,-24.000,-48.000,75.000,NA,0.000,0
2026-01-30 21:42:09,664244,910.000,-1046.000,8449.000,37.000,-79.000,76.000,NA,0.000,0
2026-01-30 21:42:10,664284,811.000,-954.000,8387.000,31.000,-30.000,69.000,NA,0.000,0
2026-01-30 21:42:10,664324,842.000,-986.000,8433.000,-20.000,-56.000,34.000,NA,0.000,0
2026-01-30 21:42:10,664364,892.000,-1002.000,8400.000,15.000,-24.000,-17.000,NA,0.000,0
2026-01-30 21:42:10,664404,953.000,-1114.000,8400.000,-166.000,-51.000,-8.000,NA,0.000,0
2026-01-30 21:42:10,664444,890.000,-1223.000,8324.000,-60.000,-31.000,-16.000,NA,0.000,0
2026-01-30 21:42:10,664484,821.000,-1208.000,8334.000,-160.000,-90.000,43.000,NA,0.000,0
2026-01-30 21:42:10,664524,816.000,-1362.000,8356.000,-260.000,-134.000,64.000,NA,0.000,0
2026-01-30 21:42:10,664564,696.000,-1479.000,8309.000,-228.000,-127.000,79.000,NA,0.000,0
2026-01-30 21:42:10,664604,590.000,-1590.000,8344.000,-384.000,-191.000,116.000,NA,0.000,0
2026-01-30 21:42:10,664644,613.000,-1921.000,8369.000,-360.000,-212.000,139.000,NA,0.000,0
2026-01-30 21:42:10,664684,463.000,-1815.000,8480.000,-1.000,-136.000,149.000,NA,0.000,0
2026-01-30 21:42:10,664724,594.000,-1640.000,8427.000,14.000,-161.000,173.000,NA,0.000,0
2026-01-30 21:42:10,664764,716.000,-1638.000,8348.000,-23.000,-108.000,82.000,NA,0.000,0
2026-01-30 21:42:10,664804,689.000,-1795.000,8181.000,-180.000,-71.000,36.000,NA,0.000,0
2026-01-30 21:42:10,664844,512.000,-1863.000,8194.000,-9.000,-32.000,0.000,NA,0.000,0
2026-01-30 21:42:10,664884,617.000,-1817.000,8342.000,23.000,-44.000,45.000,NA,0.000,0
2026-01-30 21:42:10,664924,651.000,-1646.000,8324.000,186.000,45.000,25.000,NA,0.000,0
2026-01-30 21:42:10,664964,596.000,-1634.000,8283.000,74.000,65.000,-24.000,NA,0.000,0
2026-01-30 21:42:10,665004,608.000,-1739.000,8266.000,35.000,43.000,-64.000,NA,0.000,0
2026-01-30 21:42:10,665044,620.000,-1718.000,8316.000,165.000,23.000,-78.000,NA,0.000,0
2026-01-30 21:42:10,665084,666.000,-1610.000,8364.000,42.000,9.000,-73.000,NA,0.000,0
2026-01-30 21:42:10,665124,594.000,-1737.000,8390.000,51.000,-7.000,-41.000,NA,0.000,0
2026-01-30 21:42:10,665164,577.000,-1756.000,8413.000,-60.000,-79.000,-6.000,NA,0.000,0
2026-01-30 21:42:10,665204,543.000,-1845.000,8364.000,-82.000,-104.000,3.000,NA,0.000,0
2026-01-30 21:42:10,665244,563.000,-1802.000,8330.000,-54.000,-83.000,4.000,NA,0.000,0
2026-01-30 21:42:11,665284,636.000,-1785.000,8331.000,-51.000,-110.000,-10.000,NA,0.000,0
2026-01-30 21:42:11,665324,662.000,-1798.000,8315.000,-117.000,-93.000,-21.000,NA,0.000,0
2026-01-30 21:42:11,665364,611.000,-1964.000,8285.000,-111.000,-79.000,-13.000,NA,0.000,0
2026-01-30 21:42:11,665404,606.000,-1961.000,8290.000,-95.000,-111.000,12.000,NA,0.000,0
2026-01-30 21:42:11,665444,470.000,-2059.000,8317.000,4.000,-114.000,13.000,NA,0.000,0
2026-01-30 21:42:11,665484,499.000,-1973.000,8340.000,-5.000,-114.000,53.000,NA,0.000,0
2026-01-30 21:42:11,665524,566.000,-1633.000,8314.000,205.000,-57.000,42.000,NA,0.000,0
2026-01-30 21:42:11,665564,688.000,-1740.000,8305.000,-86.000,-27.000,29.000,NA,0.000,0
2026-01-30 21:42:11,665604,587.000,-1984.000,8367.000,-18.000,-23.000,-29.000,NA,0.000,0
2026-01-30 21:42:11,665644,561.000,-2002.000,8372.000,52.000,-73.000,-12.000,NA,0.000,0
2026-01-30 21:42:11,665684,613.000,-1881.000,8419.000,61.000,-90.000,6.000,NA,0.000,0
2026-01-30 21:42:11,665724,695.000,-1741.000,8342.000,130.000,-82.000,-34.000,NA,0.000,0
2026-01-30 21:42:11,665764,737.000,-1713.000,8214.000,-59.000,4.000,-28.000,NA,0.000,0
2026-01-30 21:42:11,665804,800.000,-1921.000,8344.000,-48.000,-7.000,-53.000,NA,0.000,0
2026-01-30 21:42:11,665844,718.000,-2121.000,8386.000,-110.000,-19.000,-34.000,NA,0.000,0
2026-01-30 21:42:11,665884,644.000,-1897.000,8230.000,181.000,-18.000,18.000,NA,0.000,0
2026-01-30 21:42:11,665925,669.000,-1658.000,8305.000,127.000,0.000,46.000,NA,0.000,0
2026-01-30 21:42:11,665964,578.000,-1648.000,8314.000,144.000,85.000,54.000,NA,0.000,0
2026-01-30 21:42:11,666004,593.000,-1615.000,8253.000,129.000,52.000,22.000,NA,0.000,0
2026-01-30 21:42:11,666046,710.000,-1675.000,8255.000,153.000,35.000,-55.000,NA,0.000,0
2026-01-30 21:42:11,666084,663.000,-1585.000,8366.000,345.000,-1.000,-19.000,NA,0.000,0
2026-01-30 21:42:11,666124,745.000,-1373.000,8616.000,250.000,-62.000,21.000,NA,0.000,0
2026-01-30 21:42:11,666164,550.000,-1449.000,8316.000,60.000,16.000,-22.000,NA,0.000,0
2026-01-30 21:42:11,666204,707.000,-1467.000,8130.000,260.000,109.000,-65.000,NA,0.000,0
2026-01-30 21:42:11,666244,793.000,-1528.000,8033.000,332.000,147.000,-83.000,NA,0.000,0
2026-01-30 21:42:12,666284,841.000,-1439.000,8214.000,796.000,34.000,-210.000,NA,0.000,0
2026-01-30 21:42:12,666324,1222.000,-1184.000,8223.000,1173.000,412.000,-126.000,NA,0.000,0
2026-01-30 21:42:12,666364,1308.000,-828.000,8391.000,1931.000,560.000,-202.000,NA,0.000,0
2026-01-30 21:42:12,666404,1563.000,-452.000,8564.000,3509.000,462.000,-357.000,NA,0.000,0
2026-01-30 21:42:12,666444,1799.000,-29.000,8682.000,3459.000,788.000,-520.000,NA,0.000,0
2026-01-30 21:42:12,666484,1964.000,-344.000,8611.000,4556.000,768.000,-427.000,NA,0.000,0
2026-01-30 21:42:12,666524,1970.000,531.000,8349.000,6042.000,1059.000,-305.000,NA,0.000,0
2026-01-30 21:42:12,666564,2234.000,737.000,7751.000,3690.000,1406.000,1093.000,NA,0.000,0
2026-01-30 21:42:12,666604,1907.000,-55.000,7869.000,1381.000,1285.000,2638.000,NA,0.000,0
2026-01-30 21:42:12,666644,1984.000,742.000,7447.000,1350.000,805.000,4222.000,NA,0.000,0
2026-01-30 21:42:12,666684,2233.000,1226.000,7874.000,25.000,502.000,5939.000,NA,0.000,0
2026-01-30 21:42:12,666724,2006.000,1946.000,7912.000,1165.000,370.000,5929.000,NA,0.000,0
2026-01-30 21:42:12,666764,1368.000,3252.000,7980.000,1442.000,691.000,5742.000,NA,0.000,0
2026-01-30 21:42:12,666804,863.000,3143.000,8445.000,-407.000,687.000,5662.000,NA,0.000,0
2026-01-30 21:42:12,666844,293.000,2579.000,7812.000,-1096.000,622.000,5582.000,NA,0.000,0
2026-01-30 21:42:12,666884,-80.000,2520.000,8102.000,-1326.000,400.000,5292.000,NA,0.000,0
2026-01-30 21:42:12,666924,390.000,2356.000,8461.000,-2217.000,-117.000,4902.000,NA,0.000,0
2026-01-30 21:42:12,666964,434.000,1218.000,7788.000,-2968.000,-291.000,4685.000,NA,0.000,0
2026-01-30 21:42:12,667004,157.000,95.000,7460.000,-1156.000,-453.000,3815.000,NA,0.000,0
2026-01-30 21:42:12,667044,-585.000,1518.000,9832.000,1212.000,-506.000,2161.000,NA,0.000,0
2026-01-30 21:42:12,667084,336.000,2220.000,10707.000,-2165.000,745.000,621.000,NA,0.000,0
2026-01-30 21:42:12,667124,249.000,415.000,9090.000,-1483.000,364.000,-20.000,NA,0.000,0
2026-01-30 21:42:12,667164,-81.000,-181.000,8031.000,-909.000,-270.000,43.000,NA,0.000,0
2026-01-30 21:42:12,667204,324.000,81.000,8297.000,-846.000,-386.000,-298.000,NA,0.000,0
2026-01-30 21:42:12,667244,783.000,-492.000,8860.000,-1154.000,-349.000,-458.000,NA,0.000,0
2026-01-30 21:42:13,667284,987.000,109.000,8458.000,-605.000,-101.000,-109.000,NA,0.000,0
2026-01-30 21:42:13,667324,905.000,631.000,8163.000,-917.000,171.000,208.000,NA,0.000,0
2026-01-30 21:42:13,667364,943.000,-817.000,9164.000,-1500.000,-287.000,64.000,NA,0.000,0
2026-01-30 21:42:13,667404,901.000,-955.000,8342.000,-873.000,-696.000,-360.000,NA,0.000,0
2026-01-30 21:42:13,667444,535.000,-984.000,8487.000,-378.000,90.000,-186.000,NA,0.000,0
2026-01-30 21:42:13,667484,491.000,-987.000,8665.000,-617.000,65.000,-80.000,NA,0.000,0
2026-01-30 21:42:13,667524,687.000,-1320.000,8647.000,-330.000,14.000,83.000,NA,0.000,0
2026-01-30 21:42:13,667564,883.000,-650.000,8406.000,549.000,-66.000,30.000,NA,0.000,0
2026-01-30 21:42:13,667604,872.000,-514.000,8286.000,391.000,-114.000,-45.000,NA,0.000,0
2026-01-30 21:42:13,667644,933.000,-496.000,8215.000,246.000,-32.000,-76.000,NA,0.000,0
2026-01-30 21:42:13,667684,905.000,-455.000,8417.000,501.000,203.000,-114.000,NA,0.000,0
2026-01-30 21:42:13,667724,763.000,-103.000,8479.000,609.000,408.000,-78.000,NA,0.000,0
2026-01-30 21:42:13,667764,585.000,-371.000,8598.000,342.000,439.000,-69.000,NA,0.000,0
2026-01-30 21:42:13,667804,401.000,-335.000,8346.000,458.000,322.000,-88.000,NA,0.000,0
2026-01-30 21:42:13,667844,640.000,-252.000,8293.000,326.000,-47.000,-108.000,NA,0.000,0
2026-01-30 21:42:13,667886,892.000,-113.000,8590.000,244.000,123.000,-12.000,NA,0.000,0
2026-01-30 21:42:13,667925,862.000,-117.000,8783.000,127.000,356.000,0.000,NA,0.000,0
2026-01-30 21:42:13,667964,584.000,-302.000,8550.000,50.000,294.000,-57.000,NA,0.000,0
2026-01-30 21:42:13,668004,591.000,-340.000,8652.000,-33.000,28.000,-41.000,NA,0.000,0
2026-01-30 21:42:13,668046,773.000,-245.000,8593.000,-45.000,-272.000,58.000,NA,0.000,0
2026-01-30 21:42:13,668084,845.000,-185.000,8457.000,-43.000,-312.000,69.000,NA,0.000,0
2026-01-30 21:42:13,668124,982.000,-130.000,8358.000,-164.000,-317.000,53.000,NA,0.000,0
2026-01-30 21:42:13,668164,1020.000,-246.000,8478.000,-221.000,-251.000,6.000,NA,0.000,0
2026-01-30 21:42:13,668204,958.000,-181.000,8322.000,8.000,-120.000,-50.000,NA,0.000,0
2026-01-30 21:42:13,668244,1035.000,31.000,8433.000,118.000,-83.000,9.000,NA,0.000,0
2026-01-30 21:42:14,668284,1148.000,54.000,8450.000,-174.000,-127.000,93.000,NA,0.000,0
2026-01-30 21:42:14,668324,1329.000,-159.000,8422.000,-268.000,-206.000,138.000,NA,0.000,0
2026-01-30 21:42:14,668364,1496.000,-116.000,8233.000,-39.000,-210.000,129.000,NA,0.000,0
2026-01-30 21:42:14,668404,1674.000,-160.000,8086.000,-71.000,-216.000,80.000,NA,0.000,0
2026-01-30 21:42:14,668444,1789.000,-165.000,8067.000,-118.000,-132.000,51.000,NA,0.000,0
2026-01-30 21:42:14,668484,1761.000,-172.000,8164.000,-5.000,46.000,38.000,NA,0.000,0
2026-01-30 21:42:14,668524,1587.000,22.000,8346.000,231.000,272.000,28.000,NA,0.000,0
2026-01-30 21:42:14,668564,1508.000,198.000,8427.000,215.000,238.000,-31.000,NA,0.000,0
2026-01-30 21:42:14,668604,1699.000,276.000,8380.000,-97.000,5.000,51.000,NA,0.000,0
2026-01-30 21:42:14,668644,1743.000,54.000,8454.000,-528.000,76.000,157.000,NA,0.000,0
2026-01-30 21:42:14,668684,1793.000,-125.000,8600.000,-573.000,84.000,182.000,NA,0.000,0
2026-01-30 21:42:14,668724,1794.000,-259.000,8453.000,-396.000,49.000,146.000,NA,0.000,0
2026-01-30 21:42:14,668764,1618.000,-700.000,8210.000,-435.000,10.000,34.000,NA,0.000,0
2026-01-30 21:42:14,668804,1453.000,-569.000,8168.000,-1.000,3.000,-49.000,NA,0.000,0
2026-01-30 21:42:14,668844,1469.000,-329.000,8283.000,299.000,31.000,-31.000,NA,0.000,0
2026-01-30 21:42:14,668884,1529.000,18.000,8466.000,303.000,132.000,45.000,NA,0.000,0
2026-01-30 21:42:14,668924,1424.000,-138.000,8375.000,-48.000,143.000,71.000,NA,0.000,0
2026-01-30 21:42:14,668964,1206.000,-557.000,8247.000,-114.000,118.000,-58.000,NA,0.000,0
2026-01-30 21:42:14,669004,1205.000,-313.000,8434.000,671.000,150.000,-155.000,NA,0.000,0
2026-01-30 21:42:14,669044,1211.000,204.000,8432.000,935.000,170.000,-132.000,NA,0.000,0
2026-01-30 21:42:14,669084,1205.000,370.000,8300.000,428.000,90.000,-77.000,NA,0.000,0
2026-01-30 21:42:14,669124,1265.000,57.000,8417.000,-252.000,64.000,2.000,NA,0.000,0
2026-01-30 21:42:14,669164,1244.000,-207.000,8467.000,-183.000,103.000,-25.000,NA,0.000,0
2026-01-30 21:42:14,669204,1154.000,-182.000,8224.000,236.000,61.000,-75.000,NA,0.000,0
2026-01-30 21:42:14,669244,1233.000,156.000,8311.000,209.000,-39.000,-20.000,NA,0.000,0
2026-01-30 21:42:15,669284,1290.000,-1.000,8444.000,-311.000,-12.000,66.000,NA,0.000,0
2026-01-30 21:42:15,669324,1194.000,-345.000,8357.000,-372.000,-7.000,47.000,NA,0.000,0
2026-01-30 21:42:15,669364,1311.000,-203.000,8391.000,-36.000,-158.000,17.000,NA,0.000,0
2026-01-30 21:42:15,669404,1359.000,-154.000,8349.000,-98.000,-109.000,14.000,NA,0.000,0
2026-01-30 21:42:15,669444,1268.000,-240.000,8263.000,-47.000,-41.000,-18.000,NA,0.000,0
2026-01-30 21:42:15,669484,1313.000,-103.000,8450.000,55.000,-22.000,8.000,NA,0.000,0
2026-01-30 21:42:15,669524,1230.000,-88.000,8509.000,-16.000,16.000,17.000,NA,0.000,0
2026-01-30 21:42:15,669564,1237.000,-272.000,8214.000,-92.000,-91.000,-11.000,NA,0.000,0
2026-01-30 21:42:15,669604,1448.000,-237.000,8280.000,71.000,-126.000,-1.000,NA,0.000,0
2026-01-30 21:42:15,669644,1639.000,28.000,8469.000,123.000,-13.000,21.000,NA,0.000,0
2026-01-30 21:42:15,669684,1488.000,-185.000,8332.000,-32.000,134.000,-28.000,NA,0.000,0
2026-01-30 21:42:15,669724,1311.000,-22.000,8394.000,199.000,163.000,-79.000,NA,0.000,0
2026-01-30 21:42:15,669764,1396.000,304.000,8407.000,497.000,34.000,-76.000,NA,0.000,0
2026-01-30 21:42:15,669804,1639.000,499.000,8240.000,270.000,-116.000,-14.000,NA,0.000,0
2026-01-30 21:42:15,669844,1857.000,293.000,8193.000,-397.000,-176.000,55.000,NA,0.000,0
2026-01-30 21:42:15,669884,1976.000,-80.000,8306.000,-610.000,-87.000,105.000,NA,0.000,0
2026-01-30 21:42:15,669926,1893.000,-100.000,8336.000,-89.000,15.000,6.000,NA,0.000,0
2026-01-30 21:42:15,669965,1858.000,182.000,8279.000,127.000,-10.000,-19.000,NA,0.000,0
2026-01-30 21:42:15,670004,1924.000,141.000,8311.000,-241.000,-56.000,24.000,NA,0.000,0
2026-01-30 21:42:15,670044,1996.000,-123.000,8220.000,-465.000,-102.000,81.000,NA,0.000,0
2026-01-30 21:42:15,670084,2035.000,-209.000,8126.000,-273.000,-142.000,92.000,NA,0.000,0
2026-01-30 21:42:15,670124,2166.000,-217.000,8207.000,-246.000,-183.000,57.000,NA,0.000,0
2026-01-30 21:42:15,670164,2213.000,-218.000,8107.000,-73.000,-139.000,24.000,NA,0.000,0
2026-01-30 21:42:15,670204,2075.000,-125.000,8111.000,141.000,-33.000,-24.000,NA,0.000,0
2026-01-30 21:42:15,670244,2029.000,2.000,8193.000,310.000,88.000,-63.000,NA,0.000,0
2026-01-30 21:42:16,670284,2007.000,126.000,8235.000,341.000,317.000,-25.000,NA,0.000,0
2026-01-30 21:42:16,670324,1884.000,191.000,8379.000,132.000,491.000,19.000,NA,0.000,0
2026-01-30 21:42:16,670364,1756.000,-137.000,8363.000,-184.000,457.000,36.000,NA,0.000,0
2026-01-30 21:42:16,670404,1755.000,-239.000,8383.000,-37.000,234.000,23.000,NA,0.000,0
2026-01-30 21:42:16,670444,1939.000,-166.000,8342.000,19.000,-42.000,24.000,NA,0.000,0
2026-01-30 21:42:16,670484,2132.000,-164.000,8225.000,33.000,-88.000,1.000,NA,0.000,0
2026-01-30 21:42:16,670524,1982.000,42.000,8239.000,282.000,141.000,-51.000,NA,0.000,0
2026-01-30 21:42:16,670564,1790.000,121.000,8208.000,335.000,215.000,-74.000,NA,0.000,0
2026-01-30 21:42:16,670604,1655.000,228.000,8133.000,317.000,176.000,-61.000,NA,0.000,0
2026-01-30 21:42:16,670644,1651.000,253.000,8283.000,121.000,158.000,2.000,NA,0.000,0
2026-01-30 21:42:16,670684,1707.000,217.000,8338.000,96.000,139.000,14.000,NA,0.000,0
2026-01-30 21:42:16,670724,1680.000,230.000,8228.000,72.000,122.000,-12.000,NA,0.000,0
2026-01-30 21:42:16,670764,1749.000,156.000,8353.000,-67.000,69.000,-2.000,NA,0.000,0
2026-01-30 21:42:16,670804,1741.000,76.000,8365.000,-106.000,71.000,1.000,NA,0.000,0
2026-01-30 21:42:16,670844,1677.000,45.000,8348.000,-98.000,26.000,0.000,NA,0.000,0
2026-01-30 21:42:16,670884,1669.000,86.000,8324.000,-16.000,-74.000,5.000,NA,0.000,0
2026-01-30 21:42:16,670924,1643.000,165.000,8365.000,-27.000,-54.000,16.000,NA,0.000,0
2026-01-30 21:42:16,670964,1583.000,77.000,8335.000,-154.000,-64.000,13.000,NA,0.000,0
2026-01-30 21:42:16,671004,1650.000,-10.000,8364.000,-148.000,-131.000,36.000,NA,0.000,0
2026-01-30 21:42:16,671044,1698.000,43.000,8338.000,-68.000,-144.000,36.000,NA,0.000,0
2026-01-30 21:42:16,671084,1728.000,-83.000,8272.000,-178.000,-144.000,7.000,NA,0.000,0
2026-01-30 21:42:16,671124,1665.000,-163.000,8357.000,-46.000,-44.000,-4.000,NA,0.000,0
2026-01-30 21:42:16,671164,1568.000,24.000,8278.000,171.000,-75.000,-43.000,NA,0.000,0
2026-01-30 21:42:16,671204,1638.000,29.000,8220.000,66.000,-139.000,-17.000,NA,0.000,0
2026-01-30 21:42:16,671244,1713.000,7.000,8391.000,-19.000,-72.000,27.000,NA,0.000,0
2026-01-30 21:42:17,671284,1642.000,-164.000,8334.000,-100.000,-35.000,7.000,NA,0.000,0
2026-01-30 21:42:17,671324,1603.000,-86.000,8353.000,139.000,-86.000,-30.000,NA,0.000,0
2026-01-30 21:42:17,671364,1562.000,-6.000,8165.000,233.000,-144.000,-81.000,NA,0.000,0
2026-01-30 21:42:17,671404,1594.000,92.000,8178.000,174.000,-123.000,-60.000,NA,0.000,0
2026-01-30 21:42:17,671444,1628.000,126.000,8408.000,-22.000,18.000,22.000,NA,0.000,0
2026-01-30 21:42:17,671484,1523.000,-13.000,8491.000,-94.000,69.000,29.000,NA,0.000,0
2026-01-30 21:42:17,671524,1410.000,-149.000,8333.000,-8.000,-6.000,-18.000,NA,0.000,0
2026-01-30 21:42:17,671564,1342.000,-143.000,8332.000,59.000,-90.000,-37.000,NA,0.000,0
2026-01-30 21:42:17,671604,1349.000,-210.000,8266.000,39.000,-131.000,-68.000,NA,0.000,0
2026-01-30 21:42:17,671644,1387.000,-71.000,8384.000,346.000,-95.000,-45.000,NA,0.000,0
2026-01-30 21:42:17,671684,1399.000,133.000,8337.000,443.000,-129.000,-64.000,NA,0.000,0
2026-01-30 21:42:17,671724,1337.000,137.000,8207.000,265.000,-147.000,-89.000,NA,0.000,0
2026-01-30 21:42:17,671764,1333.000,-9.000,8245.000,24.000,-150.000,-42.000,NA,0.000,0
2026-01-30 21:42:17,671804,1316.000,-85.000,8354.000,128.000,-106.000,-22.000,NA,0.000,0
2026-01-30 21:42:17,671844,1283.000,46.000,8329.000,448.000,-90.000,-47.000,NA,0.000,0
2026-01-30 21:42:17,671884,1228.000,333.000,8464.000,338.000,-20.000,-12.000,NA,0.000,0
2026-01-30 21:42:17,671924,1060.000,80.000,8457.000,-212.000,-19.000,38.000,NA,0.000,0
2026-01-30 21:42:17,671964,925.000,-309.000,8336.000,-264.000,-26.000,68.000,NA,0.000,0
2026-01-30 21:42:17,672004,850.000,-214.000,8458.000,141.000,-66.000,-6.000,NA,0.000,0
2026-01-30 21:42:17,672046,610.000,35.000,8485.000,619.000,8.000,-79.000,NA,0.000,0
2026-01-30 21:42:17,672084,610.000,342.000,8450.000,530.000,49.000,2.000,NA,0.000,0
2026-01-30 21:42:17,672124,674.000,251.000,8505.000,-92.000,-1.000,57.000,NA,0.000,0
2026-01-30 21:42:17,672164,736.000,-137.000,8569.000,-443.000,-72.000,105.000,NA,0.000,0
2026-01-30 21:42:17,672204,822.000,-203.000,8584.000,-137.000,-61.000,87.000,NA,0.000,0
2026-01-30 21:42:17,672244,774.000,-60.000,8446.000,233.000,-47.000,5.000,NA,0.000,0
2026-01-30 21:42:18,672284,766.000,139.000,8389.000,216.000,-73.000,-8.000,NA,0.000,0
2026-01-30 21:42:18,672324,886.000,141.000,8485.000,-78.000,-45.000,33.000,NA,0.000,0
2026-01-30 21:42:18,672364,886.000,-5.000,8464.000,-133.000,-35.000,37.000,NA,0.000,0
2026-01-30 21:42:18,672404,993.000,78.000,8358.000,45.000,-65.000,41.000,NA,0.000,0
2026-01-30 21:42:18,672444,1013.000,178.000,8484.000,-74.000,-30.000,32.000,NA,0.000,0
2026-01-30 21:42:18,672484,1003.000,62.000,8453.000,-184.000,11.000,24.000,NA,0.000,0
2026-01-30 21:42:18,672524,981.000,-15.000,8386.000,-98.000,-2.000,2.000,NA,0.000,0
2026-01-30 21:42:18,672564,1068.000,-3.000,8332.000,-85.000,-84.000,-6.000,NA,0.000,0
2026-01-30 21:42:18,672604,1236.000,-83.000,8362.000,-167.000,-87.000,14.000,NA,0.000,0
2026-01-30 21:42:18,672644,1211.000,-140.000,8369.000,-37.000,14.000,1.000,NA,0.000,0
2026-01-30 21:42:18,672684,1184.000,-16.000,8262.000,222.000,57.000,-38.000,NA,0.000,0
2026-01-30 21:42:18,672724,1265.000,320.000,8407.000,403.000,31.000,-68.000,NA,0.000,0
2026-01-30 21:42:18,672764,1438.000,543.000,8414.000,155.000,52.000,-8.000,NA,0.000,0
2026-01-30 21:42:18,672804,1438.000,166.000,8212.000,-478.000,93.000,49.000,NA,0.000,0
2026-01-30 21:42:18,672844,1349.000,-217.000,8227.000,-445.000,1.000,-2.000,NA,0.000,0
2026-01-30 21:42:18,672884,1386.000,-99.000,8400.000,110.000,33.000,-38.000,NA,0.000,0
2026-01-30 21:42:18,672924,1478.000,297.000,8358.000,421.000,30.000,-55.000,NA,0.000,0
2026-01-30 21:42:18,672964,1603.000,556.000,8382.000,185.000,29.000,-24.000,NA,0.000,0
2026-01-30 21:42:18,673004,1495.000,313.000,8329.000,-239.000,31.000,11.000,NA,0.000,0
2026-01-30 21:42:18,673044,1587.000,29.000,8161.000,-372.000,-61.000,71.000,NA,0.000,0
2026-01-30 21:42:18,673084,1896.000,140.000,8366.000,-123.000,-141.000,80.000,NA,0.000,0
2026-01-30 21:42:18,673124,1841.000,264.000,8346.000,4.000,-2.000,79.000,NA,0.000,0
2026-01-30 21:42:18,673164,1698.000,-4.000,8131.000,-236.000,-40.000,16.000,NA,0.000,0
2026-01-30 21:42:18,673204,1570.000,-20.000,8410.000,-86.000,92.000,-18.000,NA,0.000,0
2026-01-30 21:42:18,673244,1425.000,24.000,8446.000,94.000,194.000,-1.000,NA,0.000,0
2026-01-30 21:42:19,673284,1312.000,42.000,8309.000,183.000,96.000,-22.000,NA,0.000,0
2026-01-30 21:42:19,673324,1398.000,109.000,8285.000,220.000,-55.000,-33.000,NA,0.000,0
2026-01-30 21:42:19,673364,1497.000,209.000,8361.000,157.000,-19.000,-8.000,NA,0.000,0
2026-01-30 21:42:19,673404,1452.000,122.000,8283.000,120.000,69.000,-38.000,NA,0.000,0
2026-01-30 21:42:19,673444,1360.000,156.000,8299.000,349.000,127.000,-46.000,NA,0.000,0
2026-01-30 21:42:19,673484,1395.000,528.000,8394.000,507.000,102.000,-58.000,NA,0.000,0
2026-01-30 21:42:19,673524,1501.000,641.000,8442.000,58.000,-9.000,9.000,NA,0.000,0
2026-01-30 21:42:19,673564,1788.000,163.000,8326.000,-449.000,-153.000,71.000,NA,0.000,0
2026-01-30 21:42:19,673604,1810.000,17.000,8225.000,-225.000,-162.000,27.000,NA,0.000,0
2026-01-30 21:42:19,673644,1810.000,97.000,8262.000,-83.000,-132.000,-5.000,NA,0.000,0
2026-01-30 21:42:19,673684,1838.000,220.000,8213.000,-19.000,-83.000,0.000,NA,0.000,0
2026-01-30 21:42:19,673724,1841.000,291.000,8328.000,-91.000,-1.000,27.000,NA,0.000,0
2026-01-30 21:42:19,673764,1721.000,193.000,8386.000,-148.000,79.000,15.000,NA,0.000,0
2026-01-30 21:42:19,673804,1602.000,134.000,8206.000,-57.000,14.000,-36.000,NA,0.000,0
2026-01-30 21:42:19,673844,1695.000,189.000,8244.000,-40.000,-68.000,-6.000,NA,0.000,0
2026-01-30 21:42:19,673884,1820.000,239.000,8350.000,-107.000,-44.000,36.000,NA,0.000,0
2026-01-30 21:42:19,673926,1730.000,43.000,8207.000,-111.000,84.000,-50.000,NA,0.000,0
2026-01-30 21:42:19,673965,1698.000,263.000,8306.000,249.000,85.000,-66.000,NA,0.000,0
2026-01-30 21:42:19,674004,1611.000,353.000,8294.000,200.000,103.000,-80.000,NA,0.000,0
2026-01-30 21:42:19,674046,1595.000,295.000,8394.000,-7.000,96.000,9.000,NA,0.000,0
2026-01-30 21:42:19,674084,1561.000,220.000,8357.000,-52.000,75.000,13.000,NA,0.000,0
2026-01-30 21:42:19,674124,1527.000,93.000,8232.000,-27.000,-35.000,-10.000,NA,0.000,0
2026-01-30 21:42:19,674164,1633.000,153.000,8291.000,48.000,-133.000,-5.000,NA,0.000,0
2026-01-30 21:42:19,674204,1758.000,194.000,8315.000,0.000,-122.000,9.000,NA,0.000,0
2026-01-30 21:42:19,674244,1756.000,119.000,8306.000,-26.000,-45.000,6.000,NA,0.000,0
2026-01-30 21:42:20,674284,1657.000,200.000,8359.000,107.000,40.000,-37.000,NA,0.000,0
2026-01-30 21:42:20,674324,1471.000,409.000,8228.000,196.000,-39.000,-70.000,NA,0.000,0
2026-01-30 21:42:20,674364,1592.000,442.000,8301.000,-135.000,-43.000,-8.000,NA,0.000,0
2026-01-30 21:42:20,674404,1592.000,199.000,8406.000,-259.000,68.000,23.000,NA,0.000,0
2026-01-30 21:42:20,674444,1436.000,156.000,8301.000,-84.000,28.000,-23.000,NA,0.000,0
2026-01-30 21:42:20,674484,1563.000,148.000,8288.000,-77.000,-127.000,-13.000,NA,0.000,0
2026-01-30 21:42:20,674524,1657.000,152.000,8346.000,-156.000,-72.000,32.000,NA,0.000,0
2026-01-30 21:42:20,674564,1576.000,-67.000,8269.000,-190.000,-22.000,13.000,NA,0.000,0
2026-01-30 21:42:20,674604,1601.000,7.000,8386.000,67.000,-35.000,7.000,NA,0.000,0
2026-01-30 21:42:20,674644,1524.000,196.000,8388.000,157.000,24.000,-13.000,NA,0.000,0
2026-01-30 21:42:20,674684,1448.000,160.000,8191.000,74.000,-85.000,-40.000,NA,0.000,0
2026-01-30 21:42:20,674724,1565.000,317.000,8338.000,96.000,-88.000,6.000,NA,0.000,0
2026-01-30 21:42:20,674764,1586.000,150.000,8360.000,-179.000,18.000,26.000,NA,0.000,0
2026-01-30 21:42:20,674804,1516.000,-37.000,8316.000,-23.000,31.000,-23.000,NA,0.000,0
2026-01-30 21:42:20,674844,1527.000,188.000,8320.000,235.000,-12.000,-43.000,NA,0.000,0
2026-01-30 21:42:20,674884,1613.000,335.000,8389.000,-12.000,-4.000,12.000,NA,0.000,0
2026-01-30 21:42:20,674924,1557.000,59.000,8386.000,-264.000,43.000,36.000,NA,0.000,0
2026-01-30 21:42:20,674964,1473.000,-54.000,8370.000,-17.000,-4.000,-3.000,NA,0.000,0
2026-01-30 21:42:20,675004,1501.000,176.000,8276.000,195.000,-83.000,-46.000,NA,0.000,0
2026-01-30 21:42:20,675044,1563.000,126.000,8142.000,87.000,-91.000,-54.000,NA,0.000,0
2026-01-30 21:42:20,675084,1575.000,320.000,8326.000,74.000,92.000,-9.000,NA,0.000,0
2026-01-30 21:42:20,675124,1502.000,219.000,8418.000,-50.000,179.000,10.000,NA,0.000,0
2026-01-30 21:42:20,675164,1364.000,209.000,8381.000,129.000,180.000,-10.000,NA,0.000,0
2026-01-30 21:42:20,675204,1303.000,323.000,8352.000,158.000,81.000,-29.000,NA,0.000,0
2026-01-30 21:42:20,675244,1379.000,323.000,8374.000,-87.000,8.000,2.000,NA,0.000,0
2026-01-30 21:42:21,675284,1431.000,36.000,8332.000,-324.000,-32.000,31.000,NA,0.000,0
2026-01-30 21:42:21,675324,1482.000,-95.000,8273.000,-170.000,-86.000,17.000,NA,0.000,0
2026-01-30 21:42:21,675364,1566.000,98.000,8422.000,1.000,-67.000,19.000,NA,0.000,0
2026-01-30 21:42:21,675404,1475.000,47.000,8374.000,-23.000,-14.000,0.000,NA,0.000,0
2026-01-30 21:42:21,675444,1432.000,190.000,8308.000,116.000,-33.000,-32.000,NA,0.000,0
2026-01-30 21:42:21,675484,1504.000,349.000,8406.000,81.000,-6.000,-24.000,NA,0.000,0
2026-01-30 21:42:21,675524,1410.000,348.000,8366.000,18.000,100.000,-121.000,NA,0.000,0
2026-01-30 21:42:21,675564,1316.000,558.000,8456.000,157.000,248.000,-387.000,NA,0.000,0
2026-01-30 21:42:21,675604,1253.000,475.000,8422.000,-81.000,451.000,-629.000,NA,0.000,0
2026-01-30 21:42:21,675644,1264.000,301.000,8450.000,-12.000,622.000,-871.000,NA,0.000,0
2026-01-30 21:42:21,675684,1200.000,341.000,8428.000,332.000,878.000,-1172.000,NA,0.000,0
2026-01-30 21:42:21,675724,1000.000,143.000,8259.000,732.000,1169.000,-1500.000,NA,0.000,0
2026-01-30 21:42:21,675764,972.000,575.000,8415.000,1556.000,1432.000,-1756.000,NA,0.000,0
2026-01-30 21:42:21,675804,782.000,594.000,8473.000,1483.000,1500.000,-1883.000,NA,0.000,0
2026-01-30 21:42:21,675844,518.000,746.000,8044.000,1565.000,1613.000,-2027.000,NA,0.000,0
2026-01-30 21:42:21,675884,370.000,1113.000,8681.000,2246.000,1933.000,-2439.000,NA,0.000,0
2026-01-30 21:42:21,675927,46.000,1732.000,8287.000,2835.000,1530.000,-2357.000,NA,0.000,0
2026-01-30 21:42:21,675964,-340.000,1712.000,8458.000,2502.000,1563.000,-2259.000,NA,0.000,0
2026-01-30 21:42:21,676005,-87.000,1855.000,8186.000,1587.000,1210.000,-2216.000,NA,0.000,0
2026-01-30 21:42:21,676044,-333.000,2172.000,8343.000,1027.000,1059.000,-2119.000,NA,0.000,0
2026-01-30 21:42:21,676088,-313.000,1788.000,8331.000,-751.000,271.000,-1626.000,NA,0.000,0
2026-01-30 21:42:21,676124,-588.000,1786.000,8332.000,-1099.000,249.000,-1465.000,NA,0.000,0
2026-01-30 21:42:21,676164,-490.000,1696.000,7878.000,-1672.000,-188.000,-1033.000,NA,0.000,0
2026-01-30 21:42:21,676204,-946.000,1539.000,8466.000,-1931.000,-57.000,-1094.000,NA,0.000,0
2026-01-30 21:42:21,676244,-661.000,1328.000,8626.000,-2820.000,-815.000,-895.000,NA,0.000,0
2026-01-30 21:42:22,676284,-569.000,408.000,7971.000,-3719.000,-953.000,-705.000,NA,0.000,0
2026-01-30 21:42:22,676324,-391.000,-170.000,8504.000,-4063.000,-969.000,-572.000,NA,0.000,0
2026-01-30 21:42:22,676364,-262.000,-1096.000,8365.000,-3854.000,-740.000,-194.000,NA,0.000,0
2026-01-30 21:42:22,676404,-108.000,-1527.000,8289.000,-2353.000,-413.000,89.000,NA,0.000,0
2026-01-30 21:42:22,676444,-136.000,-1080.000,8495.000,-1007.000,-89.000,388.000,NA,0.000,0
2026-01-30 21:42:22,676484,-104.000,-907.000,8082.000,-512.000,-177.000,569.000,NA,0.000,0
2026-01-30 21:42:22,676524,197.000,-479.000,7914.000,55.000,-323.000,718.000,NA,0.000,0
2026-01-30 21:42:22,676564,543.000,17.000,8083.000,535.000,-502.000,948.000,NA,0.000,0
2026-01-30 21:42:22,676604,108.000,-261.000,8370.000,-397.000,-564.000,878.000,NA,0.000,0
2026-01-30 21:42:22,676644,-11.000,-872.000,8210.000,-790.000,-464.000,790.000,NA,0.000,0
2026-01-30 21:42:22,676684,-126.000,-1481.000,7881.000,-309.000,-378.000,918.000,NA,0.000,0
2026-01-30 21:42:22,676724,-33.000,-1311.000,8457.000,789.000,-400.000,1000.000,NA,0.000,0
2026-01-30 21:42:22,676764,-95.000,-221.000,9198.000,1605.000,-363.000,908.000,NA,0.000,0
2026-01-30 21:42:22,676804,-141.000,-155.000,8893.000,1332.000,-306.000,1155.000,NA,0.000,0
2026-01-30 21:42:22,676844,53.000,98.000,8203.000,1142.000,-504.000,1136.000,NA,0.000,0
2026-01-30 21:42:22,676884,97.000,-52.000,8239.000,459.000,-656.000,1006.000,NA,0.000,0
2026-01-30 21:42:22,676924,459.000,-220.000,8996.000,344.000,-473.000,897.000,NA,0.000,0
2026-01-30 21:42:22,676964,132.000,151.000,8686.000,885.000,-162.000,945.000,NA,0.000,0
2026-01-30 21:42:22,677004,79.000,664.000,8293.000,1205.000,-45.000,901.000,NA,0.000,0
2026-01-30 21:42:22,677044,158.000,628.000,8328.000,695.000,-231.000,642.000,NA,0.000,0
2026-01-30 21:42:22,677084,401.000,442.000,8565.000,253.000,-351.000,513.000,NA,0.000,0
2026-01-30 21:42:22,677124,183.000,506.000,8479.000,836.000,-135.000,403.000,NA,0.000,0
2026-01-30 21:42:22,677164,252.000,1342.000,8593.000,1129.000,-26.000,250.000,NA,0.000,0
2026-01-30 21:42:22,677204,95.000,740.000,8347.000,90.000,54.000,133.000,NA,0.000,0
2026-01-30 21:42:22,677244,236.000,492.000,8369.000,-258.000,-9.000,-18.000,NA,0.000,0
2026-01-30 21:42:23,677284,294.000,629.000,8460.000,41.000,167.000,10.000,NA,0.000,0
2026-01-30 21:42:23,677324,326.000,667.000,8540.000,-158.000,206.000,60.000,NA,0.000,0
2026-01-30 21:42:23,677364,280.000,267.000,8397.000,-461.000,153.000,15.000,NA,0.000,0
2026-01-30 21:42:23,677404,279.000,362.000,8493.000,-226.000,127.000,-3.000,NA,0.000,0
2026-01-30 21:42:23,677444,254.000,240.000,8505.000,-188.000,97.000,8.000,NA,0.000,0
2026-01-30 21:42:23,677484,298.000,301.000,8402.000,-100.000,71.000,-2.000,NA,0.000,0
2026-01-30 21:42:23,677524,258.000,216.000,8351.000,-127.000,81.000,-24.000,NA,0.000,0
2026-01-30 21:42:23,677564,308.000,280.000,8604.000,13.000,108.000,-10.000,NA,0.000,0
2026-01-30 21:42:23,677604,251.000,362.000,8590.000,90.000,162.000,-38.000,NA,0.000,0
2026-01-30 21:42:23,677644,121.000,407.000,8393.000,156.000,123.000,-56.000,NA,0.000,0
2026-01-30 21:42:23,677684,140.000,509.000,8376.000,56.000,7.000,-38.000,NA,0.000,0
2026-01-30 21:42:23,677724,222.000,508.000,8488.000,-29.000,-35.000,-30.000,NA,0.000,0
2026-01-30 21:42:23,677764,253.000,378.000,8396.000,-224.000,65.000,-35.000,NA,0.000,0
2026-01-30 21:42:23,677804,135.000,304.000,8403.000,-201.000,43.000,-72.000,NA,0.000,0
2026-01-30 21:42:23,677844,144.000,238.000,8539.000,-147.000,-36.000,-27.000,NA,0.000,0
2026-01-30 21:42:23,677884,320.000,415.000,8628.000,-10.000,-74.000,17.000,NA,0.000,0
2026-01-30 21:42:23,677924,399.000,352.000,8435.000,-9.000,-80.000,-11.000,NA,0.000,0
2026-01-30 21:42:23,677964,503.000,474.000,8375.000,1.000,-126.000,9.000,NA,0.000,0
2026-01-30 21:42:23,678004,667.000,432.000,8462.000,-184.000,-149.000,8.000,NA,0.000,0
2026-01-30 21:42:23,678046,741.000,243.000,8491.000,-266.000,-42.000,-12.000,NA,0.000,0
2026-01-30 21:42:23,678084,643.000,250.000,8405.000,-23.000,42.000,-26.000,NA,0.000,0
2026-01-30 21:42:23,678124,513.000,514.000,8437.000,79.000,5.000,-58.000,NA,0.000,0
2026-01-30 21:42:23,678164,591.000,445.000,8505.000,-79.000,16.000,-26.000,NA,0.000,0
2026-01-30 21:42:23,678204,595.000,394.000,8523.000,-16.000,86.000,-24.000,NA,0.000,0
2026-01-30 21:42:23,678244,605.000,453.000,8411.000,85.000,72.000,-43.000,NA,0.000,0
2026-01-30 21:42:24,678284,644.000,516.000,8446.000,75.000,2.000,-43.000,NA,0.000,0
2026-01-30 21:42:24,678324,691.000,501.000,8465.000,13.000,0.000,-34.000,NA,0.000,0
2026-01-30 21:42:24,678364,708.000,470.000,8460.000,-16.000,33.000,-26.000,NA,0.000,0
2026-01-30 21:42:24,678404,708.000,456.000,8460.000,23.000,1.000,-32.000,NA,0.000,0
2026-01-30 21:42:24,678444,712.000,484.000,8408.000,28.000,-73.000,-32.000,NA,0.000,0
2026-01-30 21:42:24,678484,811.000,595.000,8398.000,-4.000,-143.000,-19.000,NA,0.000,0
2026-01-30 21:42:24,678524,945.000,485.000,8451.000,-91.000,-110.000,2.000,NA,0.000,0
2026-01-30 21:42:24,678564,911.000,512.000,8488.000,35.000,0.000,-2.000,NA,0.000,0
2026-01-30 21:42:24,678604,783.000,642.000,8478.000,54.000,-35.000,-2.000,NA,0.000,0
2026-01-30 21:42:24,678644,828.000,571.000,8398.000,-8.000,-89.000,-6.000,NA,0.000,0
2026-01-30 21:42:24,678684,888.000,617.000,8499.000,54.000,-40.000,15.000,NA,0.000,0
2026-01-30 21:42:24,678724,893.000,653.000,8496.000,6.000,2.000,4.000,NA,0.000,0
2026-01-30 21:42:24,678764,895.000,502.000,8405.000,-99.000,-14.000,-13.000,NA,0.000,0
2026-01-30 21:42:24,678804,928.000,502.000,8414.000,-35.000,-49.000,-25.000,NA,0.000,0
2026-01-30 21:42:24,678844,929.000,439.000,8409.000,-79.000,-61.000,-24.000,NA,0.000,0
2026-01-30 21:42:24,678884,988.000,488.000,8398.000,11.000,-93.000,-13.000,NA,0.000,0
2026-01-30 21:42:24,678924,1010.000,554.000,8403.000,25.000,-47.000,-4.000,NA,0.000,0
2026-01-30 21:42:24,678964,922.000,573.000,8474.000,97.000,42.000,-7.000,NA,0.000,0
2026-01-30 21:42:24,679004,839.000,687.000,8415.000,89.000,46.000,-4.000,NA,0.000,0
2026-01-30 21:42:24,679044,840.000,631.000,8462.000,14.000,11.000,5.000,NA,0.000,0
2026-01-30 21:42:24,679084,846.000,543.000,8421.000,30.000,-22.000,-25.000,NA,0.000,0
2026-01-30 21:42:24,679124,891.000,636.000,8453.000,82.000,-62.000,-32.000,NA,0.000,0
2026-01-30 21:42:24,679164,948.000,576.000,8389.000,-67.000,-40.000,-13.000,NA,0.000,0
2026-01-30 21:42:24,679204,877.000,550.000,8408.000,-50.000,26.000,-12.000,NA,0.000,0
2026-01-30 21:42:24,679244,871.000,476.000,8421.000,-122.000,3.000,-2.000,NA,0.000,0
2026-01-30 21:42:25,679284,781.000,351.000,8478.000,-71.000,53.000,-1.000,NA,0.000,0
2026-01-30 21:42:25,679324,658.000,368.000,8454.000,29.000,20.000,-17.000,NA,0.000,0
2026-01-30 21:42:25,679364,634.000,440.000,8434.000,67.000,-27.000,-17.000,NA,0.000,0
2026-01-30 21:42:25,679404,627.000,479.000,8455.000,50.000,-1.000,-21.000,NA,0.000,0
2026-01-30 21:42:25,679444,567.000,398.000,8445.000,-11.000,28.000,-21.000,NA,0.000,0
2026-01-30 21:42:25,679484,536.000,412.000,8461.000,71.000,54.000,-30.000,NA,0.000,0
2026-01-30 21:42:25,679524,453.000,473.000,8471.000,114.000,64.000,-29.000,NA,0.000,0
2026-01-30 21:42:25,679564,384.000,444.000,8495.000,20.000,53.000,-11.000,NA,0.000,0
2026-01-30 21:42:25,679604,375.000,422.000,8500.000,-24.000,17.000,-3.000,NA,0.000,0
2026-01-30 21:42:25,679644,469.000,333.000,8424.000,-129.000,-96.000,4.000,NA,0.000,0
2026-01-30 21:42:25,679684,526.000,265.000,8457.000,-99.000,-111.000,-4.000,NA,0.000,0
2026-01-30 21:42:25,679724,543.000,277.000,8474.000,-45.000,-77.000,4.000,NA,0.000,0
2026-01-30 21:42:25,679764,521.000,270.000,8437.000,-19.000,-26.000,-4.000,NA,0.000,0
2026-01-30 21:42:25,679804,487.000,332.000,8462.000,65.000,4.000,17.000,NA,0.000,0
2026-01-30 21:42:25,679844,453.000,343.000,8360.000,134.000,84.000,-26.000,NA,0.000,0
2026-01-30 21:42:25,679884,392.000,415.000,8468.000,174.000,133.000,-38.000,NA,0.000,0
2026-01-30 21:42:25,679924,390.000,486.000,8489.000,146.000,107.000,-10.000,NA,0.000,0
2026-01-30 21:42:25,679966,504.000,472.000,8457.000,95.000,111.000,1.000,NA,0.000,0
2026-01-30 21:42:25,680005,548.000,460.000,8414.000,15.000,120.000,-6.000,NA,0.000,0
2026-01-30 21:42:25,680053,346.000,283.000,8435.000,1.000,183.000,-51.000,NA,0.000,0
2026-01-30 21:42:25,680084,298.000,285.000,8454.000,27.000,166.000,-41.000,NA,0.000,0
2026-01-30 21:42:25,680124,219.000,321.000,8477.000,70.000,136.000,-18.000,NA,0.000,0
2026-01-30 21:42:25,680164,226.000,356.000,8526.000,98.000,85.000,6.000,NA,0.000,0
2026-01-30 21:42:25,680204,270.000,459.000,8451.000,137.000,77.000,-5.000,NA,0.000,0
2026-01-30 21:42:25,680244,257.000,431.000,8435.000,50.000,89.000,-19.000,NA,0.000,0
2026-01-30 21:42:26,680284,210.000,363.000,8492.000,21.000,55.000,-24.000,NA,0.000,0
2026-01-30 21:42:26,680324,207.000,368.000,8453.000,62.000,27.000,-13.000,NA,0.000,0
2026-01-30 21:42:26,680364,202.000,424.000,8467.000,73.000,22.000,-3.000,NA,0.000,0
2026-01-30 21:42:26,680404,149.000,476.000,8469.000,54.000,18.000,-14.000,NA,0.000,0
2026-01-30 21:42:26,680444,133.000,445.000,8455.000,-6.000,-16.000,-18.000,NA,0.000,0
2026-01-30 21:42:26,680484,196.000,386.000,8457.000,-79.000,-49.000,-5.000,NA,0.000,0
2026-01-30 21:42:26,680524,212.000,317.000,8492.000,-125.000,-40.000,7.000,NA,0.000,0
2026-01-30 21:42:26,680564,172.000,348.000,8499.000,-111.000,-81.000,15.000,NA,0.000,0
2026-01-30 21:42:26,680604,195.000,315.000,8436.000,-116.000,-110.000,12.000,NA,0.000,0
2026-01-30 21:42:26,680644,188.000,378.000,8479.000,-80.000,-105.000,9.000,NA,0.000,0
2026-01-30 21:42:26,680684,156.000,289.000,8439.000,-142.000,-124.000,8.000,NA,0.000,0
2026-01-30 21:42:26,680724,170.000,250.000,8435.000,-42.000,-123.000,0.000,NA,0.000,0
2026-01-30 21:42:26,680764,158.000,263.000,8442.000,14.000,-95.000,-7.000,NA,0.000,0
2026-01-30 21:42:26,680804,167.000,301.000,8482.000,17.000,-81.000,4.000,NA,0.000,0
2026-01-30 21:42:26,680844,180.000,312.000,8473.000,18.000,-89.000,7.000,NA,0.000,0
2026-01-30 21:42:26,680884,217.000,281.000,8460.000,5.000,-89.000,0.000,NA,0.000,0
2026-01-30 21:42:26,680924,114.000,248.000,8497.000,78.000,-51.000,-24.000,NA,0.000,0
2026-01-30 21:42:26,680964,158.000,270.000,8487.000,-19.000,-51.000,-10.000,NA,0.000,0
2026-01-30 21:42:26,681004,142.000,27.000,8438.000,46.000,-98.000,-2.000,NA,0.000,0
2026-01-30 21:42:26,681044,58.000,-16.000,8495.000,14.000,-38.000,-3.000,NA,0.000,0
2026-01-30 21:42:26,681084,20.000,99.000,8461.000,163.000,-56.000,-9.000,NA,0.000,0
2026-01-30 21:42:26,681124,-60.000,278.000,8493.000,121.000,-64.000,-7.000,NA,0.000,0
2026-01-30 21:42:26,681164,170.000,416.000,8378.000,81.000,-201.000,30.000,NA,0.000,0
2026-01-30 21:42:26,681204,380.000,336.000,8354.000,-94.000,-174.000,42.000,NA,0.000,0
2026-01-30 21:42:26,681244,376.000,203.000,8407.000,-76.000,-41.000,16.000,NA,0.000,0
2026-01-30 21:42:27,681284,199.000,158.000,8470.000,49.000,67.000,-13.000,NA,0.000,0
2026-01-30 21:42:27,681324,22.000,284.000,8544.000,249.000,71.000,-20.000,NA,0.000,0
2026-01-30 21:42:27,681364,10.000,510.000,8517.000,228.000,5.000,7.000,NA,0.000,0
2026-01-30 21:42:27,681404,93.000,512.000,8464.000,23.000,-44.000,22.000,NA,0.000,0
2026-01-30 21:42:27,681444,225.000,328.000,8442.000,-121.000,-70.000,12.000,NA,0.000,0
2026-01-30 21:42:27,681484,280.000,224.000,8379.000,-38.000,-46.000,-5.000,NA,0.000,0
2026-01-30 21:42:27,681524,291.000,225.000,8388.000,21.000,9.000,-15.000,NA,0.000,0
2026-01-30 21:42:27,681564,61.000,298.000,8665.000,139.000,-80.000,-11.000,NA,0.000,0
2026-01-30 21:42:27,681604,84.000,482.000,8549.000,115.000,-303.000,102.000,NA,0.000,0
2026-01-30 21:42:27,681644,145.000,491.000,8574.000,103.000,-471.000,200.000,NA,0.000,0
2026-01-30 21:42:27,681684,185.000,500.000,8636.000,222.000,-672.000,245.000,NA,0.000,0
2026-01-30 21:42:27,681724,218.000,444.000,8485.000,59.000,-788.000,234.000,NA,0.000,0
2026-01-30 21:42:27,681764,347.000,377.000,8533.000,100.000,-953.000,242.000,NA,0.000,0
2026-01-30 21:42:27,681804,512.000,280.000,8573.000,322.000,-1084.000,250.000,NA,0.000,0
2026-01-30 21:42:27,681844,593.000,610.000,8482.000,583.000,-1078.000,392.000,NA,0.000,0
2026-01-30 21:42:27,681884,726.000,897.000,8409.000,700.000,-1100.000,485.000,NA,0.000,0
2026-01-30 21:42:27,681924,947.000,431.000,8218.000,458.000,-1020.000,471.000,NA,0.000,0
2026-01-30 21:42:27,681964,1114.000,515.000,8393.000,494.000,-837.000,485.000,NA,0.000,0
2026-01-30 21:42:27,682004,1135.000,555.000,8310.000,522.000,-714.000,395.000,NA,0.000,0
2026-01-30 21:42:27,682046,1219.000,495.000,8197.000,426.000,-557.000,258.000,NA,0.000,0
2026-01-30 21:42:27,682084,1273.000,498.000,8142.000,296.000,-346.000,217.000,NA,0.000,0
2026-01-30 21:42:27,682124,1362.000,754.000,8326.000,369.000,-207.000,158.000,NA,0.000,0
2026-01-30 21:42:27,682164,1291.000,716.000,8304.000,257.000,-74.000,64.000,NA,0.000,0
2026-01-30 21:42:27,682204,1201.000,676.000,8145.000,268.000,74.000,-21.000,NA,0.000,0
2026-01-30 21:42:27,682244,1253.000,803.000,8274.000,181.000,165.000,-39.000,NA,0.000,0
2026-01-30 21:42:28,682284,1204.000,804.000,8378.000,312.000,202.000,-24.000,NA,0.000,0
2026-01-30 21:42:28,682324,1098.000,842.000,8234.000,273.000,294.000,-50.000,NA,0.000,0
2026-01-30 21:42:28,682364,1105.000,854.000,8291.000,228.000,282.000,-67.000,NA,0.000,0
2026-01-30 21:42:28,682404,1068.000,976.000,8388.000,270.000,266.000,-81.000,NA,0.000,0
2026-01-30 21:42:28,682444,1006.000,1032.000,8394.000,181.000,233.000,-84.000,NA,0.000,0
2026-01-30 21:42:28,682484,983.000,1031.000,8407.000,184.000,157.000,-42.000,NA,0.000,0
2026-01-30 21:42:28,682524,956.000,1020.000,8297.000,88.000,127.000,-52.000,NA,0.000,0
2026-01-30 21:42:28,682564,1021.000,1028.000,8351.000,-29.000,82.000,-52.000,NA,0.000,0
2026-01-30 21:42:28,682604,987.000,989.000,8465.000,-32.000,19.000,-35.000,NA,0.000,0
2026-01-30 21:42:28,682644,929.000,936.000,8284.000,1.000,39.000,-28.000,NA,0.000,0
2026-01-30 21:42:28,682684,993.000,1020.000,8310.000,-3.000,27.000,-23.000,NA,0.000,0
2026-01-30 21:42:28,682724,1027.000,922.000,8329.000,-137.000,42.000,-10.000,NA,0.000,0
2026-01-30 21:42:28,682764,1041.000,880.000,8412.000,-38.000,33.000,-30.000,NA,0.000,0
2026-01-30 21:42:28,682804,985.000,939.000,8377.000,81.000,1.000,-45.000,NA,0.000,0
2026-01-30 21:42:28,682844,995.000,944.000,8276.000,13.000,-4.000,-38.000,NA,0.000,0
2026-01-30 21:42:28,682884,966.000,964.000,8316.000,0.000,51.000,-10.000,NA,0.000,0
2026-01-30 21:42:28,682924,953.000,989.000,8372.000,2.000,55.000,-9.000,NA,0.000,0
2026-01-30 21:42:28,682964,949.000,895.000,8370.000,-1.000,45.000,-31.000,NA,0.000,0
2026-01-30 21:42:28,683004,917.000,1039.000,8326.000,132.000,46.000,-22.000,NA,0.000,0
2026-01-30 21:42:28,683044,925.000,1001.000,8315.000,6.000,40.000,-27.000,NA,0.000,0
2026-01-30 21:42:28,683084,968.000,992.000,8371.000,-4.000,49.000,-9.000,NA,0.000,0
2026-01-30 21:42:28,683124,940.000,964.000,8380.000,-31.000,57.000,-18.000,NA,0.000,0
2026-01-30 21:42:28,683164,905.000,949.000,8389.000,51.000,6.000,-21.000,NA,0.000,0
2026-01-30 21:42:28,683204,897.000,1009.000,8300.000,43.000,-11.000,-2.000,NA,0.000,0
2026-01-30 21:42:28,683244,966.000,940.000,8300.000,-33.000,-6.000,-1.000,NA,0.000,0
2026-01-30 21:42:29,683284,957.000,975.000,8350.000,-8.000,23.000,-7.000,NA,0.000,0
2026-01-30 21:42:29,683324,922.000,963.000,8372.000,13.000,24.000,-18.000,NA,0.000,0
2026-01-30 21:42:29,683364,924.000,995.000,8339.000,51.000,12.000,-21.000,NA,0.000,0
2026-01-30 21:42:29,683404,928.000,992.000,8337.000,10.000,6.000,-19.000,NA,0.000,0
2026-01-30 21:42:29,683444,903.000,976.000,8358.000,3.000,-2.000,-15.000,NA,0.000,0
2026-01-30 21:42:29,683484,890.000,993.000,8347.000,-3.000,-5.000,-11.000,NA,0.000,0
2026-01-30 21:42:29,683524,896.000,981.000,8363.000,-20.000,-29.000,-11.000,NA,0.000,0
2026-01-30 21:42:29,683564,934.000,996.000,8364.000,-37.000,-49.000,2.000,NA,0.000,0
2026-01-30 21:42:29,683604,940.000,937.000,8391.000,-3.000,-75.000,-13.000,NA,0.000,0
2026-01-30 21:42:29,683644,957.000,980.000,8305.000,26.000,-79.000,-28.000,NA,0.000,0
2026-01-30 21:42:29,683684,953.000,950.000,8303.000,-11.000,-77.000,-26.000,NA,0.000,0
2026-01-30 21:42:29,683724,955.000,954.000,8309.000,-1.000,-37.000,-24.000,NA,0.000,0
2026-01-30 21:42:29,683764,942.000,1026.000,8425.000,26.000,-29.000,0.000,NA,0.000,0
2026-01-30 21:42:29,683804,929.000,917.000,8354.000,3.000,-24.000,-8.000,NA,0.000,0
2026-01-30 21:42:29,683844,962.000,1035.000,8354.000,100.000,-30.000,-24.000,NA,0.000,0
2026-01-30 21:42:29,683884,931.000,985.000,8323.000,42.000,-28.000,-20.000,NA,0.000,0
2026-01-30 21:42:29,683924,974.000,1017.000,8270.000,34.000,-14.000,-20.000,NA,0.000,0
2026-01-30 21:42:29,683964,996.000,981.000,8388.000,-2.000,-13.000,-24.000,NA,0.000,0
2026-01-30 21:42:29,684004,944.000,1002.000,8372.000,86.000,-12.000,-15.000,NA,0.000,0
2026-01-30 21:42:29,684044,927.000,1025.000,8316.000,51.000,3.000,-15.000,NA,0.000,0
2026-01-30 21:42:29,684084,952.000,1007.000,8338.000,13.000,-20.000,-21.000,NA,0.000,0
2026-01-30 21:42:29,684124,923.000,1023.000,8339.000,8.000,-36.000,-18.000,NA,0.000,0
2026-01-30 21:42:29,684164,950.000,1027.000,8348.000,22.000,-44.000,-18.000,NA,0.000,0
2026-01-30 21:42:29,684204,991.000,1023.000,8316.000,5.000,-24.000,-13.000,NA,0.000,0
2026-01-30 21:42:29,684244,972.000,1034.000,8324.000,-19.000,2.000,-12.000,NA,0.000,0
2026-01-30 21:42:30,684284,953.000,1000.000,8352.000,-14.000,12.000,-19.000,NA,0.000,0
2026-01-30 21:42:30,684324,940.000,1031.000,8391.000,17.000,-9.000,-14.000,NA,0.000,0
2026-01-30 21:42:30,684364,934.000,1009.000,8303.000,1.000,-22.000,-13.000,NA,0.000,0
2026-01-30 21:42:30,684404,958.000,1026.000,8349.000,7.000,-11.000,-2.000,NA,0.000,0
2026-01-30 21:42:30,684444,908.000,950.000,8319.000,-51.000,12.000,0.000,NA,0.000,0
2026-01-30 21:42:30,684484,930.000,960.000,8361.000,13.000,-7.000,-17.000,NA,0.000,0
2026-01-30 21:42:30,684524,934.000,1036.000,8325.000,47.000,-8.000,-23.000,NA,0.000,0
2026-01-30 21:42:30,684564,952.000,1023.000,8343.000,22.000,-10.000,-17.000,NA,0.000,0
2026-01-30 21:42:30,684604,924.000,1113.000,8348.000,48.000,37.000,20.000,NA,0.000,0
2026-01-30 21:42:30,684644,885.000,1021.000,8307.000,-4.000,36.000,8.000,NA,0.000,0
2026-01-30 21:42:30,684684,872.000,1079.000,8305.000,17.000,49.000,9.000,NA,0.000,0
2026-01-30 21:42:30,684724,845.000,954.000,8352.000,-121.000,42.000,4.000,NA,0.000,0
2026-01-30 21:42:30,684764,847.000,834.000,8408.000,-48.000,29.000,-15.000,NA,0.000,0
2026-01-30 21:42:30,684804,804.000,933.000,8354.000,58.000,3.000,-21.000,NA,0.000,0
2026-01-30 21:42:30,684844,755.000,901.000,8313.000,21.000,18.000,-19.000,NA,0.000,0
2026-01-30 21:42:30,684884,721.000,924.000,8362.000,17.000,43.000,7.000,NA,0.000,0
2026-01-30 21:42:30,684924,679.000,933.000,8364.000,14.000,63.000,12.000,NA,0.000,0
2026-01-30 21:42:30,684964,633.000,892.000,8435.000,10.000,66.000,7.000,NA,0.000,0
2026-01-30 21:42:30,685004,559.000,903.000,8376.000,46.000,63.000,-5.000,NA,0.000,0
2026-01-30 21:42:30,685044,582.000,947.000,8415.000,40.000,55.000,-24.000,NA,0.000,0
2026-01-30 21:42:30,685084,599.000,996.000,8406.000,35.000,47.000,-28.000,NA,0.000,0
2026-01-30 21:42:30,685124,619.000,931.000,8390.000,-21.000,48.000,-26.000,NA,0.000,0
2026-01-30 21:42:30,685164,595.000,900.000,8393.000,-1.000,52.000,-19.000,NA,0.000,0
2026-01-30 21:42:30,685204,539.000,912.000,8398.000,3.000,51.000,-10.000,NA,0.000,0
2026-01-30 21:42:30,685244,465.000,859.000,8399.000,-9.000,25.000,-8.000,NA,0.000,0
2026-01-30 21:42:31,685284,384.000,822.000,8376.000,26.000,45.000,-12.000,NA,0.000,0
2026-01-30 21:42:31,685324,335.000,795.000,8459.000,-20.000,31.000,-20.000,NA,0.000,0
2026-01-30 21:42:31,685364,250.000,779.000,8424.000,10.000,16.000,-30.000,NA,0.000,0
2026-01-30 21:42:31,685404,271.000,802.000,8431.000,28.000,23.000,-30.000,NA,0.000,0
2026-01-30 21:42:31,685444,242.000,840.000,8470.000,42.000,43.000,-2.000,NA,0.000,0
2026-01-30 21:42:31,685484,268.000,808.000,8445.000,1.000,46.000,-6.000,NA,0.000,0
2026-01-30 21:42:31,685524,227.000,752.000,8442.000,38.000,53.000,-11.000,NA,0.000,0
2026-01-30 21:42:31,685564,185.000,877.000,8467.000,111.000,66.000,-6.000,NA,0.000,0
2026-01-30 21:42:31,685604,152.000,911.000,8478.000,30.000,48.000,-13.000,NA,0.000,0
2026-01-30 21:42:31,685644,168.000,834.000,8377.000,-23.000,36.000,-3.000,NA,0.000,0
2026-01-30 21:42:31,685684,186.000,801.000,8482.000,-50.000,18.000,-12.000,NA,0.000,0
2026-01-30 21:42:31,685724,203.000,764.000,8447.000,-37.000,9.000,-1.000,NA,0.000,0
2026-01-30 21:42:31,685764,216.000,732.000,8415.000,-46.000,-10.000,-4.000,NA,0.000,0
2026-01-30 21:42:31,685804,193.000,723.000,8469.000,17.000,0.000,-21.000,NA,0.000,0
2026-01-30 21:42:31,685844,128.000,787.000,8438.000,89.000,20.000,-21.000,NA,0.000,0
2026-01-30 21:42:31,685884,106.000,848.000,8424.000,61.000,11.000,-2.000,NA,0.000,0
2026-01-30 21:42:31,685924,121.000,841.000,8392.000,0.000,-3.000,17.000,NA,0.000,0
2026-01-30 21:42:31,685966,134.000,815.000,8439.000,-68.000,15.000,23.000,NA,0.000,0
2026-01-30 21:42:31,686005,171.000,757.000,8500.000,-79.000,28.000,13.000,NA,0.000,0
2026-01-30 21:42:31,686047,118.000,717.000,8445.000,48.000,16.000,-47.000,NA,0.000,0
2026-01-30 21:42:31,686084,106.000,754.000,8439.000,73.000,12.000,-53.000,NA,0.000,0
2026-01-30 21:42:31,686124,41.000,742.000,8471.000,18.000,52.000,-12.000,NA,0.000,0
2026-01-30 21:42:31,686164,-5.000,749.000,8450.000,44.000,45.000,-8.000,NA,0.000,0
2026-01-30 21:42:31,686204,-24.000,777.000,8433.000,39.000,26.000,-3.000,NA,0.000,0
2026-01-30 21:42:31,686244,-3.000,742.000,8473.000,-3.000,5.000,1.000,NA,0.000,0
2026-01-30 21:42:32,686284,-16.000,723.000,8473.000,-52.000,15.000,17.000,NA,0.000,0
2026-01-30 21:42:32,686324,8.000,692.000,8479.000,-58.000,7.000,21.000,NA,0.000,0
2026-01-30 21:42:32,686364,-6.000,669.000,8492.000,3.000,16.000,-17.000,NA,0.000,0
2026-01-30 21:42:32,686404,-47.000,743.000,8473.000,60.000,53.000,-19.000,NA,0.000,0
2026-01-30 21:42:32,686444,-68.000,759.000,8510.000,21.000,44.000,-24.000,NA,0.000,0
2026-01-30 21:42:32,686484,-58.000,723.000,8427.000,37.000,47.000,-16.000,NA,0.000,0
2026-01-30 21:42:32,686524,-44.000,771.000,8428.000,6.000,81.000,-15.000,NA,0.000,0
2026-01-30 21:42:32,686564,-42.000,770.000,8526.000,-16.000,98.000,-3.000,NA,0.000,0
2026-01-30 21:42:32,686604,-57.000,733.000,8523.000,10.000,119.000,-3.000,NA,0.000,0
2026-01-30 21:42:32,686644,-148.000,736.000,8491.000,49.000,79.000,-35.000,NA,0.000,0
2026-01-30 21:42:32,686684,-143.000,750.000,8469.000,77.000,1.000,-40.000,NA,0.000,0
2026-01-30 21:42:32,686724,-27.000,881.000,8543.000,26.000,-10.000,-20.000,NA,0.000,0
2026-01-30 21:42:32,686764,-11.000,777.000,8587.000,-59.000,21.000,-7.000,NA,0.000,0
2026-01-30 21:42:32,686804,-54.000,705.000,8536.000,22.000,7.000,-7.000,NA,0.000,0
2026-01-30 21:42:32,686844,-64.000,740.000,8412.000,39.000,-73.000,-21.000,NA,0.000,0
2026-01-30 21:42:32,686884,60.000,758.000,8348.000,-12.000,-104.000,2.000,NA,0.000,0
2026-01-30 21:42:32,686924,146.000,725.000,8536.000,-93.000,-5.000,11.000,NA,0.000,0
2026-01-30 21:42:32,686964,-31.000,666.000,8550.000,125.000,47.000,-35.000,NA,0.000,0
2026-01-30 21:42:32,687004,-88.000,942.000,8416.000,302.000,-59.000,-67.000,NA,0.000,0
2026-01-30 21:42:32,687044,28.000,1016.000,8351.000,25.000,-97.000,-31.000,NA,0.000,0
2026-01-30 21:42:32,687084,116.000,742.000,8404.000,-202.000,22.000,20.000,NA,0.000,0
2026-01-30 21:42:32,687124,-6.000,590.000,8520.000,-50.000,102.000,-7.000,NA,0.000,0
2026-01-30 21:42:32,687164,-125.000,772.000,8514.000,208.000,12.000,-53.000,NA,0.000,0
2026-01-30 21:42:32,687204,-121.000,918.000,8413.000,179.000,-57.000,-46.000,NA,0.000,0
2026-01-30 21:42:32,687244,25.000,977.000,8451.000,-5.000,-60.000,11.000,NA,0.000,0
2026-01-30 21:42:33,687284,93.000,687.000,8393.000,-27.000,-41.000,0.000,NA,0.000,0
2026-01-30 21:42:33,687324,106.000,897.000,8396.000,101.000,-33.000,-16.000,NA,0.000,0
2026-01-30 21:42:33,687364,34.000,809.000,8446.000,-6.000,46.000,-16.000,NA,0.000,0
2026-01-30 21:42:33,687404,-103.000,869.000,8483.000,129.000,52.000,-22.000,NA,0.000,0
2026-01-30 21:42:33,687444,-137.000,986.000,8402.000,113.000,-52.000,-24.000,NA,0.000,0
2026-01-30 21:42:33,687484,60.000,987.000,8426.000,-86.000,-71.000,12.000,NA,0.000,0
2026-01-30 21:42:33,687524,120.000,786.000,8470.000,-148.000,-21.000,39.000,NA,0.000,0
2026-01-30 21:42:33,687564,122.000,780.000,8452.000,-21.000,-43.000,14.000,NA,0.000,0
2026-01-30 21:42:33,687604,185.000,887.000,8527.000,-53.000,-50.000,13.000,NA,0.000,0
2026-01-30 21:42:33,687644,91.000,669.000,8401.000,-56.000,-67.000,-13.000,NA,0.000,0
2026-01-30 21:42:33,687684,196.000,863.000,8361.000,107.000,-115.000,-27.000,NA,0.000,0
2026-01-30 21:42:33,687724,231.000,910.000,8433.000,9.000,-39.000,2.000,NA,0.000,0
2026-01-30 21:42:33,687764,191.000,911.000,8415.000,79.000,42.000,16.000,NA,0.000,0
2026-01-30 21:42:33,687804,116.000,1090.000,8463.000,63.000,86.000,24.000,NA,0.000,0
2026-01-30 21:42:33,687844,26.000,863.000,8491.000,-92.000,45.000,23.000,NA,0.000,0
2026-01-30 21:42:33,687884,91.000,762.000,8368.000,-59.000,-49.000,-3.000,NA,0.000,0
2026-01-30 21:42:33,687924,305.000,888.000,8498.000,-121.000,-28.000,8.000,NA,0.000,0
2026-01-30 21:42:33,687966,185.000,540.000,8480.000,-79.000,63.000,-27.000,NA,0.000,0
2026-01-30 21:42:33,688005,19.000,820.000,8370.000,309.000,-12.000,-29.000,NA,0.000,0
2026-01-30 21:42:33,688047,30.000,843.000,8347.000,-77.000,59.000,56.000,NA,0.000,0
2026-01-30 21:42:33,688084,38.000,843.000,8448.000,-74.000,110.000,71.000,NA,0.000,0
2026-01-30 21:42:33,688124,-12.000,762.000,8670.000,-124.000,169.000,44.000,NA,0.000,0
2026-01-30 21:42:33,688164,-102.000,648.000,8548.000,45.000,69.000,-8.000,NA,0.000,0
2026-01-30 21:42:33,688204,-8.000,817.000,8442.000,82.000,-29.000,-13.000,NA,0.000,0
2026-01-30 21:42:33,688244,-26.000,729.000,8567.000,-1.000,53.000,11.000,NA,0.000,0
2026-01-30 21:42:34,688284,-217.000,736.000,8438.000,171.000,42.000,-9.000,NA,0.000,0
2026-01-30 21:42:34,688324,-229.000,902.000,8246.000,169.000,-29.000,20.000,NA,0.000,0
2026-01-30 21:42:34,688364,5.000,907.000,8393.000,-176.000,4.000,103.000,NA,0.000,0
2026-01-30 21:42:34,688404,-141.000,525.000,8558.000,-239.000,136.000,62.000,NA,0.000,0
2026-01-30 21:42:34,688444,-186.000,709.000,8447.000,269.000,-31.000,-26.000,NA,0.000,0
2026-01-30 21:42:34,688484,-94.000,964.000,8400.000,150.000,-69.000,-6.000,NA,0.000,0
2026-01-30 21:42:34,688524,-30.000,899.000,8340.000,-18.000,31.000,31.000,NA,0.000,0
2026-01-30 21:42:34,688564,-92.000,927.000,8452.000,-44.000,149.000,55.000,NA,0.000,0
2026-01-30 21:42:34,688604,-194.000,767.000,8532.000,-75.000,157.000,30.000,NA,0.000,0
2026-01-30 21:42:34,688644,-362.000,812.000,8590.000,97.000,104.000,11.000,NA,0.000,0
2026-01-30 21:42:34,688684,-345.000,833.000,8495.000,2.000,-65.000,0.000,NA,0.000,0
2026-01-30 21:42:34,688724,-45.000,780.000,8293.000,-39.000,-125.000,-11.000,NA,0.000,0
2026-01-30 21:42:34,688764,62.000,814.000,8471.000,-128.000,1.000,6.000,NA,0.000,0
2026-01-30 21:42:34,688804,-213.000,718.000,8675.000,78.000,76.000,-22.000,NA,0.000,0
2026-01-30 21:42:34,688844,-215.000,891.000,8386.000,188.000,-35.000,-10.000,NA,0.000,0
2026-01-30 21:42:34,688884,-162.000,933.000,8370.000,-19.000,-34.000,2.000,NA,0.000,0
2026-01-30 21:42:34,688924,-218.000,850.000,8531.000,-64.000,56.000,5.000,NA,0.000,0
2026-01-30 21:42:34,688964,-283.000,863.000,8591.000,5.000,41.000,-23.000,NA,0.000,0
2026-01-30 21:42:34,689004,-134.000,841.000,8594.000,-109.000,-24.000,6.000,NA,0.000,0
2026-01-30 21:42:34,689044,-60.000,661.000,8423.000,-95.000,-78.000,-27.000,NA,0.000,0
2026-01-30 21:42:34,689084,38.000,675.000,8286.000,61.000,-103.000,-55.000,NA,0.000,0
2026-01-30 21:42:34,689124,-8.000,866.000,8429.000,87.000,22.000,-42.000,NA,0.000,0
2026-01-30 21:42:34,689164,-353.000,894.000,8492.000,81.000,143.000,15.000,NA,0.000,0
2026-01-30 21:42:34,689204,-347.000,962.000,8526.000,7.000,-4.000,65.000,NA,0.000,0
2026-01-30 21:42:34,689244,-154.000,807.000,8315.000,-69.000,-160.000,20.000,NA,0.000,0
2026-01-30 21:42:35,689284,180.000,876.000,8289.000,-134.000,-81.000,19.000,NA,0.000,0
2026-01-30 21:42:35,689324,253.000,720.000,8663.000,-336.000,108.000,51.000,NA,0.000,0
2026-01-30 21:42:35,689364,-83.000,602.000,8657.000,67.000,107.000,1.000,NA,0.000,0
2026-01-30 21:42:35,689404,-54.000,925.000,8307.000,263.000,-108.000,6.000,NA,0.000,0
2026-01-30 21:42:35,689444,206.000,1070.000,8539.000,-177.000,-64.000,107.000,NA,0.000,0
2026-01-30 21:42:35,689484,196.000,661.000,8452.000,-159.000,18.000,59.000,NA,0.000,0
2026-01-30 21:42:35,689524,395.000,890.000,8414.000,214.000,-68.000,-4.000,NA,0.000,0
2026-01-30 21:42:35,689564,783.000,1262.000,8384.000,-54.000,4.000,22.000,NA,0.000,0
2026-01-30 21:42:35,689604,903.000,1085.000,8161.000,-42.000,30.000,16.000,NA,0.000,0
2026-01-30 21:42:35,689644,997.000,1257.000,8253.000,23.000,33.000,-4.000,NA,0.000,0
2026-01-30 21:42:35,689684,844.000,1073.000,8303.000,-163.000,152.000,-44.000,NA,0.000,0
2026-01-30 21:42:35,689724,592.000,961.000,8406.000,1.000,259.000,-74.000,NA,0.000,0
2026-01-30 21:42:35,689764,457.000,1173.000,8344.000,281.000,195.000,-98.000,NA,0.000,0
2026-01-30 21:42:35,689804,528.000,1302.000,8258.000,357.000,73.000,-111.000,NA,0.000,0
2026-01-30 21:42:35,689844,777.000,1562.000,8378.000,213.000,31.000,-106.000,NA,0.000,0
2026-01-30 21:42:35,689884,942.000,1527.000,8321.000,-78.000,54.000,-43.000,NA,0.000,0
2026-01-30 21:42:35,689924,998.000,1130.000,8406.000,-358.000,50.000,20.000,NA,0.000,0
2026-01-30 21:42:35,689966,876.000,879.000,8415.000,-219.000,5.000,3.000,NA,0.000,0
2026-01-30 21:42:35,690005,709.000,960.000,8220.000,133.000,-28.000,-40.000,NA,0.000,0
2026-01-30 21:42:35,690046,653.000,1201.000,8464.000,113.000,35.000,11.000,NA,0.000,0
2026-01-30 21:42:35,690086,462.000,1119.000,8559.000,-1.000,107.000,48.000,NA,0.000,0
2026-01-30 21:42:35,690124,364.000,1050.000,8225.000,150.000,-98.000,8.000,NA,0.000,0
2026-01-30 21:42:35,690164,692.000,1164.000,8129.000,147.000,-326.000,-1.000,NA,0.000,0
2026-01-30 21:42:35,690204,1088.000,1237.000,8370.000,-145.000,-175.000,23.000,NA,0.000,0
2026-01-30 21:42:35,690244,790.000,883.000,8434.000,-46.000,204.000,-10.000,NA,0.000,0
2026-01-30 21:42:36,690284,409.000,1087.000,8399.000,460.000,170.000,-43.000,NA,0.000,0
2026-01-30 21:42:36,690324,399.000,1657.000,8211.000,277.000,-75.000,-21.000,NA,0.000,0
2026-01-30 21:42:36,690364,715.000,1357.000,8360.000,-199.000,-44.000,29.000,NA,0.000,0
2026-01-30 21:42:36,690404,665.000,1120.000,8342.000,-118.000,61.000,-29.000,NA,0.000,0
2026-01-30 21:42:36,690444,587.000,1184.000,8301.000,101.000,-5.000,-55.000,NA,0.000,0
2026-01-30 21:42:36,690484,679.000,1469.000,8349.000,28.000,-54.000,-7.000,NA,0.000,0
2026-01-30 21:42:36,690524,623.000,1244.000,8371.000,-256.000,27.000,35.000,NA,0.000,0
2026-01-30 21:42:36,690564,516.000,1027.000,8441.000,-214.000,4.000,44.000,NA,0.000,0
2026-01-30 21:42:36,690604,551.000,1149.000,8468.000,-71.000,-145.000,39.000,NA,0.000,0
2026-01-30 21:42:36,690644,728.000,1001.000,8294.000,-172.000,-268.000,11.000,NA,0.000,0
2026-01-30 21:42:36,690684,952.000,1045.000,8273.000,-63.000,-258.000,-34.000,NA,0.000,0
2026-01-30 21:42:36,690724,993.000,1236.000,8396.000,177.000,-60.000,-17.000,NA,0.000,0
2026-01-30 21:42:36,690764,764.000,1458.000,8385.000,357.000,61.000,-1.000,NA,0.000,0
2026-01-30 21:42:36,690804,738.000,1647.000,8201.000,266.000,-55.000,8.000,NA,0.000,0
2026-01-30 21:42:36,690844,1021.000,1620.000,8272.000,-127.000,-64.000,44.000,NA,0.000,0
2026-01-30 21:42:36,690884,1288.000,1550.000,8443.000,-333.000,-14.000,57.000,NA,0.000,0
2026-01-30 21:42:36,690924,1317.000,1222.000,8170.000,-261.000,-64.000,-8.000,NA,0.000,0
2026-01-30 21:42:36,690964,1483.000,1361.000,8216.000,-123.000,-157.000,-35.000,NA,0.000,0
2026-01-30 21:42:36,691004,1618.000,1414.000,8365.000,-305.000,-147.000,22.000,NA,0.000,0
2026-01-30 21:42:36,691044,1463.000,1036.000,8077.000,-150.000,-74.000,-22.000,NA,0.000,0
2026-01-30 21:42:36,691084,1454.000,1456.000,8215.000,154.000,-115.000,-9.000,NA,0.000,0
2026-01-30 21:42:36,691124,1484.000,1354.000,8346.000,-21.000,31.000,-4.000,NA,0.000,0
2026-01-30 21:42:36,691164,1320.000,1424.000,8354.000,149.000,143.000,6.000,NA,0.000,0
2026-01-30 21:42:36,691204,1124.000,1378.000,8263.000,155.000,104.000,7.000,NA,0.000,0
2026-01-30 21:42:36,691244,965.000,1320.000,8085.000,247.000,-28.000,-50.000,NA,0.000,0
2026-01-30 21:42:37,691284,998.000,1540.000,8196.000,279.000,-60.000,-43.000,NA,0.000,0
2026-01-30 21:42:37,691324,1076.000,1600.000,8430.000,14.000,86.000,10.000,NA,0.000,0
2026-01-30 21:42:37,691364,787.000,1129.000,8102.000,-15.000,74.000,10.000,NA,0.000,0
2026-01-30 21:42:37,691404,654.000,1005.000,7968.000,62.000,-87.000,-43.000,NA,0.000,0
2026-01-30 21:42:37,691444,773.000,1286.000,8508.000,-29.000,-51.000,-15.000,NA,0.000,0
2026-01-30 21:42:37,691484,606.000,1080.000,8406.000,-54.000,144.000,55.000,NA,0.000,0
2026-01-30 21:42:37,691524,603.000,1291.000,8561.000,13.000,41.000,59.000,NA,0.000,0
2026-01-30 21:42:37,691564,628.000,1209.000,8488.000,-102.000,-36.000,37.000,NA,0.000,0
2026-01-30 21:42:37,691604,721.000,1024.000,8333.000,-169.000,-79.000,6.000,NA,0.000,0
2026-01-30 21:42:37,691644,748.000,895.000,8370.000,-224.000,-22.000,11.000,NA,0.000,0
2026-01-30 21:42:37,691684,535.000,814.000,8445.000,143.000,6.000,-50.000,NA,0.000,0
2026-01-30 21:42:37,691724,399.000,1258.000,8539.000,461.000,40.000,-67.000,NA,0.000,0
2026-01-30 21:42:37,691764,464.000,1520.000,8542.000,111.000,47.000,37.000,NA,0.000,0
2026-01-30 21:42:37,691804,523.000,818.000,8067.000,-239.000,-76.000,37.000,NA,0.000,0
2026-01-30 21:42:37,691844,804.000,1177.000,8115.000,292.000,-30.000,-76.000,NA,0.000,0
2026-01-30 21:42:37,691884,475.000,1217.000,8335.000,198.000,345.000,-86.000,NA,0.000,0
2026-01-30 21:42:37,691924,151.000,1257.000,8340.000,404.000,338.000,-46.000,NA,0.000,0
2026-01-30 21:42:37,691964,-6.000,1639.000,8342.000,453.000,224.000,-18.000,NA,0.000,0
2026-01-30 21:42:37,692004,301.000,1652.000,8336.000,-87.000,37.000,50.000,NA,0.000,0
2026-01-30 21:42:37,692045,531.000,1256.000,8390.000,-406.000,9.000,35.000,NA,0.000,0
2026-01-30 21:42:37,692084,617.000,1143.000,8357.000,-290.000,-33.000,9.000,NA,0.000,0
2026-01-30 21:42:37,692124,681.000,1111.000,8390.000,-257.000,-113.000,4.000,NA,0.000,0
2026-01-30 21:42:37,692164,735.000,1136.000,8455.000,-264.000,-130.000,48.000,NA,0.000,0
2026-01-30 21:42:37,692204,759.000,926.000,8255.000,-330.000,-128.000,60.000,NA,0.000,0
2026-01-30 21:42:37,692244,873.000,1101.000,8413.000,52.000,-171.000,-7.000,NA,0.000,0
2026-01-30 21:42:38,692284,970.000,1555.000,8703.000,187.000,-39.000,8.000,NA,0.000,0
2026-01-30 21:42:38,692324,859.000,1441.000,8418.000,38.000,7.000,-7.000,NA,0.000,0
2026-01-30 21:42:38,692364,843.000,1227.000,8054.000,59.000,-73.000,15.000,NA,0.000,0
2026-01-30 21:42:38,692404,1072.000,1535.000,8241.000,-84.000,-142.000,26.000,NA,0.000,0
2026-01-30 21:42:38,692444,1293.000,1481.000,8325.000,-312.000,-67.000,70.000,NA,0.000,0
2026-01-30 21:42:38,692484,1433.000,1174.000,8195.000,-273.000,-97.000,37.000,NA,0.000,0
2026-01-30 21:42:38,692524,1409.000,1241.000,8156.000,16.000,-202.000,-42.000,NA,0.000,0
2026-01-30 21:42:38,692564,1385.000,1471.000,8303.000,52.000,-189.000,-46.000,NA,0.000,0
2026-01-30 21:42:38,692604,1297.000,1505.000,8247.000,-38.000,42.000,51.000,NA,0.000,0
2026-01-30 21:42:38,692644,1094.000,1194.000,7928.000,-47.000,31.000,36.000,NA,0.000,0
2026-01-30 21:42:38,692684,1289.000,1431.000,8265.000,-27.000,-81.000,39.000,NA,0.000,0
2026-01-30 21:42:38,692724,1448.000,1315.000,8413.000,-210.000,13.000,56.000,NA,0.000,0
2026-01-30 21:42:38,692764,1318.000,1020.000,8188.000,8.000,71.000,-40.000,NA,0.000,0
2026-01-30 21:42:38,692804,1307.000,1256.000,8177.000,278.000,-12.000,-93.000,NA,0.000,0
2026-01-30 21:42:38,692844,1342.000,1574.000,8368.000,135.000,9.000,-39.000,NA,0.000,0
2026-01-30 21:42:38,692884,1243.000,1258.000,8192.000,24.000,116.000,-54.000,NA,0.000,0
2026-01-30 21:42:38,692924,1165.000,1449.000,8113.000,287.000,157.000,-45.000,NA,0.000,0
2026-01-30 21:42:38,692964,1217.000,1674.000,8430.000,64.000,181.000,12.000,NA,0.000,0
2026-01-30 21:42:38,693004,1028.000,1271.000,8406.000,4.000,156.000,0.000,NA,0.000,0
2026-01-30 21:42:38,693044,1126.000,1413.000,8229.000,161.000,-91.000,-59.000,NA,0.000,0
2026-01-30 21:42:38,693084,1310.000,1414.000,8265.000,-52.000,-124.000,-46.000,NA,0.000,0
2026-01-30 21:42:38,693124,1239.000,1242.000,8191.000,-13.000,2.000,-45.000,NA,0.000,0
2026-01-30 21:42:38,693164,1181.000,1431.000,8249.000,167.000,27.000,-31.000,NA,0.000,0
2026-01-30 21:42:38,693204,1185.000,1612.000,8468.000,85.000,39.000,-7.000,NA,0.000,0
2026-01-30 21:42:38,693244,1010.000,1376.000,8530.000,34.000,95.000,-29.000,NA,0.000,0
2026-01-30 21:42:39,693284,1069.000,1468.000,8109.000,280.000,-114.000,-96.000,NA,0.000,0
2026-01-30 21:42:39,693324,1196.000,1653.000,8107.000,58.000,-163.000,-40.000,NA,0.000,0
2026-01-30 21:42:39,693364,1293.000,1137.000,8345.000,-319.000,112.000,11.000,NA,0.000,0
2026-01-30 21:42:39,693404,1147.000,1236.000,8413.000,166.000,113.000,-54.000,NA,0.000,0
2026-01-30 21:42:39,693444,1173.000,1532.000,8339.000,214.000,-6.000,-51.000,NA,0.000,0
2026-01-30 21:42:39,693484,1225.000,1361.000,8172.000,-28.000,-54.000,-23.000,NA,0.000,0
2026-01-30 21:42:39,693524,1109.000,1300.000,8077.000,163.000,-11.000,-35.000,NA,0.000,0
2026-01-30 21:42:39,693564,939.000,1581.000,8118.000,391.000,50.000,-33.000,NA,0.000,0
2026-01-30 21:42:39,693604,896.000,1775.000,8116.000,164.000,59.000,19.000,NA,0.000,0
2026-01-30 21:42:39,693644,969.000,1547.000,8120.000,-185.000,55.000,33.000,NA,0.000,0
2026-01-30 21:42:39,693684,1102.000,1422.000,8428.000,-239.000,63.000,28.000,NA,0.000,0
2026-01-30 21:42:39,693724,994.000,1248.000,8477.000,-180.000,46.000,-11.000,NA,0.000,0
2026-01-30 21:42:39,693764,1047.000,1310.000,8273.000,122.000,-173.000,-32.000,NA,0.000,0
2026-01-30 21:42:39,693804,1235.000,1508.000,8441.000,-76.000,-118.000,36.000,NA,0.000,0
2026-01-30 21:42:39,693844,1162.000,1172.000,8377.000,-183.000,-2.000,23.000,NA,0.000,0
2026-01-30 21:42:39,693884,978.000,1211.000,8121.000,296.000,-38.000,-61.000,NA,0.000,0
2026-01-30 21:42:39,693924,912.000,1678.000,8165.000,374.000,-23.000,-59.000,NA,0.000,0
2026-01-30 21:42:39,693964,834.000,1540.000,8255.000,-40.000,99.000,12.000,NA,0.000,0
2026-01-30 21:42:39,694004,827.000,1481.000,8418.000,21.000,119.000,31.000,NA,0.000,0
2026-01-30 21:42:39,694046,949.000,1486.000,8305.000,6.000,-28.000,-20.000,NA,0.000,0
2026-01-30 21:42:39,694084,984.000,1393.000,8221.000,-28.000,-68.000,-45.000,NA,0.000,0
2026-01-30 21:42:39,694124,1038.000,1395.000,8340.000,-41.000,-45.000,-37.000,NA,0.000,0
2026-01-30 21:42:39,694164,870.000,1169.000,8339.000,-54.000,33.000,-30.000,NA,0.000,0
2026-01-30 21:42:39,694204,842.000,1390.000,8253.000,159.000,-63.000,-9.000,NA,0.000,0
2026-01-30 21:42:39,694244,917.000,1530.000,8212.000,30.000,-132.000,19.000,NA,0.000,0
2026-01-30 21:42:40,694284,1020.000,1348.000,8120.000,-137.000,-93.000,33.000,NA,0.000,0
2026-01-30 21:42:40,694324,1001.000,1344.000,8397.000,-95.000,30.000,5.000,NA,0.000,0
2026-01-30 21:42:40,694364,829.000,1328.000,8527.000,2.000,79.000,-16.000,NA,0.000,0
2026-01-30 21:42:40,694404,739.000,1313.000,8290.000,151.000,-24.000,-29.000,NA,0.000,0
2026-01-30 21:42:40,694444,846.000,1419.000,8145.000,110.000,-156.000,-42.000,NA,0.000,0
2026-01-30 21:42:40,694484,1087.000,1411.000,8205.000,-85.000,-129.000,-39.000,NA,0.000,0
2026-01-30 21:42:40,694524,933.000,1313.000,8411.000,19.000,136.000,-22.000,NA,0.000,0
2026-01-30 21:42:40,694564,728.000,1447.000,8422.000,154.000,82.000,18.000,NA,0.000,0
2026-01-30 21:42:40,694604,609.000,1476.000,8168.000,129.000,-45.000,9.000,NA,0.000,0
2026-01-30 21:42:40,694644,620.000,1402.000,8023.000,21.000,-107.000,-22.000,NA,0.000,0
2026-01-30 21:42:40,694684,766.000,1397.000,8169.000,-107.000,-57.000,0.000,NA,0.000,0
2026-01-30 21:42:40,694724,724.000,1229.000,8397.000,-219.000,69.000,11.000,NA,0.000,0
2026-01-30 21:42:40,694764,551.000,1201.000,8450.000,-16.000,73.000,-5.000,NA,0.000,0
2026-01-30 21:42:40,694804,476.000,1315.000,8339.000,30.000,-40.000,-21.000,NA,0.000,0
2026-01-30 21:42:40,694844,670.000,1339.000,8353.000,-174.000,-112.000,26.000,NA,0.000,0
2026-01-30 21:42:40,694884,747.000,952.000,8413.000,-373.000,-66.000,33.000,NA,0.000,0
2026-01-30 21:42:40,694924,682.000,977.000,8424.000,-33.000,-4.000,-2.000,NA,0.000,0
2026-01-30 21:42:40,694964,491.000,985.000,8315.000,103.000,-5.000,-10.000,NA,0.000,0
2026-01-30 21:42:40,695004,406.000,1113.000,8290.000,193.000,-24.000,-50.000,NA,0.000,0
2026-01-30 21:42:40,695044,511.000,1612.000,8480.000,301.000,28.000,-42.000,NA,0.000,0
2026-01-30 21:42:40,695084,460.000,1375.000,8309.000,-27.000,87.000,9.000,NA,0.000,0
2026-01-30 21:42:40,695124,378.000,1089.000,8171.000,15.000,36.000,3.000,NA,0.000,0
2026-01-30 21:42:40,695164,320.000,1324.000,8345.000,112.000,2.000,-25.000,NA,0.000,0
2026-01-30 21:42:40,695204,299.000,1305.000,8397.000,-90.000,52.000,11.000,NA,0.000,0
2026-01-30 21:42:40,695244,433.000,1149.000,8258.000,-121.000,-41.000,14.000,NA,0.000,0
2026-01-30 21:42:41,695284,786.000,1351.000,8610.000,-163.000,-77.000,-9.000,NA,0.000,0
2026-01-30 21:42:41,695324,594.000,1093.000,8572.000,-190.000,67.000,-24.000,NA,0.000,0
2026-01-30 21:42:41,695364,299.000,1046.000,8290.000,97.000,-6.000,-31.000,NA,0.000,0
2026-01-30 21:42:41,695404,380.000,1338.000,8287.000,100.000,-111.000,8.000,NA,0.000,0
2026-01-30 21:42:41,695444,588.000,1309.000,8384.000,-267.000,-112.000,77.000,NA,0.000,0
2026-01-30 21:42:41,695484,807.000,1021.000,8318.000,-297.000,-66.000,39.000,NA,0.000,0
2026-01-30 21:42:41,695524,1000.000,1019.000,8376.000,-134.000,-51.000,35.000,NA,0.000,0
2026-01-30 21:42:41,695564,848.000,954.000,8409.000,-22.000,21.000,-36.000,NA,0.000,0
2026-01-30 21:42:41,695604,715.000,1261.000,8264.000,410.000,6.000,-97.000,NA,0.000,0
2026-01-30 21:42:41,695644,954.000,1768.000,8364.000,276.000,-14.000,-15.000,NA,0.000,0
2026-01-30 21:42:41,695684,847.000,940.000,8227.000,-407.000,77.000,47.000,NA,0.000,0
2026-01-30 21:42:41,695724,714.000,1081.000,8317.000,131.000,26.000,-68.000,NA,0.000,0
2026-01-30 21:42:41,695764,674.000,1475.000,8311.000,266.000,5.000,-72.000,NA,0.000,0
2026-01-30 21:42:41,695804,749.000,1427.000,8254.000,-9.000,-6.000,-6.000,NA,0.000,0
2026-01-30 21:42:41,695844,876.000,1291.000,8270.000,-135.000,-43.000,28.000,NA,0.000,0
2026-01-30 21:42:41,695884,938.000,1194.000,8340.000,-144.000,-43.000,22.000,NA,0.000,0
2026-01-30 21:42:41,695926,865.000,1083.000,8350.000,-126.000,11.000,-5.000,NA,0.000,0
2026-01-30 21:42:41,695965,778.000,1051.000,8298.000,-81.000,-14.000,-1.000,NA,0.000,0
2026-01-30 21:42:41,696004,852.000,1070.000,8279.000,-41.000,-90.000,25.000,NA,0.000,0
2026-01-30 21:42:41,696046,968.000,1095.000,8414.000,4.000,-4.000,0.000,NA,0.000,0
2026-01-30 21:42:41,696084,785.000,1077.000,8325.000,277.000,85.000,-72.000,NA,0.000,0
2026-01-30 21:42:41,696124,649.000,1490.000,8336.000,476.000,109.000,-77.000,NA,0.000,0
2026-01-30 21:42:41,696164,615.000,1554.000,8281.000,181.000,93.000,-21.000,NA,0.000,0
2026-01-30 21:42:41,696204,665.000,1393.000,8192.000,47.000,64.000,-10.000,NA,0.000,0
2026-01-30 21:42:41,696244,748.000,1461.000,8295.000,62.000,72.000,-23.000,NA,0.000,0
2026-01-30 21:42:42,696284,657.000,1474.000,8436.000,19.000,137.000,-40.000,NA,0.000,0
2026-01-30 21:42:42,696324,524.000,1348.000,8337.000,-17.000,48.000,-28.000,NA,0.000,0
2026-01-30 21:42:42,696364,667.000,1217.000,8247.000,-120.000,-84.000,-8.000,NA,0.000,0
2026-01-30 21:42:42,696404,750.000,1073.000,8321.000,-174.000,-52.000,7.000,NA,0.000,0
2026-01-30 21:42:42,696444,726.000,975.000,8278.000,-10.000,-62.000,-9.000,NA,0.000,0
2026-01-30 21:42:42,696484,800.000,1264.000,8149.000,198.000,-67.000,-6.000,NA,0.000,0
2026-01-30 21:42:42,696524,840.000,1434.000,8314.000,19.000,33.000,22.000,NA,0.000,0
2026-01-30 21:42:42,696564,709.000,1362.000,8499.000,-25.000,146.000,10.000,NA,0.000,0
2026-01-30 21:42:42,696604,622.000,1386.000,8420.000,177.000,101.000,-21.000,NA,0.000,0
2026-01-30 21:42:42,696644,640.000,1587.000,8406.000,209.000,35.000,-51.000,NA,0.000,0
2026-01-30 21:42:42,696684,633.000,1457.000,8442.000,-32.000,2.000,-40.000,NA,0.000,0
2026-01-30 21:42:42,696724,675.000,1265.000,8294.000,-17.000,-77.000,-32.000,NA,0.000,0
2026-01-30 21:42:42,696764,877.000,1425.000,8220.000,-4.000,-177.000,-9.000,NA,0.000,0
2026-01-30 21:42:42,696804,1106.000,1156.000,8370.000,-344.000,-126.000,48.000,NA,0.000,0
2026-01-30 21:42:42,696844,1114.000,1062.000,8329.000,-83.000,-57.000,39.000,NA,0.000,0
2026-01-30 21:42:42,696884,1102.000,1306.000,8211.000,181.000,-122.000,-25.000,NA,0.000,0
2026-01-30 21:42:42,696924,1143.000,1589.000,8249.000,181.000,-79.000,-23.000,NA,0.000,0
2026-01-30 21:42:42,696964,1172.000,1690.000,8288.000,60.000,14.000,-1.000,NA,0.000,0
2026-01-30 21:42:42,697004,1168.000,1566.000,8087.000,-8.000,40.000,-1.000,NA,0.000,0
2026-01-30 21:42:42,697044,1183.000,1534.000,8201.000,9.000,21.000,-27.000,NA,0.000,0
2026-01-30 21:42:42,697084,1214.000,1582.000,8259.000,-22.000,7.000,-31.000,NA,0.000,0
2026-01-30 21:42:42,697124,1214.000,1446.000,8239.000,-35.000,49.000,-44.000,NA,0.000,0
2026-01-30 21:42:42,697164,1190.000,1610.000,8282.000,42.000,35.000,-32.000,NA,0.000,0
2026-01-30 21:42:42,697204,1256.000,1573.000,8374.000,-120.000,-52.000,18.000,NA,0.000,0
2026-01-30 21:42:42,697244,1322.000,1470.000,8339.000,-151.000,-38.000,-8.000,NA,0.000,0
2026-01-30 21:42:43,697284,1368.000,1409.000,8219.000,-201.000,-86.000,38.000,NA,0.000,0
2026-01-30 21:42:43,697324,1372.000,1182.000,8214.000,-141.000,-123.000,17.000,NA,0.000,0
2026-01-30 21:42:43,697364,1364.000,1478.000,8371.000,156.000,-59.000,-1.000,NA,0.000,0
2026-01-30 21:42:43,697404,1466.000,1735.000,8314.000,78.000,-81.000,-10.000,NA,0.000,0
2026-01-30 21:42:43,697444,1542.000,1540.000,8300.000,-86.000,-91.000,-17.000,NA,0.000,0
2026-01-30 21:42:43,697484,1556.000,1723.000,8465.000,-48.000,-123.000,-59.000,NA,0.000,0
2026-01-30 21:42:43,697524,1490.000,1824.000,8764.000,-551.000,-185.000,-58.000,NA,0.000,0
2026-01-30 21:42:43,697564,1143.000,1129.000,8390.000,-666.000,-89.000,-322.000,NA,0.000,0
2026-01-30 21:42:43,697604,1475.000,2146.000,9138.000,-628.000,-209.000,-594.000,NA,0.000,0
2026-01-30 21:42:43,697644,1736.000,1823.000,8788.000,-1936.000,101.000,-472.000,NA,0.000,0
2026-01-30 21:42:43,697684,1725.000,1805.000,8411.000,-1824.000,495.000,-672.000,NA,0.000,0
2026-01-30 21:42:43,697724,1714.000,1269.000,8296.000,-2478.000,959.000,-675.000,NA,0.000,0
2026-01-30 21:42:43,697764,1723.000,1227.000,8603.000,-1965.000,1477.000,-1043.000,NA,0.000,0
2026-01-30 21:42:43,697804,1487.000,1334.000,8972.000,-1666.000,2025.000,-1504.000,NA,0.000,0
2026-01-30 21:42:43,697844,1164.000,858.000,8933.000,-1870.000,2366.000,-1915.000,NA,0.000,0
2026-01-30 21:42:43,697884,831.000,826.000,9043.000,-1824.000,2562.000,-2316.000,NA,0.000,0
2026-01-30 21:42:43,697925,445.000,409.000,8697.000,-2078.000,2813.000,-2540.000,NA,0.000,0
2026-01-30 21:42:43,697964,-63.000,126.000,8716.000,-2336.000,3008.000,-2792.000,NA,0.000,0
2026-01-30 21:42:43,698004,-544.000,-461.000,8211.000,-2583.000,3150.000,-2966.000,NA,0.000,0
2026-01-30 21:42:43,698044,-557.000,-787.000,8255.000,-2313.000,3054.000,-3035.000,NA,0.000,0
2026-01-30 21:42:43,698084,-1046.000,-1049.000,7818.000,-2200.000,3091.000,-2898.000,NA,0.000,0
2026-01-30 21:42:43,698124,-864.000,-1333.000,7940.000,-2432.000,2836.000,-2650.000,NA,0.000,0
2026-01-30 21:42:43,698164,-1321.000,-1648.000,7591.000,-2298.000,2695.000,-2423.000,NA,0.000,0
2026-01-30 21:42:43,698204,-1329.000,-2069.000,7573.000,-2325.000,2345.000,-2241.000,NA,0.000,0
2026-01-30 21:42:43,698244,-1550.000,-2477.000,7331.000,-1805.000,1989.000,-2098.000,NA,0.000,0
2026-01-30 21:42:44,698284,-1598.000,-2158.000,7569.000,-1624.000,1654.000,-1804.000,NA,0.000,0
2026-01-30 21:42:44,698324,-1951.000,-3158.000,7327.000,-1713.000,1354.000,-1327.000,NA,0.000,0
2026-01-30 21:42:44,698364,-2096.000,-3369.000,7363.000,-668.000,1204.000,-1109.000,NA,0.000,0
2026-01-30 21:42:44,698404,-2214.000,-2809.000,7549.000,-89.000,1057.000,-804.000,NA,0.000,0
2026-01-30 21:42:44,698444,-2340.000,-3201.000,7507.000,-717.000,993.000,-455.000,NA,0.000,0
2026-01-30 21:42:44,698484,-2707.000,-3469.000,7190.000,-320.000,792.000,-323.000,NA,0.000,0
2026-01-30 21:42:44,698524,-2723.000,-2946.000,7365.000,179.000,596.000,-309.000,NA,0.000,0
2026-01-30 21:42:44,698564,-2691.000,-3064.000,7365.000,-358.000,374.000,-106.000,NA,0.000,0
2026-01-30 21:42:44,698604,-2884.000,-3295.000,7151.000,-174.000,296.000,-11.000,NA,0.000,0
2026-01-30 21:42:44,698644,-2953.000,-3178.000,6998.000,265.000,133.000,-49.000,NA,0.000,0
2026-01-30 21:42:44,698684,-2680.000,-2776.000,7500.000,202.000,-89.000,1.000,NA,0.000,0
2026-01-30 21:42:44,698724,-2900.000,-3102.000,7235.000,88.000,-67.000,174.000,NA,0.000,0
2026-01-30 21:42:44,698764,-3010.000,-3087.000,7156.000,319.000,-150.000,69.000,NA,0.000,0
2026-01-30 21:42:44,698804,-2765.000,-2723.000,7581.000,8.000,-333.000,74.000,NA,0.000,0
2026-01-30 21:42:44,698844,-2796.000,-3133.000,7427.000,-172.000,-342.000,97.000,NA,0.000,0
2026-01-30 21:42:44,698884,-2890.000,-2965.000,7304.000,59.000,-299.000,-3.000,NA,0.000,0
2026-01-30 21:42:44,698924,-2847.000,-2959.000,7358.000,160.000,-383.000,-159.000,NA,0.000,0
2026-01-30 21:42:44,698964,-2665.000,-2829.000,7449.000,104.000,-530.000,-214.000,NA,0.000,0
2026-01-30 21:42:44,699004,-2513.000,-3329.000,7487.000,-72.000,-624.000,-198.000,NA,0.000,0
2026-01-30 21:42:44,699044,-2640.000,-3535.000,7428.000,232.000,-531.000,-255.000,NA,0.000,0
2026-01-30 21:42:44,699084,-2710.000,-3445.000,7469.000,234.000,-414.000,-267.000,NA,0.000,0
2026-01-30 21:42:44,699124,-2860.000,-3583.000,7262.000,-149.000,-296.000,-185.000,NA,0.000,0
2026-01-30 21:42:44,699164,-2795.000,-3252.000,7260.000,-310.000,-253.000,-113.000,NA,0.000,0
2026-01-30 21:42:44,699204,-2575.000,-3232.000,7447.000,-471.000,-215.000,18.000,NA,0.000,0
2026-01-30 21:42:44,699244,-1956.000,-3445.000,6432.000,-392.000,-102.000,204.000,NA,0.000,0
2026-01-30 21:42:45,699284,-2449.000,-3501.000,6522.000,-952.000,204.000,300.000,NA,0.000,0
2026-01-30 21:42:45,699324,-2663.000,-3734.000,7785.000,-1365.000,-570.000,361.000,NA,0.000,0
2026-01-30 21:42:45,699364,-2655.000,-3206.000,7904.000,2253.000,-513.000,144.000,NA,0.000,0
2026-01-30 21:42:45,699404,-2730.000,-2900.000,7091.000,1248.000,-342.000,-44.000,NA,0.000,0
2026-01-30 21:42:45,699444,-2882.000,-3346.000,7621.000,-248.000,-68.000,-60.000,NA,0.000,0
2026-01-30 21:42:45,699484,-2568.000,-3100.000,7476.000,108.000,-261.000,58.000,NA,0.000,0
2026-01-30 21:42:45,699524,-2347.000,-3032.000,7360.000,-240.000,-104.000,25.000,NA,0.000,0
2026-01-30 21:42:45,699564,-2251.000,-3233.000,7386.000,-304.000,-23.000,30.000,NA,0.000,0
2026-01-30 21:42:45,699604,-2237.000,-3290.000,7324.000,188.000,-129.000,-49.000,NA,0.000,0
2026-01-30 21:42:45,699644,-2296.000,-3258.000,7448.000,260.000,-210.000,-99.000,NA,0.000,0
2026-01-30 21:42:45,699684,-2437.000,-3491.000,7564.000,122.000,-228.000,-44.000,NA,0.000,0
2026-01-30 21:42:45,699724,-2557.000,-3451.000,7551.000,129.000,-198.000,34.000,NA,0.000,0
2026-01-30 21:42:45,699764,-2502.000,-3234.000,7615.000,-130.000,-117.000,101.000,NA,0.000,0
2026-01-30 21:42:45,699806,-2550.000,-3194.000,7393.000,-363.000,-2.000,204.000,NA,0.000,0
2026-01-30 21:42:45,699845,-2361.000,-3138.000,7355.000,-221.000,14.000,125.000,NA,0.000,0
2026-01-30 21:42:45,699884,-2364.000,-3106.000,7322.000,70.000,-68.000,18.000,NA,0.000,0
2026-01-30 21:42:45,699924,-2329.000,-3282.000,7504.000,114.000,-175.000,-62.000,NA,0.000,0
2026-01-30 21:42:45,699964,-2370.000,-3388.000,7442.000,247.000,-236.000,-101.000,NA,0.000,0
2026-01-30 21:42:45,700004,-2404.000,-3406.000,7641.000,74.000,-286.000,-57.000,NA,0.000,0
2026-01-30 21:42:45,700047,-1838.000,-3673.000,7200.000,-216.000,-215.000,247.000,NA,0.000,0
2026-01-30 21:42:45,700084,-2430.000,-2958.000,7167.000,-108.000,148.000,327.000,NA,0.000,0
2026-01-30 21:42:45,700124,-1965.000,-3126.000,6359.000,-1278.000,34.000,555.000,NA,0.000,0
2026-01-30 21:42:45,700164,-2809.000,-3749.000,7507.000,-1322.000,156.000,492.000,NA,0.000,0
2026-01-30 21:42:45,700204,-2521.000,-3792.000,8983.000,979.000,-1472.000,518.000,NA,0.000,0
2026-01-30 21:42:45,700244,-2774.000,-3232.000,6575.000,1077.000,89.000,-264.000,NA,0.000,0
2026-01-30 21:42:46,700284,-2766.000,-3353.000,7683.000,228.000,115.000,-317.000,NA,0.000,0
2026-01-30 21:42:46,700324,-2401.000,-3200.000,8135.000,238.000,-26.000,-65.000,NA,0.000,0
2026-01-30 21:42:46,700364,-2109.000,-3032.000,7468.000,-123.000,-128.000,149.000,NA,0.000,0
2026-01-30 21:42:46,700404,-2028.000,-3249.000,7419.000,-314.000,50.000,172.000,NA,0.000,0
2026-01-30 21:42:46,700444,-2175.000,-3023.000,7600.000,-68.000,98.000,159.000,NA,0.000,0
2026-01-30 21:42:46,700484,-2281.000,-3004.000,7480.000,12.000,-49.000,102.000,NA,0.000,0
2026-01-30 21:42:46,700524,-2278.000,-3100.000,7529.000,-20.000,-112.000,-6.000,NA,0.000,0
2026-01-30 21:42:46,700564,-2328.000,-3327.000,7535.000,-7.000,-106.000,-63.000,NA,0.000,0
2026-01-30 21:42:46,700604,-2235.000,-3165.000,7560.000,145.000,-132.000,-55.000,NA,0.000,0
2026-01-30 21:42:46,700644,-2219.000,-3165.000,7561.000,-199.000,-87.000,39.000,NA,0.000,0
2026-01-30 21:42:46,700684,-2108.000,-3263.000,7555.000,-256.000,-91.000,93.000,NA,0.000,0
2026-01-30 21:42:46,700724,-2116.000,-3130.000,7672.000,-176.000,-134.000,77.000,NA,0.000,0
2026-01-30 21:42:46,700764,-3015.000,-2864.000,6622.000,-1853.000,1397.000,390.000,NA,0.000,0
2026-01-30 21:42:46,700804,-2175.000,-3962.000,8036.000,-1722.000,108.000,408.000,NA,0.000,0
2026-01-30 21:42:46,700844,-2320.000,-4416.000,8526.000,690.000,-670.000,308.000,NA,0.000,0
