datetime_local,uptime_ms,acc_x,acc_y,acc_z,gyro_x,gyro_y,gyro_z,speed_mps,turn_rate_deg_s,gps_valid
2026-01-30 21:45:35,869604,-1682.000,-231.000,8563.000,-120.000,-307.000,-363.000,NA,0.000,0
2026-01-30 21:45:35,869644,-856.000,89.000,8489.000,260.000,-541.000,212.000,NA,0.000,0
2026-01-30 21:45:35,869684,-1177.000,108.000,8426.000,-88.000,106.000,317.000,NA,0.000,0
2026-01-30 21:45:35,869726,-1354.000,-95.000,8474.000,-128.000,64.000,-236.000,NA,0.000,0
2026-01-30 21:45:35,869765,-1273.000,66.000,8413.000,74.000,-55.000,-145.000,NA,0.000,0
2026-01-30 21:45:35,869805,-1145.000,17.000,8353.000,-108.000,-22.000,-252.000,NA,0.000,0
2026-01-30 21:45:35,869848,-1349.000,-99.000,8453.000,7.000,-119.000,-103.000,NA,0.000,0
2026-01-30 21:45:35,869884,-1210.000,-20.000,8483.000,-1.000,-168.000,-156.000,NA,0.000,0
2026-01-30 21:45:35,869924,-1275.000,-25.000,8435.000,-28.000,3.000,-2.000,NA,0.000,0
2026-01-30 21:45:35,869964,-1251.000,35.000,8517.000,53.000,-206.000,29.000,NA,0.000,0
2026-01-30 21:45:35,870004,-1151.000,-150.000,8382.000,-58.000,-222.000,88.000,NA,0.000,0
2026-01-30 21:45:35,870044,-1128.000,-136.000,8429.000,-21.000,61.000,-27.000,NA,0.000,0
2026-01-30 21:45:35,870084,-1245.000,-62.000,8387.000,31.000,238.000,39.000,NA,0.000,0
2026-01-30 21:45:35,870124,-1335.000,4.000,8565.000,34.000,51.000,96.000,NA,0.000,0
2026-01-30 21:45:35,870164,-1248.000,224.000,8564.000,134.000,-66.000,158.000,NA,0.000,0
2026-01-30 21:45:35,870204,-1323.000,-17.000,8605.000,239.000,139.000,96.000,NA,0.000,0
2026-01-30 21:45:35,870244,-2341.000,-763.000,8670.000,235.000,754.000,1404.000,NA,0.000,0
2026-01-30 21:45:36,870284,-945.000,110.000,8424.000,746.000,26.000,182.000,NA,0.000,0
2026-01-30 21:45:36,870324,-1338.000,411.000,8355.000,681.000,229.000,67.000,NA,0.000,0
2026-01-30 21:45:36,870364,-1520.000,378.000,8434.000,71.000,60.000,-34.000,NA,0.000,0
2026-01-30 21:45:36,870404,-1382.000,22.000,8505.000,-60.000,-69.000,20.000,NA,0.000,0
2026-01-30 21:45:36,870444,-1262.000,145.000,8485.000,385.000,-4.000,90.000,NA,0.000,0
2026-01-30 21:45:36,870484,-1289.000,399.000,8366.000,551.000,102.000,-4.000,NA,0.000,0
2026-01-30 21:45:36,870524,-1541.000,341.000,8241.000,391.000,151.000,-78.000,NA,0.000,0
2026-01-30 21:45:36,870564,-1579.000,450.000,8371.000,251.000,29.000,-60.000,NA,0.000,0
2026-01-30 21:45:36,870604,-1452.000,438.000,8432.000,74.000,-73.000,23.000,NA,0.000,0
2026-01-30 21:45:36,870644,-1348.000,433.000,8439.000,158.000,-85.000,96.000,NA,0.000,0
2026-01-30 21:45:36,870684,-1360.000,363.000,8384.000,308.000,-58.000,86.000,NA,0.000,0
2026-01-30 21:45:36,870724,-1289.000,449.000,8354.000,232.000,-55.000,62.000,NA,0.000,0
2026-01-30 21:45:36,870764,-1368.000,343.000,8338.000,98.000,6.000,2.000,NA,0.000,0
2026-01-30 21:45:36,870804,-1425.000,503.000,8458.000,264.000,39.000,-37.000,NA,0.000,0
2026-01-30 21:45:36,870844,-1440.000,616.000,8470.000,228.000,48.000,-58.000,NA,0.000,0
2026-01-30 21:45:36,870884,-1383.000,595.000,8516.000,55.000,-31.000,-43.000,NA,0.000,0
2026-01-30 21:45:36,870924,-1259.000,478.000,8534.000,102.000,-66.000,-2.000,NA,0.000,0
2026-01-30 21:45:36,870964,-1287.000,515.000,8440.000,157.000,-10.000,44.000,NA,0.000,0
2026-01-30 21:45:36,871004,-1405.000,555.000,8295.000,168.000,-5.000,-8.000,NA,0.000,0
2026-01-30 21:45:36,871044,-1435.000,637.000,8307.000,159.000,6.000,-27.000,NA,0.000,0
2026-01-30 21:45:36,871084,-1440.000,636.000,8438.000,39.000,-35.000,-14.000,NA,0.000,0
2026-01-30 21:45:36,871124,-1308.000,535.000,8469.000,-34.000,-67.000,-13.000,NA,0.000,0
2026-01-30 21:45:36,871164,-1274.000,492.000,8386.000,189.000,-18.000,22.000,NA,0.000,0
2026-01-30 21:45:36,871204,-1214.000,699.000,8378.000,266.000,-22.000,100.000,NA,0.000,0
2026-01-30 21:45:36,871244,-1114.000,597.000,8365.000,190.000,69.000,31.000,NA,0.000,0
2026-01-30 21:45:37,871284,-1170.000,438.000,8673.000,686.000,247.000,-128.000,NA,0.000,0
2026-01-30 21:45:37,871324,-1317.000,330.000,8198.000,1573.000,458.000,-202.000,NA,0.000,0
2026-01-30 21:45:37,871364,-1460.000,884.000,8326.000,2661.000,671.000,-387.000,NA,0.000,0
2026-01-30 21:45:37,871404,-1600.000,1779.000,8033.000,3374.000,1051.000,-474.000,NA,0.000,0
2026-01-30 21:45:37,871446,-1886.000,2119.000,8039.000,3321.000,1182.000,-411.000,NA,0.000,0
2026-01-30 21:45:37,871485,-1900.000,2348.000,8028.000,3349.000,1157.000,-268.000,NA,0.000,0
2026-01-30 21:45:37,871524,-2017.000,2508.000,7907.000,2727.000,1161.000,-20.000,NA,0.000,0
2026-01-30 21:45:37,871564,-1926.000,2542.000,7716.000,2834.000,1250.000,399.000,NA,0.000,0
2026-01-30 21:45:37,871605,-1928.000,3281.000,7668.000,2738.000,1169.000,302.000,NA,0.000,0
2026-01-30 21:45:37,871644,-2095.000,3093.000,7872.000,1703.000,1115.000,562.000,NA,0.000,0
2026-01-30 21:45:37,871684,-2136.000,3402.000,7546.000,2018.000,804.000,473.000,NA,0.000,0
2026-01-30 21:45:37,871724,-2206.000,3430.000,7231.000,1795.000,579.000,386.000,NA,0.000,0
2026-01-30 21:45:37,871764,-2141.000,3676.000,7424.000,879.000,381.000,332.000,NA,0.000,0
2026-01-30 21:45:37,871804,-2158.000,3358.000,7351.000,-39.000,9.000,147.000,NA,0.000,0
2026-01-30 21:45:37,871844,-2140.000,3504.000,7316.000,1005.000,9.000,-216.000,NA,0.000,0
2026-01-30 21:45:37,871884,-2014.000,4131.000,7314.000,1374.000,199.000,-200.000,NA,0.000,0
2026-01-30 21:45:37,871924,-2173.000,3766.000,7116.000,166.000,310.000,2.000,NA,0.000,0
2026-01-30 21:45:37,871964,-2457.000,3714.000,7096.000,155.000,177.000,-127.000,NA,0.000,0
2026-01-30 21:45:37,872004,-2410.000,4008.000,7094.000,102.000,32.000,66.000,NA,0.000,0
2026-01-30 21:45:37,872044,-2140.000,3814.000,7321.000,-328.000,-94.000,206.000,NA,0.000,0
2026-01-30 21:45:37,872084,-2074.000,3914.000,7419.000,131.000,-166.000,76.000,NA,0.000,0
2026-01-30 21:45:37,872124,-2037.000,3844.000,7138.000,-59.000,-89.000,138.000,NA,0.000,0
2026-01-30 21:45:37,872164,-2270.000,3884.000,7101.000,279.000,211.000,-20.000,NA,0.000,0
2026-01-30 21:45:37,872204,-2344.000,4317.000,7023.000,626.000,13.000,-140.000,NA,0.000,0
2026-01-30 21:45:37,872244,-2262.000,3776.000,7151.000,-96.000,-81.000,45.000,NA,0.000,0
2026-01-30 21:45:38,872284,-1945.000,3939.000,7272.000,37.000,-265.000,322.000,NA,0.000,0
2026-01-30 21:45:38,872324,-1707.000,4014.000,7245.000,-240.000,-191.000,367.000,NA,0.000,0
2026-01-30 21:45:38,872364,-1566.000,4203.000,7277.000,40.000,-135.000,94.000,NA,0.000,0
2026-01-30 21:45:38,872404,-1947.000,3947.000,7166.000,-16.000,46.000,-22.000,NA,0.000,0
2026-01-30 21:45:38,872444,-2074.000,3949.000,6984.000,-150.000,-137.000,12.000,NA,0.000,0
2026-01-30 21:45:38,872484,-1868.000,4132.000,6999.000,186.000,-318.000,11.000,NA,0.000,0
2026-01-30 21:45:38,872524,-1502.000,3827.000,7406.000,-90.000,-330.000,6.000,NA,0.000,0
2026-01-30 21:45:38,872564,-1829.000,3777.000,7349.000,-87.000,154.000,-77.000,NA,0.000,0
2026-01-30 21:45:38,872604,-1803.000,4338.000,7005.000,609.000,305.000,121.000,NA,0.000,0
2026-01-30 21:45:38,872644,-1806.000,4610.000,6780.000,202.000,208.000,-15.000,NA,0.000,0
2026-01-30 21:45:38,872684,-1677.000,4799.000,6786.000,-59.000,-146.000,-19.000,NA,0.000,0
2026-01-30 21:45:38,872724,-1633.000,4969.000,6841.000,50.000,-337.000,-4.000,NA,0.000,0
2026-01-30 21:45:38,872764,-1519.000,3992.000,6734.000,-24.000,-172.000,243.000,NA,0.000,0
2026-01-30 21:45:38,872804,-1203.000,4589.000,6847.000,356.000,-177.000,170.000,NA,0.000,0
2026-01-30 21:45:38,872844,-1484.000,4144.000,6382.000,566.000,172.000,232.000,NA,0.000,0
2026-01-30 21:45:38,872884,-1537.000,4669.000,6333.000,1002.000,174.000,75.000,NA,0.000,0
2026-01-30 21:45:38,872924,-1310.000,4970.000,6946.000,60.000,-103.000,211.000,NA,0.000,0
2026-01-30 21:45:38,872964,-995.000,5048.000,6968.000,53.000,-303.000,366.000,NA,0.000,0
2026-01-30 21:45:38,873004,-910.000,5026.000,6535.000,-86.000,-291.000,440.000,NA,0.000,0
2026-01-30 21:45:38,873044,-976.000,4980.000,6909.000,-385.000,-141.000,177.000,NA,0.000,0
2026-01-30 21:45:38,873084,-998.000,5122.000,7030.000,-19.000,-53.000,78.000,NA,0.000,0
2026-01-30 21:45:38,873124,-913.000,5158.000,6999.000,30.000,-2.000,165.000,NA,0.000,0
2026-01-30 21:45:38,873164,-787.000,4711.000,6297.000,482.000,200.000,346.000,NA,0.000,0
2026-01-30 21:45:38,873204,-716.000,4602.000,6272.000,1078.000,319.000,276.000,NA,0.000,0
2026-01-30 21:45:38,873244,-437.000,5920.000,6391.000,1094.000,321.000,223.000,NA,0.000,0
2026-01-30 21:45:39,873284,-637.000,5336.000,6137.000,253.000,161.000,33.000,NA,0.000,0
2026-01-30 21:45:39,873324,-835.000,5805.000,6254.000,1251.000,-436.000,-421.000,NA,0.000,0
2026-01-30 21:45:39,873364,-1128.000,5343.000,6060.000,801.000,-157.000,-498.000,NA,0.000,0
2026-01-30 21:45:39,873406,-946.000,5729.000,5673.000,1990.000,38.000,-736.000,NA,0.000,0
2026-01-30 21:45:39,873445,-962.000,5614.000,5654.000,1808.000,-25.000,-827.000,NA,0.000,0
2026-01-30 21:45:39,873484,-1091.000,6011.000,5784.000,1318.000,-55.000,-700.000,NA,0.000,0
2026-01-30 21:45:39,873524,-1113.000,6110.000,5580.000,97.000,-125.000,-237.000,NA,0.000,0
2026-01-30 21:45:39,873564,-888.000,6041.000,6061.000,-503.000,-175.000,35.000,NA,0.000,0
2026-01-30 21:45:39,873606,-1020.000,5965.000,6124.000,399.000,-131.000,-32.000,NA,0.000,0
2026-01-30 21:45:39,873644,-975.000,5604.000,5988.000,511.000,-59.000,-5.000,NA,0.000,0
2026-01-30 21:45:39,873684,-956.000,5891.000,5717.000,1533.000,165.000,-282.000,NA,0.000,0
2026-01-30 21:45:39,873724,-1082.000,6194.000,5696.000,1559.000,221.000,-302.000,NA,0.000,0
2026-01-30 21:45:39,873764,-881.000,6023.000,5482.000,1338.000,317.000,-110.000,NA,0.000,0
2026-01-30 21:45:39,873804,-1063.000,5939.000,5435.000,1807.000,603.000,-296.000,NA,0.000,0
2026-01-30 21:45:39,873844,-1275.000,6345.000,5129.000,2572.000,708.000,-462.000,NA,0.000,0
2026-01-30 21:45:39,873884,-1464.000,7125.000,5150.000,1909.000,750.000,-171.000,NA,0.000,0
2026-01-30 21:45:39,873924,-1235.000,7011.000,5194.000,312.000,672.000,377.000,NA,0.000,0
2026-01-30 21:45:39,873964,-1115.000,6220.000,4989.000,1029.000,389.000,82.000,NA,0.000,0
2026-01-30 21:45:39,874004,-1362.000,6612.000,4898.000,2105.000,604.000,-340.000,NA,0.000,0
2026-01-30 21:45:39,874044,-1626.000,7090.000,4496.000,1850.000,906.000,-243.000,NA,0.000,0
2026-01-30 21:45:39,874084,-1698.000,7067.000,4272.000,1475.000,785.000,-88.000,NA,0.000,0
2026-01-30 21:45:39,874124,-1539.000,7071.000,4191.000,1356.000,442.000,-243.000,NA,0.000,0
2026-01-30 21:45:39,874164,-1523.000,6664.000,3923.000,841.000,235.000,-187.000,NA,0.000,0
2026-01-30 21:45:39,874204,-1535.000,6717.000,3854.000,1555.000,340.000,-352.000,NA,0.000,0
2026-01-30 21:45:39,874244,-1780.000,7697.000,3862.000,1555.000,508.000,-456.000,NA,0.000,0
2026-01-30 21:45:40,874284,-2019.000,7408.000,3536.000,175.000,302.000,-116.000,NA,0.000,0
2026-01-30 21:45:40,874324,-1771.000,7730.000,3880.000,-509.000,-200.000,-10.000,NA,0.000,0
2026-01-30 21:45:40,874364,-1540.000,6661.000,3953.000,303.000,-329.000,64.000,NA,0.000,0
2026-01-30 21:45:40,874404,-1390.000,7011.000,3688.000,1458.000,-9.000,-81.000,NA,0.000,0
2026-01-30 21:45:40,874444,-1321.000,6951.000,3147.000,-243.000,399.000,97.000,NA,0.000,0
2026-01-30 21:45:40,874484,-2087.000,7601.000,3512.000,-876.000,184.000,-298.000,NA,0.000,0
2026-01-30 21:45:40,874524,-1880.000,7205.000,3661.000,-87.000,-42.000,-21.000,NA,0.000,0
2026-01-30 21:45:40,874564,-1652.000,7165.000,3766.000,-188.000,-350.000,346.000,NA,0.000,0
2026-01-30 21:45:40,874604,-1406.000,7541.000,3814.000,-263.000,-609.000,402.000,NA,0.000,0
2026-01-30 21:45:40,874644,-1436.000,7016.000,3970.000,-909.000,-488.000,254.000,NA,0.000,0
2026-01-30 21:45:40,874684,-1533.000,7009.000,3959.000,-192.000,-378.000,213.000,NA,0.000,0
2026-01-30 21:45:40,874724,-1318.000,7513.000,3823.000,-260.000,-331.000,405.000,NA,0.000,0
2026-01-30 21:45:40,874764,-1267.000,7523.000,3926.000,-1240.000,-412.000,292.000,NA,0.000,0
2026-01-30 21:45:40,874804,-1383.000,7096.000,4337.000,-2113.000,-463.000,188.000,NA,0.000,0
2026-01-30 21:45:40,874844,-1307.000,7015.000,4703.000,-2489.000,-570.000,476.000,NA,0.000,0
2026-01-30 21:45:40,874884,-1197.000,6562.000,4941.000,-1551.000,-634.000,346.000,NA,0.000,0
2026-01-30 21:45:40,874924,-1229.000,6666.000,4791.000,-300.000,-453.000,112.000,NA,0.000,0
2026-01-30 21:45:40,874964,-1320.000,6696.000,4798.000,-343.000,-97.000,52.000,NA,0.000,0
2026-01-30 21:45:40,875004,-1394.000,6675.000,4756.000,-456.000,15.000,38.000,NA,0.000,0
2026-01-30 21:45:40,875044,-1465.000,6618.000,4790.000,-17.000,-69.000,-252.000,NA,0.000,0
2026-01-30 21:45:40,875084,-1478.000,6725.000,4815.000,106.000,-130.000,-363.000,NA,0.000,0
2026-01-30 21:45:40,875124,-1492.000,6641.000,4870.000,-240.000,-163.000,-171.000,NA,0.000,0
2026-01-30 21:45:40,875164,-1503.000,6327.000,5041.000,-379.000,-236.000,-157.000,NA,0.000,0
2026-01-30 21:45:40,875204,-1484.000,6539.000,5041.000,-92.000,-185.000,-294.000,NA,0.000,0
2026-01-30 21:45:40,875244,-1632.000,6373.000,5109.000,-277.000,-119.000,-238.000,NA,0.000,0
2026-01-30 21:45:41,875284,-1694.000,6333.000,5048.000,-83.000,-123.000,-86.000,NA,0.000,0
2026-01-30 21:45:41,875324,-1524.000,6326.000,4955.000,45.000,-136.000,-14.000,NA,0.000,0
2026-01-30 21:45:41,875364,-1585.000,6196.000,4947.000,35.000,-56.000,-166.000,NA,0.000,0
2026-01-30 21:45:41,875404,-1758.000,6320.000,5054.000,87.000,-53.000,-217.000,NA,0.000,0
2026-01-30 21:45:41,875444,-1657.000,6456.000,5088.000,23.000,-133.000,-87.000,NA,0.000,0
2026-01-30 21:45:41,875484,-1531.000,6321.000,5123.000,-183.000,-115.000,8.000,NA,0.000,0
2026-01-30 21:45:41,875524,-1622.000,6247.000,5181.000,-105.000,-85.000,-64.000,NA,0.000,0
2026-01-30 21:45:41,875564,-1686.000,6237.000,5224.000,-64.000,-78.000,-96.000,NA,0.000,0
2026-01-30 21:45:41,875606,-1651.000,6238.000,5269.000,-195.000,-97.000,-25.000,NA,0.000,0
2026-01-30 21:45:41,875644,-1690.000,6311.000,5334.000,-222.000,-83.000,-5.000,NA,0.000,0
2026-01-30 21:45:41,875684,-1660.000,6206.000,5326.000,-163.000,-95.000,137.000,NA,0.000,0
2026-01-30 21:45:41,875724,-1512.000,6196.000,5248.000,-6.000,-80.000,152.000,NA,0.000,0
2026-01-30 21:45:41,875764,-1608.000,6295.000,5248.000,47.000,15.000,-28.000,NA,0.000,0
2026-01-30 21:45:41,875804,-1610.000,6053.000,5142.000,2.000,-2.000,-48.000,NA,0.000,0
2026-01-30 21:45:41,875844,-1760.000,6182.000,5244.000,84.000,-73.000,-195.000,NA,0.000,0
2026-01-30 21:45:41,875884,-1752.000,6517.000,5340.000,-121.000,-133.000,-70.000,NA,0.000,0
2026-01-30 21:45:41,875924,-1694.000,6286.000,5360.000,-221.000,-144.000,14.000,NA,0.000,0
2026-01-30 21:45:41,875964,-1671.000,6174.000,5216.000,170.000,-29.000,-28.000,NA,0.000,0
2026-01-30 21:45:41,876004,-1650.000,6318.000,5184.000,145.000,99.000,-157.000,NA,0.000,0
2026-01-30 21:45:41,876044,-1722.000,6374.000,5214.000,88.000,51.000,-328.000,NA,0.000,0
2026-01-30 21:45:41,876084,-1760.000,6191.000,5340.000,-170.000,-61.000,-251.000,NA,0.000,0
2026-01-30 21:45:41,876124,-1735.000,5981.000,5485.000,-345.000,-144.000,-99.000,NA,0.000,0
2026-01-30 21:45:41,876164,-1687.000,6163.000,5446.000,18.000,-119.000,83.000,NA,0.000,0
2026-01-30 21:45:41,876204,-1610.000,6303.000,5305.000,192.000,-42.000,39.000,NA,0.000,0
2026-01-30 21:45:41,876244,-1679.000,6122.000,5146.000,122.000,11.000,-181.000,NA,0.000,0
2026-01-30 21:45:42,876284,-1897.000,6220.000,5163.000,51.000,-24.000,-161.000,NA,0.000,0
2026-01-30 21:45:42,876324,-1787.000,6297.000,5231.000,-237.000,-122.000,19.000,NA,0.000,0
2026-01-30 21:45:42,876364,-1665.000,6140.000,5447.000,-255.000,-143.000,-12.000,NA,0.000,0
2026-01-30 21:45:42,876404,-1695.000,6271.000,5548.000,-204.000,-98.000,42.000,NA,0.000,0
2026-01-30 21:45:42,876444,-1546.000,6298.000,5589.000,-296.000,-129.000,186.000,NA,0.000,0
2026-01-30 21:45:42,876484,-1475.000,5876.000,5497.000,-247.000,-70.000,164.000,NA,0.000,0
2026-01-30 21:45:42,876524,-1674.000,6022.000,5297.000,440.000,31.000,-90.000,NA,0.000,0
2026-01-30 21:45:42,876564,-1733.000,6203.000,5197.000,307.000,108.000,-76.000,NA,0.000,0
2026-01-30 21:45:42,876604,-1799.000,6255.000,5183.000,125.000,16.000,-129.000,NA,0.000,0
2026-01-30 21:45:42,876644,-1779.000,6263.000,5255.000,-56.000,-137.000,-106.000,NA,0.000,0
2026-01-30 21:45:42,876684,-1675.000,5931.000,5447.000,-345.000,-126.000,59.000,NA,0.000,0
2026-01-30 21:45:42,876724,-1601.000,6173.000,5430.000,16.000,-19.000,174.000,NA,0.000,0
2026-01-30 21:45:42,876764,-1508.000,6151.000,5345.000,168.000,71.000,110.000,NA,0.000,0
2026-01-30 21:45:42,876804,-1625.000,6247.000,5428.000,-18.000,25.000,-186.000,NA,0.000,0
2026-01-30 21:45:42,876844,-1798.000,6290.000,5400.000,-8.000,-59.000,-202.000,NA,0.000,0
2026-01-30 21:45:42,876884,-1769.000,6022.000,5302.000,16.000,-27.000,-31.000,NA,0.000,0
2026-01-30 21:45:42,876924,-1664.000,6082.000,5308.000,101.000,9.000,65.000,NA,0.000,0
2026-01-30 21:45:42,876964,-1608.000,6213.000,5412.000,-37.000,-63.000,29.000,NA,0.000,0
2026-01-30 21:45:42,877004,-1647.000,6089.000,5461.000,-152.000,-76.000,-35.000,NA,0.000,0
2026-01-30 21:45:42,877044,-1632.000,5876.000,5490.000,-154.000,-43.000,49.000,NA,0.000,0
2026-01-30 21:45:42,877084,-1574.000,6038.000,5407.000,76.000,6.000,67.000,NA,0.000,0
2026-01-30 21:45:42,877124,-1772.000,6125.000,5257.000,144.000,57.000,-184.000,NA,0.000,0
2026-01-30 21:45:42,877164,-1825.000,6239.000,5279.000,105.000,7.000,-120.000,NA,0.000,0
2026-01-30 21:45:42,877204,-1756.000,6206.000,5368.000,-98.000,-55.000,-76.000,NA,0.000,0
2026-01-30 21:45:42,877244,-1789.000,6059.000,5364.000,-3.000,-30.000,-84.000,NA,0.000,0
2026-01-30 21:45:43,877284,-1783.000,6035.000,5357.000,75.000,52.000,25.000,NA,0.000,0
2026-01-30 21:45:43,877324,-1674.000,6308.000,5345.000,38.000,6.000,70.000,NA,0.000,0
2026-01-30 21:45:43,877364,-1804.000,5938.000,5455.000,-277.000,-80.000,-117.000,NA,0.000,0
2026-01-30 21:45:43,877404,-1871.000,5854.000,5546.000,-220.000,-95.000,-53.000,NA,0.000,0
2026-01-30 21:45:43,877446,-1639.000,6151.000,5533.000,63.000,-26.000,169.000,NA,0.000,0
2026-01-30 21:45:43,877492,-1733.000,6128.000,5425.000,111.000,41.000,-157.000,NA,0.000,0
2026-01-30 21:45:43,877524,-1850.000,6161.000,5430.000,28.000,-3.000,-157.000,NA,0.000,0
2026-01-30 21:45:43,877564,-1774.000,6114.000,5456.000,-98.000,-76.000,-24.000,NA,0.000,0
2026-01-30 21:45:43,877606,-1749.000,6113.000,5419.000,8.000,1.000,-22.000,NA,0.000,0
2026-01-30 21:45:43,877644,-1749.000,6106.000,5341.000,121.000,35.000,12.000,NA,0.000,0
2026-01-30 21:45:43,877684,-1658.000,6113.000,5323.000,12.000,-1.000,83.000,NA,0.000,0
2026-01-30 21:45:43,877724,-1757.000,6189.000,5392.000,-64.000,-59.000,-79.000,NA,0.000,0
2026-01-30 21:45:43,877764,-1782.000,6052.000,5481.000,-119.000,-50.000,-45.000,NA,0.000,0
2026-01-30 21:45:43,877804,-1707.000,6024.000,5472.000,0.000,-25.000,55.000,NA,0.000,0
2026-01-30 21:45:43,877844,-1637.000,6132.000,5387.000,112.000,22.000,90.000,NA,0.000,0
2026-01-30 21:45:43,877884,-1689.000,6107.000,5312.000,98.000,47.000,-50.000,NA,0.000,0
2026-01-30 21:45:43,877924,-1718.000,6207.000,5393.000,-16.000,-38.000,-47.000,NA,0.000,0
2026-01-30 21:45:43,877964,-1729.000,6036.000,5447.000,-182.000,-73.000,-39.000,NA,0.000,0
2026-01-30 21:45:43,878004,-1759.000,6124.000,5419.000,116.000,-26.000,-81.000,NA,0.000,0
2026-01-30 21:45:43,878044,-1769.000,6156.000,5291.000,177.000,88.000,27.000,NA,0.000,0
2026-01-30 21:45:43,878084,-1760.000,6298.000,5227.000,142.000,10.000,15.000,NA,0.000,0
2026-01-30 21:45:43,878124,-1735.000,6176.000,5267.000,-57.000,-82.000,-29.000,NA,0.000,0
2026-01-30 21:45:43,878164,-1724.000,6090.000,5434.000,-152.000,-68.000,-16.000,NA,0.000,0
2026-01-30 21:45:43,878204,-1703.000,6125.000,5475.000,-53.000,-28.000,55.000,NA,0.000,0
2026-01-30 21:45:43,878244,-1626.000,5980.000,5416.000,-28.000,-3.000,105.000,NA,0.000,0
2026-01-30 21:45:44,878284,-1583.000,6063.000,5408.000,34.000,-19.000,118.000,NA,0.000,0
2026-01-30 21:45:44,878324,-1601.000,6145.000,5451.000,11.000,-20.000,23.000,NA,0.000,0
2026-01-30 21:45:44,878364,-1676.000,6114.000,5378.000,117.000,0.000,-74.000,NA,0.000,0
2026-01-30 21:45:44,878404,-1694.000,6036.000,5324.000,195.000,21.000,-63.000,NA,0.000,0
2026-01-30 21:45:44,878444,-1726.000,6193.000,5303.000,138.000,26.000,-45.000,NA,0.000,0
2026-01-30 21:45:44,878484,-1766.000,6231.000,5309.000,81.000,22.000,-96.000,NA,0.000,0
2026-01-30 21:45:44,878524,-1907.000,6064.000,5335.000,60.000,4.000,-125.000,NA,0.000,0
2026-01-30 21:45:44,878564,-1776.000,6094.000,5329.000,101.000,-34.000,13.000,NA,0.000,0
2026-01-30 21:45:44,878604,-1702.000,6235.000,5314.000,100.000,45.000,25.000,NA,0.000,0
2026-01-30 21:45:44,878644,-1755.000,6014.000,5315.000,26.000,-13.000,35.000,NA,0.000,0
2026-01-30 21:45:44,878684,-1702.000,6006.000,5379.000,-118.000,-61.000,117.000,NA,0.000,0
2026-01-30 21:45:44,878724,-1636.000,6227.000,5462.000,-53.000,-61.000,141.000,NA,0.000,0
2026-01-30 21:45:44,878764,-1543.000,6326.000,5418.000,56.000,6.000,62.000,NA,0.000,0
2026-01-30 21:45:44,878804,-1757.000,6110.000,5362.000,41.000,46.000,-170.000,NA,0.000,0
2026-01-30 21:45:44,878844,-1911.000,6224.000,5295.000,83.000,45.000,-73.000,NA,0.000,0
2026-01-30 21:45:44,878884,-1752.000,6277.000,5264.000,85.000,38.000,83.000,NA,0.000,0
2026-01-30 21:45:44,878924,-1671.000,6257.000,5243.000,50.000,8.000,39.000,NA,0.000,0
2026-01-30 21:45:44,878964,-1633.000,6189.000,5231.000,19.000,-5.000,85.000,NA,0.000,0
2026-01-30 21:45:44,879004,-1634.000,6248.000,5313.000,-33.000,-5.000,43.000,NA,0.000,0
2026-01-30 21:45:44,879044,-1675.000,6259.000,5319.000,29.000,-11.000,-10.000,NA,0.000,0
2026-01-30 21:45:44,879084,-1580.000,6165.000,5296.000,-27.000,-15.000,71.000,NA,0.000,0
2026-01-30 21:45:44,879124,-1596.000,6165.000,5253.000,39.000,39.000,35.000,NA,0.000,0
2026-01-30 21:45:44,879164,-1639.000,6385.000,5267.000,84.000,57.000,-5.000,NA,0.000,0
2026-01-30 21:45:44,879204,-1572.000,6291.000,5280.000,-28.000,4.000,26.000,NA,0.000,0
2026-01-30 21:45:44,879244,-1598.000,6168.000,5243.000,-22.000,12.000,-3.000,NA,0.000,0
2026-01-30 21:45:45,879284,-1622.000,6300.000,5173.000,92.000,66.000,24.000,NA,0.000,0
2026-01-30 21:45:45,879324,-1634.000,6315.000,5148.000,56.000,51.000,-22.000,NA,0.000,0
2026-01-30 21:45:45,879364,-1695.000,6291.000,5151.000,49.000,4.000,-67.000,NA,0.000,0
2026-01-30 21:45:45,879404,-1570.000,6239.000,5259.000,-90.000,-12.000,101.000,NA,0.000,0
2026-01-30 21:45:45,879446,-1500.000,6421.000,5228.000,14.000,42.000,108.000,NA,0.000,0
2026-01-30 21:45:45,879485,-1487.000,6402.000,5208.000,-11.000,56.000,79.000,NA,0.000,0
2026-01-30 21:45:45,879524,-1496.000,6304.000,5217.000,-93.000,-17.000,78.000,NA,0.000,0
2026-01-30 21:45:45,879564,-1497.000,6250.000,5314.000,-186.000,-41.000,102.000,NA,0.000,0
2026-01-30 21:45:45,879606,-1483.000,6190.000,5293.000,-52.000,-8.000,81.000,NA,0.000,0
2026-01-30 21:45:45,879644,-1434.000,6341.000,5246.000,92.000,59.000,65.000,NA,0.000,0
2026-01-30 21:45:45,879684,-1486.000,6346.000,5153.000,83.000,77.000,4.000,NA,0.000,0
2026-01-30 21:45:45,879724,-1518.000,6319.000,5123.000,31.000,66.000,-33.000,NA,0.000,0
2026-01-30 21:45:45,879764,-1671.000,6353.000,5167.000,18.000,70.000,-124.000,NA,0.000,0
2026-01-30 21:45:45,879804,-1646.000,6333.000,5206.000,10.000,68.000,-11.000,NA,0.000,0
2026-01-30 21:45:45,879844,-1493.000,6344.000,5204.000,-12.000,46.000,94.000,NA,0.000,0
2026-01-30 21:45:45,879884,-1502.000,6339.000,5160.000,22.000,44.000,63.000,NA,0.000,0
2026-01-30 21:45:45,879924,-1554.000,6316.000,5174.000,-37.000,32.000,28.000,NA,0.000,0
2026-01-30 21:45:45,879964,-1576.000,6306.000,5180.000,-66.000,23.000,9.000,NA,0.000,0
2026-01-30 21:45:45,880004,-1572.000,6412.000,5216.000,-1.000,-10.000,8.000,NA,0.000,0
2026-01-30 21:45:45,880044,-1576.000,6362.000,5219.000,-45.000,47.000,48.000,NA,0.000,0
2026-01-30 21:45:45,880084,-1515.000,6377.000,5196.000,85.000,70.000,130.000,NA,0.000,0
2026-01-30 21:45:45,880124,-1478.000,6376.000,5124.000,29.000,72.000,97.000,NA,0.000,0
2026-01-30 21:45:45,880164,-1435.000,6338.000,5172.000,-111.000,22.000,67.000,NA,0.000,0
2026-01-30 21:45:45,880204,-1441.000,6201.000,5241.000,-142.000,1.000,-15.000,NA,0.000,0
2026-01-30 21:45:45,880244,-1617.000,6247.000,5244.000,39.000,23.000,-2.000,NA,0.000,0
2026-01-30 21:45:46,880284,-1504.000,6204.000,5216.000,15.000,0.000,110.000,NA,0.000,0
2026-01-30 21:45:46,880324,-1404.000,6295.000,5179.000,30.000,42.000,-9.000,NA,0.000,0
2026-01-30 21:45:46,880364,-1614.000,6401.000,5162.000,100.000,112.000,-181.000,NA,0.000,0
2026-01-30 21:45:46,880404,-1700.000,6330.000,5132.000,60.000,101.000,-111.000,NA,0.000,0
2026-01-30 21:45:46,880444,-1667.000,6369.000,5121.000,24.000,58.000,-45.000,NA,0.000,0
2026-01-30 21:45:46,880484,-1590.000,6417.000,5136.000,30.000,44.000,15.000,NA,0.000,0
2026-01-30 21:45:46,880524,-1561.000,6336.000,5224.000,-55.000,32.000,49.000,NA,0.000,0
2026-01-30 21:45:46,880564,-1591.000,6386.000,5176.000,-22.000,-10.000,53.000,NA,0.000,0
2026-01-30 21:45:46,880604,-1545.000,6355.000,5120.000,26.000,34.000,56.000,NA,0.000,0
2026-01-30 21:45:46,880644,-1590.000,6451.000,5061.000,71.000,52.000,20.000,NA,0.000,0
2026-01-30 21:45:46,880684,-1507.000,6424.000,5081.000,-53.000,2.000,81.000,NA,0.000,0
2026-01-30 21:45:46,880724,-1488.000,6362.000,5151.000,-119.000,-6.000,10.000,NA,0.000,0
2026-01-30 21:45:46,880764,-1515.000,6347.000,5129.000,-28.000,36.000,65.000,NA,0.000,0
2026-01-30 21:45:46,880804,-1429.000,6346.000,5148.000,6.000,30.000,160.000,NA,0.000,0
2026-01-30 21:45:46,880844,-1382.000,6403.000,5128.000,-23.000,0.000,75.000,NA,0.000,0
2026-01-30 21:45:46,880884,-1514.000,6387.000,5137.000,16.000,10.000,-78.000,NA,0.000,0
2026-01-30 21:45:46,880924,-1471.000,6431.000,5091.000,51.000,39.000,25.000,NA,0.000,0
2026-01-30 21:45:46,880964,-1513.000,6466.000,5011.000,95.000,55.000,-39.000,NA,0.000,0
2026-01-30 21:45:46,881004,-1518.000,6531.000,5023.000,234.000,48.000,-35.000,NA,0.000,0
2026-01-30 21:45:46,881044,-1457.000,6535.000,5049.000,13.000,27.000,19.000,NA,0.000,0
2026-01-30 21:45:46,881084,-1448.000,6479.000,5049.000,5.000,22.000,17.000,NA,0.000,0
2026-01-30 21:45:46,881124,-1473.000,6387.000,5042.000,74.000,39.000,19.000,NA,0.000,0
2026-01-30 21:45:46,881164,-1401.000,6518.000,5016.000,126.000,8.000,39.000,NA,0.000,0
2026-01-30 21:45:46,881204,-1478.000,6498.000,5081.000,-43.000,-1.000,13.000,NA,0.000,0
2026-01-30 21:45:46,881244,-1472.000,6424.000,5110.000,-78.000,-46.000,-31.000,NA,0.000,0
2026-01-30 21:45:47,881284,-1472.000,6412.000,5051.000,10.000,35.000,49.000,NA,0.000,0
2026-01-30 21:45:47,881324,-1498.000,6486.000,4973.000,88.000,42.000,-20.000,NA,0.000,0
2026-01-30 21:45:47,881364,-1524.000,6500.000,5022.000,-25.000,12.000,-39.000,NA,0.000,0
2026-01-30 21:45:47,881404,-1495.000,6443.000,5070.000,-69.000,-14.000,6.000,NA,0.000,0
2026-01-30 21:45:47,881444,-1496.000,6434.000,5064.000,33.000,32.000,3.000,NA,0.000,0
2026-01-30 21:45:47,881486,-1535.000,6455.000,5050.000,34.000,38.000,-31.000,NA,0.000,0
2026-01-30 21:45:47,881525,-1522.000,6457.000,5048.000,14.000,-18.000,-10.000,NA,0.000,0
2026-01-30 21:45:47,881564,-1496.000,6424.000,5063.000,-15.000,-19.000,-15.000,NA,0.000,0
2026-01-30 21:45:47,881606,-1551.000,6452.000,5049.000,20.000,16.000,-23.000,NA,0.000,0
2026-01-30 21:45:47,881644,-1561.000,6404.000,5066.000,-5.000,16.000,-18.000,NA,0.000,0
2026-01-30 21:45:47,881684,-1573.000,6419.000,5085.000,-7.000,5.000,-3.000,NA,0.000,0
2026-01-30 21:45:47,881724,-1554.000,6398.000,5118.000,-56.000,-10.000,34.000,NA,0.000,0
2026-01-30 21:45:47,881764,-1527.000,6366.000,5116.000,-71.000,-4.000,12.000,NA,0.000,0
2026-01-30 21:45:47,881804,-1603.000,6365.000,5104.000,62.000,8.000,-34.000,NA,0.000,0
2026-01-30 21:45:47,881844,-1642.000,6403.000,5079.000,33.000,-6.000,-21.000,NA,0.000,0
2026-01-30 21:45:47,881884,-1570.000,6404.000,5097.000,-38.000,-22.000,-8.000,NA,0.000,0
2026-01-30 21:45:47,881924,-1611.000,6370.000,5118.000,-22.000,-3.000,-127.000,NA,0.000,0
2026-01-30 21:45:47,881964,-1735.000,6281.000,5130.000,3.000,46.000,-129.000,NA,0.000,0
2026-01-30 21:45:47,882004,-1777.000,6277.000,5134.000,15.000,15.000,-29.000,NA,0.000,0
2026-01-30 21:45:47,882044,-1711.000,6302.000,5180.000,-11.000,-22.000,29.000,NA,0.000,0
2026-01-30 21:45:47,882084,-1790.000,6285.000,5304.000,-90.000,-58.000,-75.000,NA,0.000,0
2026-01-30 21:45:47,882124,-1952.000,6088.000,5453.000,-226.000,-77.000,-142.000,NA,0.000,0
2026-01-30 21:45:47,882164,-2140.000,5987.000,5561.000,-197.000,-76.000,-136.000,NA,0.000,0
2026-01-30 21:45:47,882204,-2142.000,5874.000,5512.000,-150.000,-35.000,27.000,NA,0.000,0
2026-01-30 21:45:47,882244,-1866.000,5915.000,5361.000,108.000,45.000,214.000,NA,0.000,0
2026-01-30 21:45:48,882284,-1697.000,6203.000,5193.000,250.000,72.000,155.000,NA,0.000,0
2026-01-30 21:45:48,882324,-1709.000,6256.000,5130.000,109.000,65.000,11.000,NA,0.000,0
2026-01-30 21:45:48,882364,-1827.000,6180.000,5174.000,4.000,-6.000,-138.000,NA,0.000,0
2026-01-30 21:45:48,882404,-1947.000,6133.000,5256.000,-20.000,-50.000,-147.000,NA,0.000,0
2026-01-30 21:45:48,882444,-1977.000,6149.000,5362.000,-44.000,-29.000,-120.000,NA,0.000,0
2026-01-30 21:45:48,882484,-1964.000,6124.000,5429.000,-27.000,-7.000,-75.000,NA,0.000,0
2026-01-30 21:45:48,882524,-1955.000,6077.000,5418.000,-25.000,-12.000,-22.000,NA,0.000,0
2026-01-30 21:45:48,882564,-1844.000,6113.000,5337.000,12.000,22.000,116.000,NA,0.000,0
2026-01-30 21:45:48,882604,-1819.000,6149.000,5252.000,72.000,29.000,99.000,NA,0.000,0
2026-01-30 21:45:48,882644,-1834.000,6169.000,5201.000,16.000,-4.000,28.000,NA,0.000,0
2026-01-30 21:45:48,882684,-1855.000,6151.000,5264.000,-87.000,-51.000,-38.000,NA,0.000,0
2026-01-30 21:45:48,882724,-1925.000,6121.000,5350.000,-48.000,-48.000,-108.000,NA,0.000,0
2026-01-30 21:45:48,882764,-1936.000,6079.000,5372.000,7.000,6.000,-57.000,NA,0.000,0
2026-01-30 21:45:48,882804,-1984.000,6115.000,5347.000,97.000,46.000,-27.000,NA,0.000,0
2026-01-30 21:45:48,882844,-1896.000,6083.000,5303.000,-35.000,-5.000,66.000,NA,0.000,0
2026-01-30 21:45:48,882884,-1873.000,6119.000,5275.000,39.000,-9.000,4.000,NA,0.000,0
2026-01-30 21:45:48,882924,-1878.000,6143.000,5285.000,58.000,17.000,-31.000,NA,0.000,0
2026-01-30 21:45:48,882964,-1877.000,6187.000,5281.000,24.000,12.000,-7.000,NA,0.000,0
2026-01-30 21:45:48,883004,-1873.000,6184.000,5315.000,-56.000,-20.000,4.000,NA,0.000,0
2026-01-30 21:45:48,883044,-1903.000,6127.000,5325.000,-56.000,-32.000,-18.000,NA,0.000,0
2026-01-30 21:45:48,883084,-1926.000,6109.000,5331.000,-17.000,-14.000,6.000,NA,0.000,0
2026-01-30 21:45:48,883124,-1908.000,6103.000,5331.000,9.000,-12.000,-13.000,NA,0.000,0
2026-01-30 21:45:48,883164,-1931.000,6157.000,5307.000,20.000,21.000,-13.000,NA,0.000,0
2026-01-30 21:45:48,883204,-1892.000,6078.000,5285.000,-25.000,-27.000,-5.000,NA,0.000,0
2026-01-30 21:45:48,883244,-1947.000,6126.000,5284.000,60.000,17.000,-25.000,NA,0.000,0
2026-01-30 21:45:49,883284,-1917.000,6151.000,5280.000,36.000,6.000,38.000,NA,0.000,0
2026-01-30 21:45:49,883324,-1809.000,6219.000,5304.000,-75.000,-33.000,46.000,NA,0.000,0
2026-01-30 21:45:49,883364,-1861.000,6088.000,5361.000,-66.000,-11.000,-59.000,NA,0.000,0
2026-01-30 21:45:49,883404,-2006.000,6071.000,5325.000,96.000,19.000,-64.000,NA,0.000,0
2026-01-30 21:45:49,883446,-1934.000,6142.000,5288.000,51.000,-22.000,55.000,NA,0.000,0
2026-01-30 21:45:49,883485,-1825.000,6161.000,5323.000,-65.000,-27.000,2.000,NA,0.000,0
2026-01-30 21:45:49,883524,-1920.000,6132.000,5343.000,-19.000,3.000,-106.000,NA,0.000,0
2026-01-30 21:45:49,883564,-1941.000,6036.000,5280.000,34.000,29.000,27.000,NA,0.000,0
2026-01-30 21:45:49,883604,-1919.000,6195.000,5275.000,-13.000,-10.000,-4.000,NA,0.000,0
2026-01-30 21:45:49,883644,-1894.000,6184.000,5327.000,-58.000,-50.000,-9.000,NA,0.000,0
2026-01-30 21:45:49,883684,-1901.000,6076.000,5369.000,-74.000,-28.000,-4.000,NA,0.000,0
2026-01-30 21:45:49,883724,-1942.000,6113.000,5292.000,37.000,-2.000,7.000,NA,0.000,0
2026-01-30 21:45:49,883764,-1902.000,6152.000,5276.000,-22.000,-19.000,36.000,NA,0.000,0
2026-01-30 21:45:49,883804,-1946.000,6142.000,5300.000,-58.000,-40.000,9.000,NA,0.000,0
2026-01-30 21:45:49,883844,-1859.000,6054.000,5382.000,-132.000,-47.000,55.000,NA,0.000,0
2026-01-30 21:45:49,883884,-1874.000,6097.000,5321.000,22.000,-18.000,-5.000,NA,0.000,0
2026-01-30 21:45:49,883924,-1936.000,6104.000,5353.000,31.000,34.000,3.000,NA,0.000,0
2026-01-30 21:45:49,883964,-1888.000,6110.000,5331.000,-8.000,-49.000,10.000,NA,0.000,0
2026-01-30 21:45:49,884004,-1880.000,6106.000,5311.000,40.000,3.000,-28.000,NA,0.000,0
2026-01-30 21:45:49,884044,-1924.000,6144.000,5282.000,89.000,35.000,-30.000,NA,0.000,0
2026-01-30 21:45:49,884084,-1913.000,6132.000,5292.000,-18.000,-15.000,-9.000,NA,0.000,0
2026-01-30 21:45:49,884124,-1933.000,6080.000,5330.000,-25.000,-20.000,-37.000,NA,0.000,0
2026-01-30 21:45:49,884164,-1951.000,6159.000,5356.000,24.000,-13.000,11.000,NA,0.000,0
2026-01-30 21:45:49,884204,-1890.000,6102.000,5360.000,-106.000,-38.000,67.000,NA,0.000,0
2026-01-30 21:45:49,884244,-1971.000,6007.000,5406.000,-98.000,-58.000,-61.000,NA,0.000,0
2026-01-30 21:45:50,884284,-2071.000,5929.000,5431.000,-26.000,-23.000,-71.000,NA,0.000,0
2026-01-30 21:45:50,884324,-2068.000,5903.000,5430.000,17.000,0.000,61.000,NA,0.000,0
2026-01-30 21:45:50,884364,-2038.000,5980.000,5433.000,32.000,-19.000,21.000,NA,0.000,0
2026-01-30 21:45:50,884404,-2125.000,5804.000,5520.000,-86.000,-16.000,-37.000,NA,0.000,0
2026-01-30 21:45:50,884444,-2246.000,5750.000,5593.000,-75.000,-42.000,-61.000,NA,0.000,0
2026-01-30 21:45:50,884484,-2266.000,5457.000,5698.000,-196.000,-56.000,17.000,NA,0.000,0
2026-01-30 21:45:50,884524,-2363.000,5598.000,5837.000,-133.000,-70.000,40.000,NA,0.000,0
2026-01-30 21:45:50,884564,-2637.000,5576.000,5897.000,-113.000,22.000,-146.000,NA,0.000,0
2026-01-30 21:45:50,884604,-2679.000,5349.000,5865.000,-72.000,94.000,-161.000,NA,0.000,0
2026-01-30 21:45:50,884644,-2587.000,5447.000,5808.000,177.000,82.000,5.000,NA,0.000,0
2026-01-30 21:45:50,884684,-2520.000,5722.000,5788.000,234.000,105.000,34.000,NA,0.000,0
2026-01-30 21:45:50,884724,-2472.000,5634.000,5751.000,189.000,119.000,-22.000,NA,0.000,0
2026-01-30 21:45:50,884764,-2612.000,5474.000,5786.000,3.000,39.000,-48.000,NA,0.000,0
2026-01-30 21:45:50,884804,-2608.000,5484.000,5815.000,-49.000,-2.000,63.000,NA,0.000,0
2026-01-30 21:45:50,884844,-2444.000,5596.000,5818.000,22.000,11.000,161.000,NA,0.000,0
2026-01-30 21:45:50,884884,-2398.000,5623.000,5801.000,16.000,50.000,133.000,NA,0.000,0
2026-01-30 21:45:50,884924,-2425.000,5643.000,5807.000,-45.000,54.000,90.000,NA,0.000,0
2026-01-30 21:45:50,884964,-2488.000,5564.000,5805.000,-23.000,73.000,72.000,NA,0.000,0
2026-01-30 21:45:50,885004,-2456.000,5544.000,5816.000,-73.000,82.000,150.000,NA,0.000,0
2026-01-30 21:45:50,885044,-2373.000,5580.000,5806.000,-52.000,83.000,191.000,NA,0.000,0
2026-01-30 21:45:50,885084,-2349.000,5577.000,5824.000,-21.000,151.000,198.000,NA,0.000,0
2026-01-30 21:45:50,885124,-2428.000,5582.000,5849.000,-99.000,133.000,127.000,NA,0.000,0
2026-01-30 21:45:50,885164,-2410.000,5456.000,5849.000,-63.000,172.000,186.000,NA,0.000,0
2026-01-30 21:45:50,885204,-2403.000,5604.000,5781.000,169.000,225.000,201.000,NA,0.000,0
2026-01-30 21:45:50,885244,-2329.000,5651.000,5787.000,15.000,215.000,118.000,NA,0.000,0
2026-01-30 21:45:51,885284,-2425.000,5590.000,5804.000,-92.000,184.000,14.000,NA,0.000,0
2026-01-30 21:45:51,885324,-2481.000,5477.000,5817.000,-101.000,209.000,118.000,NA,0.000,0
2026-01-30 21:45:51,885364,-2385.000,5569.000,5789.000,-7.000,230.000,263.000,NA,0.000,0
2026-01-30 21:45:51,885404,-2375.000,5622.000,5755.000,-63.000,223.000,186.000,NA,0.000,0
2026-01-30 21:45:51,885447,-2431.000,5518.000,5811.000,-86.000,251.000,145.000,NA,0.000,0
2026-01-30 21:45:51,885484,-2433.000,5540.000,5814.000,-59.000,254.000,190.000,NA,0.000,0
2026-01-30 21:45:51,885524,-2378.000,5496.000,5815.000,-128.000,260.000,302.000,NA,0.000,0
2026-01-30 21:45:51,885564,-2275.000,5620.000,5849.000,-134.000,256.000,378.000,NA,0.000,0
2026-01-30 21:45:51,885607,-2152.000,5691.000,5866.000,-95.000,314.000,330.000,NA,0.000,0
2026-01-30 21:45:51,885645,-2178.000,5747.000,5845.000,-26.000,339.000,328.000,NA,0.000,0
2026-01-30 21:45:51,885684,-2200.000,5671.000,5833.000,-140.000,333.000,317.000,NA,0.000,0
2026-01-30 21:45:51,885724,-2175.000,5551.000,5875.000,-230.000,313.000,312.000,NA,0.000,0
2026-01-30 21:45:51,885764,-2159.000,5681.000,5844.000,-17.000,357.000,402.000,NA,0.000,0
2026-01-30 21:45:51,885804,-2018.000,5812.000,5787.000,15.000,402.000,439.000,NA,0.000,0
2026-01-30 21:45:51,885844,-1842.000,6022.000,5622.000,118.000,454.000,347.000,NA,0.000,0
2026-01-30 21:45:51,885884,-1764.000,6424.000,5375.000,115.000,504.000,265.000,NA,0.000,0
2026-01-30 21:45:51,885924,-1658.000,6174.000,5109.000,124.000,525.000,325.000,NA,0.000,0
2026-01-30 21:45:51,885964,-1853.000,6086.000,5024.000,173.000,428.000,167.000,NA,0.000,0
2026-01-30 21:45:51,886004,-1917.000,6161.000,5120.000,-172.000,246.000,175.000,NA,0.000,0
2026-01-30 21:45:51,886044,-1712.000,6142.000,5286.000,-416.000,166.000,330.000,NA,0.000,0
2026-01-30 21:45:51,886084,-1590.000,6066.000,5355.000,-399.000,227.000,376.000,NA,0.000,0
2026-01-30 21:45:51,886124,-1596.000,6097.000,5343.000,-210.000,303.000,352.000,NA,0.000,0
2026-01-30 21:45:51,886164,-1686.000,6082.000,5416.000,-294.000,300.000,326.000,NA,0.000,0
2026-01-30 21:45:51,886204,-1726.000,6115.000,5440.000,-398.000,245.000,322.000,NA,0.000,0
2026-01-30 21:45:51,886244,-1812.000,5862.000,5573.000,-406.000,224.000,290.000,NA,0.000,0
2026-01-30 21:45:52,886284,-1841.000,5775.000,5636.000,-336.000,231.000,256.000,NA,0.000,0
2026-01-30 21:45:52,886324,-1921.000,5741.000,5669.000,-214.000,332.000,223.000,NA,0.000,0
2026-01-30 21:45:52,886364,-2017.000,5678.000,5675.000,-166.000,407.000,184.000,NA,0.000,0
2026-01-30 21:45:52,886404,-2094.000,5702.000,5717.000,-207.000,380.000,264.000,NA,0.000,0
2026-01-30 21:45:52,886444,-1945.000,5702.000,5832.000,-323.000,315.000,406.000,NA,0.000,0
2026-01-30 21:45:52,886484,-1914.000,5803.000,5921.000,-299.000,342.000,343.000,NA,0.000,0
2026-01-30 21:45:52,886524,-2000.000,5732.000,5889.000,-173.000,426.000,275.000,NA,0.000,0
2026-01-30 21:45:52,886564,-2071.000,5576.000,5828.000,-101.000,459.000,283.000,NA,0.000,0
2026-01-30 21:45:52,886604,-2054.000,5614.000,5818.000,-100.000,426.000,403.000,NA,0.000,0
2026-01-30 21:45:52,886644,-1991.000,5699.000,5942.000,-235.000,388.000,384.000,NA,0.000,0
2026-01-30 21:45:52,886684,-1996.000,5568.000,6026.000,-259.000,440.000,377.000,NA,0.000,0
2026-01-30 21:45:52,886724,-1985.000,5570.000,5969.000,-122.000,480.000,464.000,NA,0.000,0
2026-01-30 21:45:52,886764,-2002.000,5603.000,5882.000,2.000,550.000,486.000,NA,0.000,0
2026-01-30 21:45:52,886804,-1993.000,5702.000,5893.000,-108.000,499.000,434.000,NA,0.000,0
2026-01-30 21:45:52,886844,-2038.000,5613.000,5953.000,-279.000,458.000,370.000,NA,0.000,0
2026-01-30 21:45:52,886884,-1974.000,5484.000,6021.000,-322.000,462.000,532.000,NA,0.000,0
2026-01-30 21:45:52,886924,-1821.000,5471.000,6025.000,-287.000,499.000,620.000,NA,0.000,0
2026-01-30 21:45:52,886964,-1832.000,5605.000,6075.000,-111.000,609.000,532.000,NA,0.000,0
2026-01-30 21:45:52,887004,-1924.000,5610.000,6078.000,-85.000,615.000,555.000,NA,0.000,0
2026-01-30 21:45:52,887044,-1702.000,5448.000,6099.000,-338.000,553.000,670.000,NA,0.000,0
2026-01-30 21:45:52,887084,-1816.000,5434.000,6028.000,-149.000,647.000,521.000,NA,0.000,0
2026-01-30 21:45:52,887124,-1947.000,5340.000,5936.000,-9.000,718.000,567.000,NA,0.000,0
2026-01-30 21:45:52,887164,-1962.000,5447.000,5899.000,-106.000,687.000,577.000,NA,0.000,0
2026-01-30 21:45:52,887204,-1918.000,5712.000,6019.000,-196.000,618.000,530.000,NA,0.000,0
2026-01-30 21:45:52,887244,-1822.000,5658.000,6066.000,-267.000,644.000,562.000,NA,0.000,0
2026-01-30 21:45:53,887284,-1879.000,5525.000,6064.000,-195.000,684.000,487.000,NA,0.000,0
2026-01-30 21:45:53,887324,-1926.000,5619.000,5958.000,-13.000,719.000,528.000,NA,0.000,0
2026-01-30 21:45:53,887364,-1916.000,5604.000,5909.000,-103.000,706.000,633.000,NA,0.000,0
2026-01-30 21:45:53,887406,-1790.000,5556.000,6041.000,-404.000,575.000,561.000,NA,0.000,0
2026-01-30 21:45:53,887445,-1779.000,5499.000,6095.000,-315.000,602.000,566.000,NA,0.000,0
2026-01-30 21:45:53,887484,-1837.000,5506.000,6086.000,-203.000,677.000,643.000,NA,0.000,0
2026-01-30 21:45:53,887524,-1755.000,5598.000,6065.000,-187.000,643.000,674.000,NA,0.000,0
2026-01-30 21:45:53,887564,-1735.000,5500.000,6025.000,-203.000,623.000,537.000,NA,0.000,0
2026-01-30 21:45:53,887605,-1777.000,5475.000,5930.000,-50.000,691.000,583.000,NA,0.000,0
2026-01-30 21:45:53,887644,-1802.000,5747.000,5913.000,-34.000,694.000,536.000,NA,0.000,0
2026-01-30 21:45:53,887684,-1882.000,5693.000,5939.000,-151.000,607.000,351.000,NA,0.000,0
2026-01-30 21:45:53,887724,-2026.000,5550.000,5993.000,-235.000,576.000,301.000,NA,0.000,0
2026-01-30 21:45:53,887764,-1936.000,5647.000,5959.000,-75.000,595.000,522.000,NA,0.000,0
2026-01-30 21:45:53,887804,-1769.000,5652.000,5854.000,-15.000,665.000,604.000,NA,0.000,0
2026-01-30 21:45:53,887844,-1772.000,5749.000,5808.000,-87.000,627.000,514.000,NA,0.000,0
2026-01-30 21:45:53,887884,-1793.000,5708.000,5858.000,-210.000,578.000,458.000,NA,0.000,0
2026-01-30 21:45:53,887924,-1837.000,5579.000,5847.000,-192.000,549.000,418.000,NA,0.000,0
2026-01-30 21:45:53,887964,-1883.000,5665.000,5913.000,-211.000,552.000,456.000,NA,0.000,0
2026-01-30 21:45:53,888004,-1768.000,5711.000,6012.000,-263.000,503.000,516.000,NA,0.000,0
2026-01-30 21:45:53,888044,-1767.000,5742.000,5942.000,-139.000,534.000,441.000,NA,0.000,0
2026-01-30 21:45:53,888084,-1831.000,5646.000,5787.000,-40.000,588.000,471.000,NA,0.000,0
2026-01-30 21:45:53,888124,-1863.000,5656.000,5636.000,-5.000,600.000,351.000,NA,0.000,0
2026-01-30 21:45:53,888164,-2010.000,5746.000,5672.000,-98.000,546.000,401.000,NA,0.000,0
2026-01-30 21:45:53,888204,-1778.000,5746.000,5854.000,-399.000,387.000,535.000,NA,0.000,0
2026-01-30 21:45:53,888244,-1618.000,5850.000,6036.000,-408.000,433.000,456.000,NA,0.000,0
2026-01-30 21:45:54,888284,-1737.000,5721.000,6008.000,-211.000,523.000,451.000,NA,0.000,0
2026-01-30 21:45:54,888324,-1744.000,5751.000,5830.000,-45.000,506.000,501.000,NA,0.000,0
2026-01-30 21:45:54,888364,-1778.000,5854.000,5730.000,6.000,462.000,370.000,NA,0.000,0
2026-01-30 21:45:54,888404,-1824.000,5785.000,5754.000,-173.000,421.000,302.000,NA,0.000,0
2026-01-30 21:45:54,888444,-1789.000,5652.000,5793.000,-216.000,403.000,357.000,NA,0.000,0
2026-01-30 21:45:54,888484,-1828.000,5642.000,5776.000,-89.000,477.000,363.000,NA,0.000,0
2026-01-30 21:45:54,888524,-1788.000,5774.000,5734.000,-116.000,464.000,434.000,NA,0.000,0
2026-01-30 21:45:54,888564,-1933.000,5680.000,5605.000,-56.000,383.000,171.000,NA,0.000,0
2026-01-30 21:45:54,888604,-2057.000,5755.000,5565.000,65.000,409.000,175.000,NA,0.000,0
2026-01-30 21:45:54,888644,-1989.000,5989.000,5553.000,-4.000,352.000,314.000,NA,0.000,0
2026-01-30 21:45:54,888684,-1783.000,6245.000,5642.000,-150.000,256.000,375.000,NA,0.000,0
2026-01-30 21:45:54,888724,-1561.000,6095.000,5611.000,-90.000,284.000,429.000,NA,0.000,0
2026-01-30 21:45:54,888764,-1568.000,5981.000,5413.000,140.000,439.000,441.000,NA,0.000,0
2026-01-30 21:45:54,888804,-1538.000,6083.000,5391.000,-77.000,382.000,541.000,NA,0.000,0
2026-01-30 21:45:54,888844,-1242.000,6379.000,5617.000,-393.000,133.000,517.000,NA,0.000,0
2026-01-30 21:45:54,888884,-1077.000,6393.000,5948.000,-599.000,165.000,401.000,NA,0.000,0
2026-01-30 21:45:54,888924,-1289.000,5576.000,5543.000,-149.000,331.000,324.000,NA,0.000,0
2026-01-30 21:45:54,888964,-1333.000,5965.000,5443.000,368.000,494.000,473.000,NA,0.000,0
2026-01-30 21:45:54,889004,-1163.000,6711.000,5356.000,187.000,390.000,306.000,NA,0.000,0
2026-01-30 21:45:54,889044,-1219.000,6972.000,5328.000,-2.000,240.000,-79.000,NA,0.000,0
2026-01-30 21:45:54,889084,-1552.000,6160.000,5188.000,-165.000,277.000,-342.000,NA,0.000,0
2026-01-30 21:45:54,889124,-1655.000,6236.000,4864.000,369.000,408.000,-5.000,NA,0.000,0
2026-01-30 21:45:54,889164,-1599.000,6643.000,4707.000,378.000,417.000,258.000,NA,0.000,0
2026-01-30 21:45:54,889204,-1510.000,6518.000,4768.000,-83.000,241.000,110.000,NA,0.000,0
2026-01-30 21:45:54,889244,-1376.000,6307.000,5013.000,-493.000,21.000,153.000,NA,0.000,0
2026-01-30 21:45:55,889284,-1288.000,6260.000,5279.000,-489.000,6.000,296.000,NA,0.000,0
2026-01-30 21:45:55,889324,-1179.000,6532.000,5300.000,-67.000,177.000,425.000,NA,0.000,0
2026-01-30 21:45:55,889364,-1174.000,6361.000,5302.000,-175.000,179.000,302.000,NA,0.000,0
2026-01-30 21:45:55,889406,-1268.000,6342.000,5307.000,-145.000,109.000,165.000,NA,0.000,0
2026-01-30 21:45:55,889445,-1261.000,6175.000,5291.000,-169.000,108.000,234.000,NA,0.000,0
2026-01-30 21:45:55,889484,-1275.000,6248.000,5225.000,-53.000,129.000,179.000,NA,0.000,0
2026-01-30 21:45:55,889524,-1411.000,6368.000,5161.000,61.000,183.000,26.000,NA,0.000,0
2026-01-30 21:45:55,889564,-1555.000,6381.000,5042.000,112.000,222.000,-68.000,NA,0.000,0
2026-01-30 21:45:55,889606,-1617.000,6283.000,5102.000,-74.000,178.000,-26.000,NA,0.000,0
2026-01-30 21:45:55,889644,-1591.000,6205.000,5105.000,-133.000,77.000,86.000,NA,0.000,0
2026-01-30 21:45:55,889684,-1527.000,6231.000,5313.000,-124.000,110.000,165.000,NA,0.000,0
2026-01-30 21:45:55,889724,-1585.000,6305.000,5536.000,-299.000,59.000,92.000,NA,0.000,0
2026-01-30 21:45:55,889764,-1713.000,6172.000,5631.000,-214.000,-3.000,34.000,NA,0.000,0
2026-01-30 21:45:55,889804,-1740.000,5938.000,5639.000,-170.000,48.000,56.000,NA,0.000,0
2026-01-30 21:45:55,889844,-1753.000,6129.000,5621.000,64.000,99.000,75.000,NA,0.000,0
2026-01-30 21:45:55,889884,-1589.000,6426.000,5585.000,161.000,129.000,186.000,NA,0.000,0
2026-01-30 21:45:55,889924,-1503.000,6238.000,5555.000,86.000,112.000,153.000,NA,0.000,0
2026-01-30 21:45:55,889964,-1709.000,5766.000,5596.000,-137.000,43.000,46.000,NA,0.000,0
2026-01-30 21:45:55,890004,-1844.000,5914.000,5579.000,-24.000,41.000,72.000,NA,0.000,0
2026-01-30 21:45:55,890044,-1638.000,6019.000,5395.000,232.000,191.000,212.000,NA,0.000,0
2026-01-30 21:45:55,890084,-2023.000,5954.000,5167.000,357.000,172.000,-265.000,NA,0.000,0
2026-01-30 21:45:55,890124,-2178.000,5702.000,5250.000,51.000,37.000,-180.000,NA,0.000,0
2026-01-30 21:45:55,890164,-2394.000,5695.000,5513.000,-235.000,-11.000,-176.000,NA,0.000,0
2026-01-30 21:45:55,890204,-2496.000,5724.000,5767.000,-334.000,7.000,-174.000,NA,0.000,0
2026-01-30 21:45:55,890244,-2258.000,5474.000,5865.000,-171.000,64.000,73.000,NA,0.000,0
2026-01-30 21:45:56,890284,-2263.000,5778.000,5833.000,143.000,148.000,173.000,NA,0.000,0
2026-01-30 21:45:56,890324,-2212.000,5934.000,5792.000,78.000,113.000,207.000,NA,0.000,0
2026-01-30 21:45:56,890364,-2288.000,5700.000,5834.000,-125.000,60.000,14.000,NA,0.000,0
2026-01-30 21:45:56,890404,-2490.000,5463.000,5879.000,-226.000,32.000,-7.000,NA,0.000,0
2026-01-30 21:45:56,890444,-2221.000,5637.000,5881.000,-12.000,58.000,323.000,NA,0.000,0
2026-01-30 21:45:56,890484,-2102.000,5682.000,5844.000,86.000,108.000,306.000,NA,0.000,0
2026-01-30 21:45:56,890524,-2166.000,5547.000,5753.000,5.000,79.000,145.000,NA,0.000,0
2026-01-30 21:45:56,890564,-2235.000,5516.000,5718.000,-24.000,97.000,161.000,NA,0.000,0
2026-01-30 21:45:56,890604,-2183.000,5640.000,5757.000,-23.000,105.000,148.000,NA,0.000,0
2026-01-30 21:45:56,890644,-2118.000,5829.000,5781.000,-62.000,91.000,154.000,NA,0.000,0
2026-01-30 21:45:56,890684,-1987.000,5655.000,5880.000,-271.000,75.000,224.000,NA,0.000,0
2026-01-30 21:45:56,890724,-1985.000,5623.000,5928.000,-109.000,67.000,205.000,NA,0.000,0
2026-01-30 21:45:56,890764,-2016.000,5748.000,5916.000,-15.000,117.000,183.000,NA,0.000,0
2026-01-30 21:45:56,890804,-1977.000,5703.000,5896.000,-105.000,169.000,175.000,NA,0.000,0
2026-01-30 21:45:56,890844,-2131.000,5736.000,5816.000,-25.000,200.000,0.000,NA,0.000,0
2026-01-30 21:45:56,890884,-2161.000,5701.000,5818.000,-31.000,223.000,38.000,NA,0.000,0
2026-01-30 21:45:56,890924,-2133.000,5487.000,5876.000,-160.000,152.000,182.000,NA,0.000,0
2026-01-30 21:45:56,890964,-1939.000,5413.000,5879.000,-161.000,129.000,399.000,NA,0.000,0
2026-01-30 21:45:56,891004,-1883.000,5572.000,5919.000,-29.000,225.000,359.000,NA,0.000,0
2026-01-30 21:45:56,891044,-1976.000,5804.000,5885.000,35.000,242.000,234.000,NA,0.000,0
2026-01-30 21:45:56,891084,-2052.000,5660.000,5847.000,-126.000,198.000,144.000,NA,0.000,0
2026-01-30 21:45:56,891124,-2114.000,5588.000,5853.000,-130.000,168.000,74.000,NA,0.000,0
2026-01-30 21:45:56,891164,-2071.000,5596.000,5854.000,49.000,233.000,183.000,NA,0.000,0
2026-01-30 21:45:56,891204,-2048.000,5751.000,5857.000,26.000,249.000,65.000,NA,0.000,0
2026-01-30 21:45:56,891244,-2135.000,5828.000,5844.000,-62.000,259.000,-80.000,NA,0.000,0
2026-01-30 21:45:57,891284,-2287.000,5671.000,5739.000,120.000,298.000,-128.000,NA,0.000,0
2026-01-30 21:45:57,891324,-2237.000,5471.000,5549.000,201.000,310.000,137.000,NA,0.000,0
2026-01-30 21:45:57,891364,-2210.000,5511.000,5535.000,27.000,219.000,280.000,NA,0.000,0
2026-01-30 21:45:57,891404,-2115.000,5745.000,5698.000,-237.000,91.000,302.000,NA,0.000,0
2026-01-30 21:45:57,891444,-1912.000,5542.000,5873.000,-459.000,96.000,323.000,NA,0.000,0
2026-01-30 21:45:57,891484,-1930.000,5351.000,6013.000,-407.000,143.000,206.000,NA,0.000,0
2026-01-30 21:45:57,891524,-1953.000,5524.000,5927.000,-55.000,253.000,305.000,NA,0.000,0
2026-01-30 21:45:57,891564,-1962.000,5603.000,6027.000,-207.000,276.000,329.000,NA,0.000,0
2026-01-30 21:45:57,891606,-1880.000,5510.000,6207.000,-492.000,121.000,444.000,NA,0.000,0
2026-01-30 21:45:57,891644,-1722.000,5448.000,6313.000,-347.000,184.000,578.000,NA,0.000,0
2026-01-30 21:45:57,891684,-1563.000,5577.000,6277.000,-234.000,326.000,611.000,NA,0.000,0
2026-01-30 21:45:57,891724,-1652.000,5591.000,6326.000,-86.000,408.000,509.000,NA,0.000,0
2026-01-30 21:45:57,891764,-1616.000,5493.000,6218.000,-107.000,428.000,555.000,NA,0.000,0
2026-01-30 21:45:57,891804,-1633.000,5487.000,6117.000,-105.000,429.000,493.000,NA,0.000,0
2026-01-30 21:45:57,891844,-1682.000,5505.000,6069.000,-6.000,465.000,398.000,NA,0.000,0
2026-01-30 21:45:57,891884,-1791.000,5557.000,6053.000,-86.000,496.000,287.000,NA,0.000,0
2026-01-30 21:45:57,891924,-1671.000,5518.000,6130.000,-199.000,467.000,350.000,NA,0.000,0
2026-01-30 21:45:57,891964,-1662.000,5391.000,6157.000,-178.000,496.000,410.000,NA,0.000,0
2026-01-30 21:45:57,892004,-1525.000,5507.000,6289.000,-279.000,508.000,624.000,NA,0.000,0
2026-01-30 21:45:57,892044,-1470.000,5537.000,6364.000,-274.000,522.000,584.000,NA,0.000,0
2026-01-30 21:45:57,892084,-1479.000,5239.000,6290.000,-245.000,568.000,635.000,NA,0.000,0
2026-01-30 21:45:57,892124,-1494.000,5243.000,6427.000,-228.000,555.000,647.000,NA,0.000,0
2026-01-30 21:45:57,892164,-1501.000,5336.000,6435.000,-154.000,515.000,599.000,NA,0.000,0
2026-01-30 21:45:57,892204,-1540.000,5383.000,6272.000,34.000,652.000,531.000,NA,0.000,0
2026-01-30 21:45:57,892244,-1573.000,5338.000,6206.000,66.000,648.000,484.000,NA,0.000,0
2026-01-30 21:45:58,892284,-1642.000,5558.000,6299.000,-71.000,547.000,414.000,NA,0.000,0
2026-01-30 21:45:58,892324,-1531.000,5425.000,6316.000,-193.000,543.000,479.000,NA,0.000,0
2026-01-30 21:45:58,892364,-1709.000,5392.000,6210.000,52.000,634.000,195.000,NA,0.000,0
2026-01-30 21:45:58,892404,-1851.000,5312.000,6104.000,141.000,651.000,263.000,NA,0.000,0
2026-01-30 21:45:58,892444,-1916.000,5467.000,5981.000,184.000,610.000,264.000,NA,0.000,0
2026-01-30 21:45:58,892484,-1929.000,5722.000,5917.000,153.000,595.000,174.000,NA,0.000,0
2026-01-30 21:45:58,892524,-1998.000,5458.000,5928.000,69.000,536.000,131.000,NA,0.000,0
2026-01-30 21:45:58,892564,-2126.000,5363.000,5996.000,75.000,449.000,155.000,NA,0.000,0
2026-01-30 21:45:58,892604,-1940.000,5512.000,6028.000,-158.000,441.000,505.000,NA,0.000,0
2026-01-30 21:45:58,892644,-1780.000,5768.000,6118.000,-181.000,381.000,452.000,NA,0.000,0
2026-01-30 21:45:58,892684,-1937.000,5323.000,6003.000,-111.000,408.000,300.000,NA,0.000,0
2026-01-30 21:45:58,892724,-2192.000,5615.000,5866.000,119.000,400.000,190.000,NA,0.000,0
2026-01-30 21:45:58,892764,-2098.000,5517.000,5968.000,-214.000,226.000,297.000,NA,0.000,0
2026-01-30 21:45:58,892804,-2020.000,5404.000,6063.000,-244.000,197.000,387.000,NA,0.000,0
2026-01-30 21:45:58,892844,-1856.000,5556.000,6139.000,-127.000,286.000,549.000,NA,0.000,0
2026-01-30 21:45:58,892884,-1760.000,5511.000,6146.000,-71.000,357.000,558.000,NA,0.000,0
2026-01-30 21:45:58,892924,-1819.000,5386.000,6056.000,-132.000,352.000,451.000,NA,0.000,0
2026-01-30 21:45:58,892964,-1938.000,5409.000,6141.000,-249.000,272.000,289.000,NA,0.000,0
2026-01-30 21:45:58,893004,-1922.000,5412.000,6219.000,-201.000,258.000,298.000,NA,0.000,0
2026-01-30 21:45:58,893044,-1964.000,5428.000,6185.000,-103.000,337.000,229.000,NA,0.000,0
2026-01-30 21:45:58,893084,-1963.000,5194.000,6096.000,-42.000,411.000,341.000,NA,0.000,0
2026-01-30 21:45:58,893124,-1986.000,5620.000,6156.000,-84.000,404.000,303.000,NA,0.000,0
2026-01-30 21:45:58,893164,-1947.000,5281.000,6267.000,-415.000,277.000,341.000,NA,0.000,0
2026-01-30 21:45:58,893204,-1972.000,5045.000,6358.000,-416.000,274.000,361.000,NA,0.000,0
2026-01-30 21:45:58,893244,-1845.000,5149.000,6252.000,-69.000,384.000,497.000,NA,0.000,0
2026-01-30 21:45:59,893284,-1930.000,5317.000,6299.000,30.000,417.000,359.000,NA,0.000,0
2026-01-30 21:45:59,893324,-1931.000,5260.000,6407.000,-345.000,272.000,375.000,NA,0.000,0
2026-01-30 21:45:59,893364,-1886.000,5029.000,6309.000,-273.000,271.000,436.000,NA,0.000,0
2026-01-30 21:45:59,893406,-2142.000,5130.000,6035.000,278.000,482.000,178.000,NA,0.000,0
2026-01-30 21:45:59,893445,-2097.000,5296.000,5914.000,400.000,581.000,358.000,NA,0.000,0
2026-01-30 21:45:59,893484,-2000.000,5499.000,6477.000,-245.000,362.000,428.000,NA,0.000,0
2026-01-30 21:45:59,893524,-1665.000,5331.000,6885.000,-957.000,97.000,537.000,NA,0.000,0
2026-01-30 21:45:59,893564,-1666.000,5077.000,6799.000,-284.000,310.000,513.000,NA,0.000,0
2026-01-30 21:45:59,893606,-1722.000,5077.000,6526.000,285.000,563.000,537.000,NA,0.000,0
2026-01-30 21:45:59,893644,-1818.000,5399.000,6276.000,391.000,566.000,586.000,NA,0.000,0
2026-01-30 21:45:59,893684,-1854.000,5633.000,6348.000,-94.000,371.000,310.000,NA,0.000,0
2026-01-30 21:45:59,893724,-1880.000,5328.000,6436.000,-486.000,239.000,29.000,NA,0.000,0
2026-01-30 21:45:59,893764,-2073.000,4920.000,6566.000,-320.000,335.000,197.000,NA,0.000,0
2026-01-30 21:45:59,893804,-1697.000,5101.000,6305.000,219.000,470.000,741.000,NA,0.000,0
2026-01-30 21:45:59,893844,-1663.000,5055.000,6004.000,377.000,585.000,599.000,NA,0.000,0
2026-01-30 21:45:59,893884,-1957.000,5473.000,6187.000,-335.000,346.000,76.000,NA,0.000,0
2026-01-30 21:45:59,893924,-1886.000,5225.000,6578.000,-644.000,157.000,188.000,NA,0.000,0
2026-01-30 21:45:59,893964,-1910.000,5126.000,6474.000,-146.000,256.000,238.000,NA,0.000,0
2026-01-30 21:45:59,894004,-1816.000,5580.000,6330.000,301.000,525.000,445.000,NA,0.000,0
2026-01-30 21:45:59,894044,-1847.000,5433.000,6414.000,-106.000,424.000,330.000,NA,0.000,0
2026-01-30 21:45:59,894084,-1888.000,5201.000,6469.000,-436.000,163.000,260.000,NA,0.000,0
2026-01-30 21:45:59,894124,-1695.000,5173.000,6591.000,-272.000,277.000,435.000,NA,0.000,0
2026-01-30 21:45:59,894164,-1687.000,5180.000,6533.000,33.000,426.000,314.000,NA,0.000,0
2026-01-30 21:45:59,894204,-1992.000,5200.000,6143.000,346.000,461.000,7.000,NA,0.000,0
2026-01-30 21:45:59,894244,-2220.000,5089.000,5772.000,515.000,498.000,68.000,NA,0.000,0
2026-01-30 21:46:00,894284,-2243.000,5377.000,5995.000,-48.000,272.000,18.000,NA,0.000,0
2026-01-30 21:46:00,894324,-2150.000,5390.000,6225.000,-379.000,78.000,125.000,NA,0.000,0
2026-01-30 21:46:00,894364,-1953.000,5175.000,6242.000,-151.000,206.000,334.000,NA,0.000,0
2026-01-30 21:46:00,894404,-2011.000,5091.000,6051.000,148.000,427.000,359.000,NA,0.000,0
2026-01-30 21:46:00,894444,-2054.000,5667.000,6058.000,102.000,286.000,267.000,NA,0.000,0
2026-01-30 21:46:00,894484,-1968.000,5749.000,6108.000,-172.000,116.000,184.000,NA,0.000,0
2026-01-30 21:46:00,894524,-1780.000,5549.000,6327.000,-460.000,31.000,304.000,NA,0.000,0
2026-01-30 21:46:00,894564,-1775.000,5661.000,6437.000,-376.000,67.000,350.000,NA,0.000,0
2026-01-30 21:46:00,894604,-1562.000,5770.000,6471.000,-209.000,201.000,336.000,NA,0.000,0
2026-01-30 21:46:00,894644,-1657.000,5419.000,6059.000,77.000,399.000,57.000,NA,0.000,0
2026-01-30 21:46:00,894684,-2039.000,5555.000,5888.000,110.000,448.000,-360.000,NA,0.000,0
2026-01-30 21:46:00,894724,-2311.000,5108.000,5775.000,-107.000,408.000,-531.000,NA,0.000,0
2026-01-30 21:46:00,894764,-2423.000,5484.000,6056.000,-195.000,239.000,-198.000,NA,0.000,0
2026-01-30 21:46:00,894804,-2438.000,5341.000,6127.000,-509.000,214.000,-100.000,NA,0.000,0
2026-01-30 21:46:00,894844,-2073.000,4698.000,5586.000,313.000,425.000,124.000,NA,0.000,0
2026-01-30 21:46:00,894884,-2518.000,4882.000,5367.000,989.000,578.000,-65.000,NA,0.000,0
2026-01-30 21:46:00,894924,-2805.000,5662.000,5415.000,-97.000,307.000,-228.000,NA,0.000,0
2026-01-30 21:46:00,894964,-2689.000,6753.000,6312.000,-642.000,-257.000,-80.000,NA,0.000,0
2026-01-30 21:46:00,895004,-2634.000,6081.000,6832.000,-1329.000,-452.000,35.000,NA,0.000,0
2026-01-30 21:46:00,895044,-1727.000,5665.000,6809.000,185.000,-142.000,894.000,NA,0.000,0
2026-01-30 21:46:00,895084,-1725.000,6376.000,6729.000,678.000,193.000,754.000,NA,0.000,0
2026-01-30 21:46:00,895124,-1444.000,5873.000,6019.000,22.000,157.000,769.000,NA,0.000,0
2026-01-30 21:46:00,895164,-1720.000,4292.000,5326.000,386.000,289.000,376.000,NA,0.000,0
2026-01-30 21:46:00,895204,-2051.000,4614.000,4918.000,930.000,387.000,355.000,NA,0.000,0
2026-01-30 21:46:00,895244,-1960.000,6271.000,5098.000,319.000,242.000,123.000,NA,0.000,0
2026-01-30 21:46:01,895284,-1936.000,5978.000,5027.000,-557.000,-31.000,-240.000,NA,0.000,0
2026-01-30 21:46:01,895324,-2492.000,5084.000,5527.000,-1087.000,24.000,-655.000,NA,0.000,0
2026-01-30 21:46:01,895364,-2948.000,5389.000,5877.000,-617.000,227.000,-335.000,NA,0.000,0
2026-01-30 21:46:01,895406,-1873.000,6158.000,6438.000,-707.000,-25.000,889.000,NA,0.000,0
2026-01-30 21:46:01,895445,-1672.000,4530.000,5911.000,-1132.000,-158.000,935.000,NA,0.000,0
2026-01-30 21:46:01,895484,-1804.000,5245.000,6492.000,-195.000,73.000,378.000,NA,0.000,0
2026-01-30 21:46:01,895524,-1576.000,6155.000,7162.000,-978.000,-102.000,353.000,NA,0.000,0
2026-01-30 21:46:01,895564,-1458.000,5734.000,7297.000,-1592.000,-313.000,706.000,NA,0.000,0
2026-01-30 21:46:01,895606,-1456.000,5054.000,7298.000,101.000,-128.000,504.000,NA,0.000,0
2026-01-30 21:46:01,895644,-1376.000,4711.000,6526.000,183.000,184.000,671.000,NA,0.000,0
2026-01-30 21:46:01,895684,-1509.000,5473.000,5852.000,774.000,333.000,484.000,NA,0.000,0
2026-01-30 21:46:01,895724,-1749.000,6064.000,6054.000,363.000,234.000,-134.000,NA,0.000,0
2026-01-30 21:46:01,895764,-2011.000,5624.000,6322.000,-307.000,-3.000,-477.000,NA,0.000,0
2026-01-30 21:46:01,895804,-1877.000,5177.000,5879.000,400.000,183.000,357.000,NA,0.000,0
2026-01-30 21:46:01,895844,-1545.000,5729.000,5861.000,410.000,436.000,438.000,NA,0.000,0
2026-01-30 21:46:01,895884,-1385.000,5989.000,5873.000,0.000,170.000,314.000,NA,0.000,0
2026-01-30 21:46:01,895924,-1300.000,5985.000,6272.000,-793.000,-298.000,32.000,NA,0.000,0
2026-01-30 21:46:01,895964,-1457.000,5235.000,6315.000,-324.000,-185.000,166.000,NA,0.000,0
2026-01-30 21:46:01,896004,-1363.000,5170.000,5622.000,313.000,150.000,511.000,NA,0.000,0
2026-01-30 21:46:01,896044,-1139.000,5843.000,5495.000,346.000,174.000,221.000,NA,0.000,0
2026-01-30 21:46:01,896084,-1248.000,6618.000,5501.000,254.000,-58.000,-263.000,NA,0.000,0
2026-01-30 21:46:01,896124,-1157.000,6183.000,5341.000,-201.000,-280.000,-319.000,NA,0.000,0
2026-01-30 21:46:01,896164,-1335.000,5855.000,5881.000,-340.000,-426.000,204.000,NA,0.000,0
2026-01-30 21:46:01,896204,-884.000,6052.000,5896.000,-332.000,-273.000,370.000,NA,0.000,0
2026-01-30 21:46:01,896244,-1162.000,6221.000,5622.000,39.000,-114.000,32.000,NA,0.000,0
2026-01-30 21:46:02,896284,-1248.000,5403.000,5658.000,-512.000,-141.000,27.000,NA,0.000,0
2026-01-30 21:46:02,896324,-1003.000,5866.000,5635.000,174.000,-188.000,275.000,NA,0.000,0
2026-01-30 21:46:02,896364,-862.000,6080.000,5334.000,288.000,90.000,65.000,NA,0.000,0
2026-01-30 21:46:02,896404,-1146.000,5645.000,5010.000,-49.000,41.000,-40.000,NA,0.000,0
2026-01-30 21:46:02,896444,-1146.000,6661.000,5099.000,-205.000,-609.000,-189.000,NA,0.000,0
2026-01-30 21:46:02,896484,-808.000,6709.000,5855.000,-1266.000,-455.000,-209.000,NA,0.000,0
2026-01-30 21:46:02,896524,-481.000,5995.000,5998.000,-159.000,-17.000,466.000,NA,0.000,0
2026-01-30 21:46:02,896564,-78.000,6136.000,5720.000,-135.000,225.000,421.000,NA,0.000,0
2026-01-30 21:46:02,896604,-22.000,6820.000,5883.000,259.000,410.000,444.000,NA,0.000,0
2026-01-30 21:46:02,896644,193.000,7301.000,6105.000,-70.000,338.000,396.000,NA,0.000,0
2026-01-30 21:46:02,896684,-35.000,5411.000,5204.000,-323.000,484.000,198.000,NA,0.000,0
2026-01-30 21:46:02,896724,-210.000,5985.000,4957.000,501.000,570.000,-83.000,NA,0.000,0
2026-01-30 21:46:02,896764,-567.000,6624.000,4885.000,136.000,746.000,-275.000,NA,0.000,0
2026-01-30 21:46:02,896804,-542.000,6203.000,4562.000,-107.000,444.000,-595.000,NA,0.000,0
2026-01-30 21:46:02,896844,-847.000,6265.000,4673.000,453.000,489.000,-878.000,NA,0.000,0
2026-01-30 21:46:02,896884,-1491.000,6887.000,4759.000,902.000,604.000,-1382.000,NA,0.000,0
2026-01-30 21:46:02,896924,-1616.000,7298.000,5555.000,21.000,308.000,-1118.000,NA,0.000,0
2026-01-30 21:46:02,896964,-1465.000,6894.000,6098.000,-204.000,307.000,-382.000,NA,0.000,0
2026-01-30 21:46:02,897004,-1720.000,5827.000,5236.000,453.000,73.000,77.000,NA,0.000,0
2026-01-30 21:46:02,897044,-1584.000,5826.000,4809.000,1606.000,-65.000,43.000,NA,0.000,0
2026-01-30 21:46:02,897084,-1409.000,7053.000,4505.000,2281.000,-89.000,-181.000,NA,0.000,0
2026-01-30 21:46:02,897124,-385.000,9286.000,4592.000,421.000,-620.000,326.000,NA,0.000,0
2026-01-30 21:46:02,897164,-142.000,6198.000,4182.000,-1511.000,-242.000,168.000,NA,0.000,0
2026-01-30 21:46:02,897204,-922.000,6314.000,4925.000,468.000,147.000,-359.000,NA,0.000,0
2026-01-30 21:46:02,897244,-1375.000,7302.000,4780.000,632.000,203.000,-372.000,NA,0.000,0
2026-01-30 21:46:03,897284,-1254.000,7446.000,4559.000,-139.000,-30.000,-731.000,NA,0.000,0
2026-01-30 21:46:03,897324,-1518.000,6488.000,4584.000,-125.000,-163.000,-503.000,NA,0.000,0
2026-01-30 21:46:03,897364,-1701.000,6761.000,4324.000,391.000,18.000,-507.000,NA,0.000,0
2026-01-30 21:46:03,897406,-2104.000,7028.000,4037.000,592.000,-68.000,-624.000,NA,0.000,0
2026-01-30 21:46:03,897445,-1752.000,6317.000,4087.000,338.000,-70.000,-294.000,NA,0.000,0
2026-01-30 21:46:03,897484,-1500.000,5460.000,3681.000,804.000,264.000,-258.000,NA,0.000,0
2026-01-30 21:46:03,897524,-1900.000,5047.000,2602.000,1611.000,402.000,-374.000,NA,0.000,0
2026-01-30 21:46:03,897564,-2094.000,6903.000,3504.000,2846.000,477.000,-1063.000,NA,0.000,0
2026-01-30 21:46:03,897606,-2005.000,11629.000,5160.000,214.000,-369.000,-964.000,NA,0.000,0
2026-01-30 21:46:03,897644,-2037.000,9342.000,5707.000,-4400.000,-1213.000,406.000,NA,0.000,0
2026-01-30 21:46:03,897684,-2007.000,6073.000,6245.000,-1389.000,-1042.000,831.000,NA,0.000,0
2026-01-30 21:46:03,897724,-1584.000,6715.000,4501.000,2632.000,-588.000,-83.000,NA,0.000,0
2026-01-30 21:46:03,897764,-1039.000,6969.000,3598.000,3511.000,-651.000,-393.000,NA,0.000,0
2026-01-30 21:46:03,897804,-1326.000,6775.000,3077.000,2878.000,-337.000,-704.000,NA,0.000,0
2026-01-30 21:46:03,897844,-2171.000,6897.000,3095.000,1251.000,-58.000,-606.000,NA,0.000,0
2026-01-30 21:46:03,897884,-3027.000,6902.000,3459.000,85.000,59.000,-1006.000,NA,0.000,0
2026-01-30 21:46:03,897924,-3509.000,7343.000,3850.000,391.000,-162.000,-886.000,NA,0.000,0
2026-01-30 21:46:03,897964,-3280.000,6411.000,3771.000,117.000,-229.000,-562.000,NA,0.000,0
2026-01-30 21:46:03,898004,-3003.000,6463.000,3484.000,824.000,-167.000,-303.000,NA,0.000,0
2026-01-30 21:46:03,898044,-2792.000,6825.000,3493.000,1660.000,138.000,-458.000,NA,0.000,0
2026-01-30 21:46:03,898084,-2705.000,7284.000,3609.000,594.000,-7.000,-21.000,NA,0.000,0
2026-01-30 21:46:03,898124,-2759.000,6569.000,3666.000,263.000,-80.000,-38.000,NA,0.000,0
2026-01-30 21:46:03,898164,-2790.000,6926.000,3617.000,1123.000,-72.000,4.000,NA,0.000,0
2026-01-30 21:46:03,898204,-2664.000,7016.000,3157.000,1387.000,-11.000,-91.000,NA,0.000,0
2026-01-30 21:46:03,898244,-2771.000,7619.000,3236.000,1598.000,-134.000,-454.000,NA,0.000,0
2026-01-30 21:46:04,898284,-2974.000,7286.000,3322.000,615.000,-172.000,-454.000,NA,0.000,0
2026-01-30 21:46:04,898324,-3120.000,6964.000,3294.000,867.000,-19.000,-560.000,NA,0.000,0
2026-01-30 21:46:04,898364,-2976.000,6833.000,3100.000,1852.000,217.000,-589.000,NA,0.000,0
2026-01-30 21:46:04,898404,-3080.000,6688.000,2580.000,1627.000,117.000,-466.000,NA,0.000,0
2026-01-30 21:46:04,898444,-3350.000,7786.000,2171.000,1885.000,-707.000,-712.000,NA,0.000,0
2026-01-30 21:46:04,898484,-3772.000,7081.000,2487.000,-904.000,-1492.000,-637.000,NA,0.000,0
2026-01-30 21:46:04,898524,-3657.000,7172.000,2778.000,-124.000,-2061.000,-448.000,NA,0.000,0
2026-01-30 21:46:04,898564,-3369.000,7614.000,2924.000,537.000,-1754.000,-240.000,NA,0.000,0
2026-01-30 21:46:04,898604,-3266.000,7070.000,2869.000,205.000,-1230.000,-324.000,NA,0.000,0
2026-01-30 21:46:04,898644,-3457.000,6481.000,2221.000,365.000,-1291.000,-390.000,NA,0.000,0
2026-01-30 21:46:04,898684,-3181.000,7509.000,2618.000,516.000,-1208.000,-985.000,NA,0.000,0
2026-01-30 21:46:04,898724,-3677.000,6931.000,2719.000,262.000,-759.000,-790.000,NA,0.000,0
2026-01-30 21:46:04,898764,-3949.000,7198.000,2513.000,222.000,-755.000,-453.000,NA,0.000,0
2026-01-30 21:46:04,898804,-3426.000,7601.000,2730.000,405.000,-1079.000,-326.000,NA,0.000,0
2026-01-30 21:46:04,898844,-3138.000,7670.000,3138.000,-262.000,-1141.000,119.000,NA,0.000,0
2026-01-30 21:46:04,898884,-2905.000,7564.000,3092.000,-256.000,-1245.000,-165.000,NA,0.000,0
2026-01-30 21:46:04,898924,-3306.000,6801.000,2934.000,15.000,-1211.000,-516.000,NA,0.000,0
2026-01-30 21:46:04,898964,-3360.000,6741.000,2620.000,217.000,-1127.000,-916.000,NA,0.000,0
2026-01-30 21:46:04,899004,-3611.000,7103.000,2804.000,177.000,-1111.000,-617.000,NA,0.000,0
2026-01-30 21:46:04,899044,-3638.000,7639.000,2958.000,-56.000,-1191.000,-929.000,NA,0.000,0
2026-01-30 21:46:04,899084,-3710.000,7251.000,2734.000,123.000,-1113.000,-890.000,NA,0.000,0
2026-01-30 21:46:04,899124,-3726.000,6875.000,2838.000,643.000,-1106.000,-540.000,NA,0.000,0
2026-01-30 21:46:04,899164,-3479.000,7761.000,2969.000,314.000,-1162.000,-721.000,NA,0.000,0
2026-01-30 21:46:04,899204,-3713.000,6589.000,2989.000,-551.000,-1279.000,-616.000,NA,0.000,0
2026-01-30 21:46:04,899244,-4011.000,6114.000,2902.000,395.000,-1483.000,-668.000,NA,0.000,0
2026-01-30 21:46:05,899284,-3726.000,7353.000,3124.000,412.000,-1371.000,-929.000,NA,0.000,0
2026-01-30 21:46:05,899324,-4044.000,7440.000,3243.000,-792.000,-1435.000,-652.000,NA,0.000,0
2026-01-30 21:46:05,899364,-4011.000,7250.000,3355.000,-832.000,-1556.000,-723.000,NA,0.000,0
2026-01-30 21:46:05,899404,-3806.000,6726.000,3091.000,239.000,-1438.000,-689.000,NA,0.000,0
2026-01-30 21:46:05,899444,-3697.000,6002.000,2896.000,741.000,-1237.000,-75.000,NA,0.000,0
2026-01-30 21:46:05,899484,-3583.000,6846.000,3130.000,1097.000,-1046.000,-331.000,NA,0.000,0
2026-01-30 21:46:05,899524,-3789.000,7484.000,3037.000,99.000,-1068.000,-832.000,NA,0.000,0
2026-01-30 21:46:05,899564,-4013.000,7142.000,3519.000,-236.000,-1474.000,-1327.000,NA,0.000,0
2026-01-30 21:46:05,899607,-3608.000,6488.000,3488.000,10.000,-1487.000,-731.000,NA,0.000,0
2026-01-30 21:46:05,899645,-3846.000,6731.000,3412.000,562.000,-1268.000,-694.000,NA,0.000,0
2026-01-30 21:46:05,899684,-3779.000,6726.000,3226.000,750.000,-990.000,-530.000,NA,0.000,0
2026-01-30 21:46:05,899724,-3790.000,6836.000,3093.000,637.000,-1014.000,-545.000,NA,0.000,0
2026-01-30 21:46:05,899764,-4039.000,6472.000,2859.000,641.000,-1048.000,-766.000,NA,0.000,0
2026-01-30 21:46:05,899804,-3972.000,6482.000,3020.000,622.000,-1095.000,-872.000,NA,0.000,0
2026-01-30 21:46:05,899844,-4045.000,6789.000,3063.000,435.000,-1111.000,-782.000,NA,0.000,0
2026-01-30 21:46:05,899884,-4233.000,6848.000,2867.000,599.000,-1080.000,-579.000,NA,0.000,0
2026-01-30 21:46:05,899924,-4288.000,7264.000,3061.000,471.000,-1058.000,-846.000,NA,0.000,0
2026-01-30 21:46:05,899964,-4128.000,7065.000,3551.000,144.000,-1272.000,-822.000,NA,0.000,0
2026-01-30 21:46:05,900004,-3810.000,6522.000,3542.000,-41.000,-1479.000,-172.000,NA,0.000,0
2026-01-30 21:46:05,900044,-3868.000,6491.000,3115.000,691.000,-1076.000,-148.000,NA,0.000,0
2026-01-30 21:46:05,900084,-3884.000,6721.000,2981.000,782.000,-940.000,-709.000,NA,0.000,0
2026-01-30 21:46:05,900124,-4234.000,7079.000,3075.000,308.000,-1124.000,-730.000,NA,0.000,0
2026-01-30 21:46:05,900164,-4395.000,7045.000,3111.000,-134.000,-1285.000,-712.000,NA,0.000,0
2026-01-30 21:46:05,900204,-3959.000,6571.000,3517.000,30.000,-1219.000,-331.000,NA,0.000,0
2026-01-30 21:46:05,900244,-3754.000,6594.000,3589.000,101.000,-1149.000,-350.000,NA,0.000,0
2026-01-30 21:46:06,900284,-3789.000,6908.000,3558.000,249.000,-1039.000,-493.000,NA,0.000,0
2026-01-30 21:46:06,900324,-3841.000,6792.000,3613.000,385.000,-1082.000,-616.000,NA,0.000,0
2026-01-30 21:46:06,900364,-4029.000,6353.000,3570.000,346.000,-995.000,-600.000,NA,0.000,0
2026-01-30 21:46:06,900404,-3745.000,6749.000,3602.000,362.000,-1055.000,-533.000,NA,0.000,0
2026-01-30 21:46:06,900444,-3935.000,6733.000,3479.000,539.000,-994.000,-497.000,NA,0.000,0
2026-01-30 21:46:06,900484,-3947.000,6834.000,3479.000,452.000,-963.000,-899.000,NA,0.000,0
2026-01-30 21:46:06,900524,-4091.000,6494.000,3227.000,614.000,-876.000,-875.000,NA,0.000,0
2026-01-30 21:46:06,900564,-4006.000,6329.000,3064.000,731.000,-813.000,-726.000,NA,0.000,0
2026-01-30 21:46:06,900604,-4022.000,6510.000,3161.000,351.000,-768.000,-590.000,NA,0.000,0
2026-01-30 21:46:06,900644,-4152.000,6995.000,3303.000,365.000,-882.000,-891.000,NA,0.000,0
2026-01-30 21:46:06,900684,-4114.000,7072.000,3753.000,-52.000,-1093.000,-688.000,NA,0.000,0
2026-01-30 21:46:06,900724,-3924.000,6572.000,3903.000,-344.000,-1201.000,-157.000,NA,0.000,0
2026-01-30 21:46:06,900764,-3855.000,6669.000,3593.000,656.000,-858.000,-513.000,NA,0.000,0
2026-01-30 21:46:06,900804,-4044.000,6555.000,3488.000,705.000,-526.000,-451.000,NA,0.000,0
2026-01-30 21:46:06,900844,-4065.000,6646.000,3291.000,782.000,-746.000,-589.000,NA,0.000,0
2026-01-30 21:46:06,900884,-4048.000,6567.000,3567.000,60.000,-898.000,-779.000,NA,0.000,0
2026-01-30 21:46:06,900924,-4141.000,6594.000,3582.000,163.000,-909.000,-659.000,NA,0.000,0
2026-01-30 21:46:06,900964,-3983.000,6801.000,3610.000,278.000,-824.000,-582.000,NA,0.000,0
2026-01-30 21:46:06,901004,-4092.000,6663.000,3559.000,312.000,-778.000,-673.000,NA,0.000,0
2026-01-30 21:46:06,901044,-4095.000,6547.000,3579.000,169.000,-718.000,-426.000,NA,0.000,0
2026-01-30 21:46:06,901084,-4081.000,6356.000,3671.000,-96.000,-802.000,-365.000,NA,0.000,0
2026-01-30 21:46:06,901124,-3828.000,6615.000,3905.000,50.000,-777.000,-73.000,NA,0.000,0
2026-01-30 21:46:06,901164,-3824.000,6340.000,3932.000,-195.000,-794.000,-131.000,NA,0.000,0
2026-01-30 21:46:06,901204,-3736.000,6425.000,4025.000,-3.000,-660.000,67.000,NA,0.000,0
2026-01-30 21:46:06,901244,-3482.000,6353.000,4098.000,-46.000,-625.000,240.000,NA,0.000,0
2026-01-30 21:46:07,901284,-3446.000,6161.000,4253.000,-61.000,-592.000,165.000,NA,0.000,0
2026-01-30 21:46:07,901324,-3323.000,6639.000,4440.000,-168.000,-648.000,-109.000,NA,0.000,0
2026-01-30 21:46:07,901366,-3309.000,6713.000,4683.000,-440.000,-492.000,-223.000,NA,0.000,0
2026-01-30 21:46:07,901405,-3348.000,6418.000,4418.000,-157.000,-527.000,-411.000,NA,0.000,0
2026-01-30 21:46:07,901444,-3604.000,6077.000,4348.000,-9.000,-360.000,-402.000,NA,0.000,0
2026-01-30 21:46:07,901484,-3465.000,6498.000,4581.000,46.000,-368.000,-95.000,NA,0.000,0
2026-01-30 21:46:07,901524,-3244.000,7105.000,4736.000,-596.000,-586.000,360.000,NA,0.000,0
2026-01-30 21:46:07,901564,-3288.000,6311.000,4647.000,-1222.000,-545.000,-204.000,NA,0.000,0
2026-01-30 21:46:07,901606,-3765.000,6669.000,4968.000,-111.000,-630.000,-462.000,NA,0.000,0
2026-01-30 21:46:07,901644,-3683.000,6943.000,5249.000,-754.000,-773.000,-881.000,NA,0.000,0
2026-01-30 21:46:07,901684,-3717.000,6041.000,5158.000,-1726.000,-967.000,-1261.000,NA,0.000,0
2026-01-30 21:46:07,901724,-3824.000,5949.000,5262.000,-748.000,-1240.000,-1339.000,NA,0.000,0
2026-01-30 21:46:07,901764,-3746.000,6035.000,5419.000,-656.000,-1506.000,-1474.000,NA,0.000,0
2026-01-30 21:46:07,901804,-3768.000,5568.000,5631.000,-1356.000,-1565.000,-1500.000,NA,0.000,0
2026-01-30 21:46:07,901844,-3696.000,4824.000,5599.000,-586.000,-1783.000,-1445.000,NA,0.000,0
2026-01-30 21:46:07,901884,-3268.000,4289.000,5372.000,-337.000,-1997.000,-1196.000,NA,0.000,0
2026-01-30 21:46:07,901924,-2854.000,4039.000,5399.000,-906.000,-1561.000,-458.000,NA,0.000,0
2026-01-30 21:46:07,901964,-2307.000,3605.000,5449.000,667.000,-1333.000,281.000,NA,0.000,0
2026-01-30 21:46:07,902004,-1501.000,4932.000,5169.000,2019.000,-1231.000,665.000,NA,0.000,0
2026-01-30 21:46:07,902044,-951.000,5301.000,5135.000,1093.000,-993.000,1035.000,NA,0.000,0
2026-01-30 21:46:07,902084,-980.000,4579.000,5191.000,1502.000,-386.000,1153.000,NA,0.000,0
2026-01-30 21:46:07,902124,-1290.000,6586.000,5327.000,3249.000,-165.000,983.000,NA,0.000,0
2026-01-30 21:46:07,902164,-2024.000,7383.000,4796.000,2147.000,-20.000,836.000,NA,0.000,0
2026-01-30 21:46:07,902204,-2625.000,7166.000,5054.000,186.000,94.000,453.000,NA,0.000,0
2026-01-30 21:46:07,902244,-2610.000,5802.000,5158.000,-483.000,-130.000,227.000,NA,0.000,0
2026-01-30 21:46:08,902284,-2416.000,6653.000,5897.000,-396.000,-119.000,251.000,NA,0.000,0
2026-01-30 21:46:08,902324,-2608.000,6075.000,5602.000,-381.000,27.000,30.000,NA,0.000,0
2026-01-30 21:46:08,902364,-2580.000,7004.000,5396.000,1416.000,-40.000,310.000,NA,0.000,0
2026-01-30 21:46:08,902404,-2374.000,6400.000,5452.000,-1190.000,-26.000,432.000,NA,0.000,0
2026-01-30 21:46:08,902444,-2330.000,5434.000,5438.000,-313.000,-360.000,85.000,NA,0.000,0
2026-01-30 21:46:08,902484,-1879.000,6461.000,5309.000,1488.000,-908.000,-164.000,NA,0.000,0
2026-01-30 21:46:08,902524,-1715.000,6061.000,5694.000,-138.000,-477.000,-13.000,NA,0.000,0
2026-01-30 21:46:08,902564,-1650.000,5444.000,6063.000,-38.000,-127.000,234.000,NA,0.000,0
2026-01-30 21:46:08,902604,-1446.000,6014.000,5894.000,39.000,-120.000,315.000,NA,0.000,0
2026-01-30 21:46:08,902644,-1503.000,6855.000,5942.000,-2071.000,406.000,867.000,NA,0.000,0
2026-01-30 21:46:08,902684,-2000.000,5169.000,5992.000,-7149.000,307.000,1092.000,NA,0.000,0
2026-01-30 21:46:08,902724,-1973.000,5001.000,6634.000,-4002.000,-636.000,611.000,NA,0.000,0
2026-01-30 21:46:08,902764,-1775.000,5931.000,6582.000,-4095.000,-1407.000,207.000,NA,0.000,0
2026-01-30 21:46:08,902804,-2160.000,3683.000,6506.000,-4546.000,-1755.000,-424.000,NA,0.000,0
2026-01-30 21:46:08,902844,-1727.000,4358.000,6481.000,-1835.000,-2898.000,-295.000,NA,0.000,0
2026-01-30 21:46:08,902884,-1139.000,4158.000,6881.000,-2804.000,-3192.000,-686.000,NA,0.000,0
2026-01-30 21:46:08,902924,-634.000,4353.000,7912.000,-1931.000,-2999.000,-791.000,NA,0.000,0
2026-01-30 21:46:08,902964,-56.000,3778.000,7647.000,-1754.000,-2168.000,-381.000,NA,0.000,0
2026-01-30 21:46:08,903004,-512.000,3122.000,7636.000,-427.000,-1091.000,-232.000,NA,0.000,0
2026-01-30 21:46:08,903044,-407.000,3820.000,7695.000,-7.000,-91.000,181.000,NA,0.000,0
2026-01-30 21:46:08,903084,-763.000,3523.000,7691.000,-267.000,160.000,362.000,NA,0.000,0
2026-01-30 21:46:08,903124,-540.000,3988.000,7466.000,-209.000,-338.000,666.000,NA,0.000,0
2026-01-30 21:46:08,903164,-332.000,3880.000,7662.000,-1639.000,-559.000,750.000,NA,0.000,0
2026-01-30 21:46:08,903204,-83.000,3328.000,8112.000,-1811.000,-785.000,589.000,NA,0.000,0
2026-01-30 21:46:08,903244,16.000,3270.000,7940.000,-1042.000,-690.000,344.000,NA,0.000,0
2026-01-30 21:46:09,903284,-278.000,3272.000,8001.000,-292.000,-259.000,7.000,NA,0.000,0
2026-01-30 21:46:09,903324,-71.000,3467.000,7847.000,206.000,-19.000,-13.000,NA,0.000,0
2026-01-30 21:46:09,903364,-167.000,3302.000,7840.000,80.000,194.000,-67.000,NA,0.000,0
2026-01-30 21:46:09,903405,-482.000,3333.000,7710.000,224.000,227.000,-174.000,NA,0.000,0
2026-01-30 21:46:09,903444,-367.000,3505.000,7466.000,101.000,64.000,-142.000,NA,0.000,0
2026-01-30 21:46:09,903484,-374.000,3512.000,7781.000,-146.000,55.000,-77.000,NA,0.000,0
2026-01-30 21:46:09,903524,-130.000,3518.000,7660.000,-102.000,-60.000,-86.000,NA,0.000,0
2026-01-30 21:46:09,903564,-362.000,3272.000,7743.000,47.000,36.000,-139.000,NA,0.000,0
2026-01-30 21:46:09,903606,-88.000,3603.000,7972.000,-58.000,-60.000,-90.000,NA,0.000,0
2026-01-30 21:46:09,903644,-42.000,3160.000,8039.000,-185.000,6.000,-11.000,NA,0.000,0
2026-01-30 21:46:09,903684,-115.000,3340.000,7906.000,205.000,-79.000,-23.000,NA,0.000,0
2026-01-30 21:46:09,903724,-158.000,3551.000,7861.000,151.000,-23.000,44.000,NA,0.000,0
2026-01-30 21:46:09,903764,24.000,3402.000,7813.000,-23.000,-41.000,90.000,NA,0.000,0
2026-01-30 21:46:09,903804,-68.000,3547.000,8018.000,7.000,-53.000,-15.000,NA,0.000,0
2026-01-30 21:46:09,903844,-211.000,3325.000,7856.000,-51.000,42.000,-104.000,NA,0.000,0
2026-01-30 21:46:09,903884,-285.000,3624.000,7854.000,228.000,77.000,-174.000,NA,0.000,0
2026-01-30 21:46:09,903924,-96.000,3409.000,7424.000,137.000,77.000,-133.000,NA,0.000,0
2026-01-30 21:46:09,903964,-326.000,3680.000,7770.000,415.000,179.000,-275.000,NA,0.000,0
2026-01-30 21:46:09,904004,-374.000,3758.000,7729.000,-13.000,152.000,-255.000,NA,0.000,0
2026-01-30 21:46:09,904044,-425.000,3197.000,7483.000,-163.000,171.000,-270.000,NA,0.000,0
2026-01-30 21:46:09,904084,-505.000,3569.000,7606.000,229.000,164.000,-297.000,NA,0.000,0
2026-01-30 21:46:09,904124,-362.000,3542.000,7366.000,-162.000,158.000,-177.000,NA,0.000,0
2026-01-30 21:46:09,904164,-547.000,3510.000,7727.000,-147.000,231.000,-151.000,NA,0.000,0
2026-01-30 21:46:09,904204,-568.000,3462.000,7656.000,38.000,-2.000,-191.000,NA,0.000,0
2026-01-30 21:46:09,904244,-384.000,3515.000,7623.000,-84.000,-194.000,7.000,NA,0.000,0
2026-01-30 21:46:10,904284,-211.000,3479.000,7718.000,-358.000,-231.000,194.000,NA,0.000,0
2026-01-30 21:46:10,904324,-193.000,3549.000,8015.000,-362.000,-247.000,183.000,NA,0.000,0
2026-01-30 21:46:10,904364,-26.000,3144.000,7618.000,-59.000,-292.000,135.000,NA,0.000,0
2026-01-30 21:46:10,904404,-144.000,3493.000,7776.000,88.000,-132.000,114.000,NA,0.000,0
2026-01-30 21:46:10,904444,-10.000,3832.000,8098.000,-384.000,-88.000,165.000,NA,0.000,0
2026-01-30 21:46:10,904484,155.000,3118.000,7858.000,-624.000,-82.000,96.000,NA,0.000,0
2026-01-30 21:46:10,904524,-246.000,3127.000,7770.000,372.000,-15.000,-173.000,NA,0.000,0
2026-01-30 21:46:10,904564,-218.000,3940.000,7929.000,164.000,35.000,-45.000,NA,0.000,0
2026-01-30 21:46:10,904604,-129.000,3729.000,7999.000,-918.000,46.000,152.000,NA,0.000,0
2026-01-30 21:46:10,904644,-154.000,2938.000,7740.000,-279.000,-23.000,-68.000,NA,0.000,0
2026-01-30 21:46:10,904684,-400.000,3640.000,7753.000,804.000,16.000,-331.000,NA,0.000,0
2026-01-30 21:46:10,904724,-308.000,3705.000,7576.000,79.000,80.000,-162.000,NA,0.000,0
2026-01-30 21:46:10,904764,-279.000,3511.000,7502.000,-105.000,141.000,-57.000,NA,0.000,0
2026-01-30 21:46:10,904804,-625.000,3920.000,7682.000,-50.000,102.000,-149.000,NA,0.000,0
2026-01-30 21:46:10,904844,-483.000,3192.000,7259.000,-251.000,-4.000,-190.000,NA,0.000,0
2026-01-30 21:46:10,904884,-649.000,3493.000,7919.000,275.000,67.000,-312.000,NA,0.000,0
2026-01-30 21:46:10,904924,-152.000,3341.000,7926.000,-363.000,-99.000,-25.000,NA,0.000,0
2026-01-30 21:46:10,904964,-226.000,3283.000,7977.000,-266.000,9.000,144.000,NA,0.000,0
2026-01-30 21:46:10,905004,-345.000,3668.000,7831.000,248.000,-25.000,13.000,NA,0.000,0
2026-01-30 21:46:10,905044,-212.000,3454.000,7755.000,82.000,-47.000,-41.000,NA,0.000,0
2026-01-30 21:46:10,905084,-113.000,3279.000,7606.000,157.000,-62.000,-45.000,NA,0.000,0
2026-01-30 21:46:10,905124,-221.000,3467.000,7684.000,277.000,-121.000,9.000,NA,0.000,0
2026-01-30 21:46:10,905164,-241.000,3464.000,7613.000,-105.000,-115.000,116.000,NA,0.000,0
2026-01-30 21:46:10,905204,-154.000,3621.000,7997.000,-380.000,-137.000,121.000,NA,0.000,0
2026-01-30 21:46:10,905244,-11.000,3056.000,7788.000,-176.000,-39.000,-20.000,NA,0.000,0
2026-01-30 21:46:11,905284,-24.000,3790.000,7944.000,430.000,49.000,-114.000,NA,0.000,0
2026-01-30 21:46:11,905324,-165.000,3536.000,7693.000,116.000,159.000,-51.000,NA,0.000,0
2026-01-30 21:46:11,905364,-373.000,3560.000,7490.000,1.000,33.000,-147.000,NA,0.000,0
2026-01-30 21:46:11,905404,-533.000,3399.000,7541.000,42.000,17.000,-209.000,NA,0.000,0
2026-01-30 21:46:11,905446,-332.000,4035.000,7836.000,-129.000,-84.000,-100.000,NA,0.000,0
2026-01-30 21:46:11,905485,-121.000,3573.000,8108.000,-685.000,-29.000,-16.000,NA,0.000,0
2026-01-30 21:46:11,905524,-167.000,3255.000,7714.000,-113.000,-36.000,-155.000,NA,0.000,0
2026-01-30 21:46:11,905564,-463.000,3349.000,7447.000,754.000,174.000,-232.000,NA,0.000,0
2026-01-30 21:46:11,905606,-434.000,3920.000,7402.000,-46.000,-1.000,69.000,NA,0.000,0
2026-01-30 21:46:11,905644,-460.000,3778.000,7670.000,-462.000,-58.000,108.000,NA,0.000,0
2026-01-30 21:46:11,905684,-85.000,2976.000,7618.000,-540.000,-309.000,14.000,NA,0.000,0
2026-01-30 21:46:11,905724,79.000,3758.000,8048.000,373.000,-162.000,-17.000,NA,0.000,0
2026-01-30 21:46:11,905764,133.000,3291.000,7696.000,-413.000,36.000,249.000,NA,0.000,0
2026-01-30 21:46:11,905804,-5.000,3550.000,7800.000,213.000,64.000,91.000,NA,0.000,0
2026-01-30 21:46:11,905844,-179.000,3712.000,7461.000,97.000,-28.000,-48.000,NA,0.000,0
2026-01-30 21:46:11,905884,-272.000,3508.000,7743.000,-29.000,-68.000,-122.000,NA,0.000,0
2026-01-30 21:46:11,905924,37.000,3719.000,7811.000,-68.000,-191.000,-94.000,NA,0.000,0
2026-01-30 21:46:11,905964,-124.000,3300.000,7749.000,-68.000,13.000,-124.000,NA,0.000,0
2026-01-30 21:46:11,906004,-388.000,3529.000,7664.000,287.000,127.000,-171.000,NA,0.000,0
2026-01-30 21:46:11,906044,-292.000,3760.000,7627.000,34.000,50.000,-16.000,NA,0.000,0
2026-01-30 21:46:11,906084,-413.000,3499.000,7668.000,-104.000,15.000,-121.000,NA,0.000,0
2026-01-30 21:46:11,906124,-412.000,3395.000,7402.000,313.000,-54.000,-160.000,NA,0.000,0
2026-01-30 21:46:11,906164,-201.000,3530.000,7575.000,239.000,-67.000,-40.000,NA,0.000,0
2026-01-30 21:46:11,906204,-69.000,3513.000,7582.000,-299.000,-39.000,139.000,NA,0.000,0
2026-01-30 21:46:11,906244,-230.000,3181.000,7545.000,-146.000,-97.000,135.000,NA,0.000,0
2026-01-30 21:46:12,906284,-114.000,3414.000,7788.000,263.000,-142.000,67.000,NA,0.000,0
2026-01-30 21:46:12,906324,224.000,3547.000,7688.000,-128.000,-205.000,251.000,NA,0.000,0
2026-01-30 21:46:12,906364,294.000,3279.000,7801.000,-208.000,-163.000,276.000,NA,0.000,0
2026-01-30 21:46:12,906404,160.000,3247.000,7433.000,210.000,-118.000,159.000,NA,0.000,0
2026-01-30 21:46:12,906444,-111.000,3739.000,7758.000,-38.000,-60.000,119.000,NA,0.000,0
2026-01-30 21:46:12,906484,205.000,3266.000,7953.000,-347.000,7.000,30.000,NA,0.000,0
2026-01-30 21:46:12,906524,123.000,3454.000,7764.000,375.000,9.000,-158.000,NA,0.000,0
2026-01-30 21:46:12,906564,-61.000,3570.000,7559.000,264.000,80.000,-86.000,NA,0.000,0
2026-01-30 21:46:12,906604,-194.000,3601.000,7841.000,-186.000,128.000,3.000,NA,0.000,0
2026-01-30 21:46:12,906644,-48.000,3564.000,7803.000,-95.000,4.000,-85.000,NA,0.000,0
2026-01-30 21:46:12,906684,-118.000,3504.000,7514.000,267.000,35.000,-150.000,NA,0.000,0
2026-01-30 21:46:12,906724,-323.000,3642.000,7613.000,269.000,127.000,-106.000,NA,0.000,0
2026-01-30 21:46:12,906764,50.000,3577.000,7590.000,-202.000,7.000,38.000,NA,0.000,0
2026-01-30 21:46:12,906804,40.000,3474.000,7652.000,-69.000,10.000,19.000,NA,0.000,0
2026-01-30 21:46:12,906844,-59.000,3737.000,7832.000,42.000,-29.000,19.000,NA,0.000,0
2026-01-30 21:46:12,906884,136.000,3348.000,7726.000,-308.000,-115.000,62.000,NA,0.000,0
2026-01-30 21:46:12,906924,84.000,3156.000,7770.000,22.000,-69.000,35.000,NA,0.000,0
2026-01-30 21:46:12,906964,148.000,3444.000,7844.000,152.000,-64.000,135.000,NA,0.000,0
2026-01-30 21:46:12,907004,270.000,3426.000,7776.000,-313.000,-68.000,300.000,NA,0.000,0
2026-01-30 21:46:12,907044,374.000,3236.000,7828.000,-119.000,-104.000,216.000,NA,0.000,0
2026-01-30 21:46:12,907084,421.000,3231.000,7749.000,355.000,-77.000,76.000,NA,0.000,0
2026-01-30 21:46:12,907124,517.000,3418.000,7714.000,132.000,-51.000,172.000,NA,0.000,0
2026-01-30 21:46:12,907164,478.000,3525.000,7953.000,-302.000,25.000,274.000,NA,0.000,0
2026-01-30 21:46:12,907204,590.000,3177.000,7942.000,-305.000,15.000,178.000,NA,0.000,0
2026-01-30 21:46:12,907244,459.000,3303.000,7637.000,201.000,49.000,-52.000,NA,0.000,0
2026-01-30 21:46:13,907284,179.000,3606.000,8111.000,-129.000,132.000,-17.000,NA,0.000,0
2026-01-30 21:46:13,907324,327.000,3437.000,7724.000,-249.000,122.000,-33.000,NA,0.000,0
2026-01-30 21:46:13,907364,132.000,3581.000,7640.000,241.000,192.000,-220.000,NA,0.000,0
2026-01-30 21:46:13,907404,-86.000,3780.000,7419.000,197.000,291.000,-204.000,NA,0.000,0
2026-01-30 21:46:13,907446,-10.000,3513.000,7331.000,-82.000,238.000,-155.000,NA,0.000,0
2026-01-30 21:46:13,907485,-189.000,3536.000,7600.000,36.000,191.000,-246.000,NA,0.000,0
2026-01-30 21:46:13,907524,-165.000,3685.000,7746.000,-154.000,22.000,-184.000,NA,0.000,0
2026-01-30 21:46:13,907564,-142.000,3477.000,7847.000,-117.000,3.000,-112.000,NA,0.000,0
2026-01-30 21:46:13,907606,-85.000,3565.000,7424.000,165.000,29.000,-14.000,NA,0.000,0
2026-01-30 21:46:13,907644,79.000,3616.000,7170.000,69.000,-59.000,110.000,NA,0.000,0
2026-01-30 21:46:13,907684,-182.000,3588.000,7136.000,58.000,76.000,120.000,NA,0.000,0
2026-01-30 21:46:13,907724,-186.000,3497.000,7191.000,-106.000,-5.000,23.000,NA,0.000,0
2026-01-30 21:46:13,907764,24.000,4038.000,7805.000,-397.000,-172.000,34.000,NA,0.000,0
2026-01-30 21:46:13,907804,181.000,3802.000,8289.000,-860.000,-195.000,70.000,NA,0.000,0
2026-01-30 21:46:13,907844,342.000,2855.000,7792.000,-568.000,-209.000,35.000,NA,0.000,0
2026-01-30 21:46:13,907884,-91.000,3649.000,8024.000,561.000,55.000,-47.000,NA,0.000,0
2026-01-30 21:46:13,907924,75.000,4089.000,7741.000,-184.000,105.000,168.000,NA,0.000,0
2026-01-30 21:46:13,907964,100.000,3519.000,7872.000,-233.000,126.000,92.000,NA,0.000,0
2026-01-30 21:46:13,908004,186.000,3105.000,7512.000,374.000,-120.000,-233.000,NA,0.000,0
2026-01-30 21:46:13,908044,152.000,3928.000,7961.000,401.000,-82.000,-36.000,NA,0.000,0
2026-01-30 21:46:13,908084,407.000,3782.000,7709.000,-705.000,-37.000,356.000,NA,0.000,0
2026-01-30 21:46:13,908124,16.000,2853.000,7235.000,-433.000,-7.000,150.000,NA,0.000,0
2026-01-30 21:46:13,908164,-173.000,3461.000,7353.000,1087.000,82.000,-303.000,NA,0.000,0
2026-01-30 21:46:13,908204,137.000,4100.000,7532.000,218.000,-155.000,-98.000,NA,0.000,0
2026-01-30 21:46:13,908244,96.000,3541.000,7943.000,-921.000,-6.000,168.000,NA,0.000,0
2026-01-30 21:46:14,908284,174.000,2782.000,7313.000,-150.000,-120.000,-8.000,NA,0.000,0
2026-01-30 21:46:14,908324,-156.000,3625.000,7201.000,1081.000,95.000,-195.000,NA,0.000,0
2026-01-30 21:46:14,908364,204.000,3730.000,7210.000,-744.000,-21.000,227.000,NA,0.000,0
2026-01-30 21:46:14,908404,141.000,2952.000,7395.000,-256.000,-89.000,0.000,NA,0.000,0
2026-01-30 21:46:14,908444,-23.000,3831.000,7464.000,578.000,-96.000,-215.000,NA,0.000,0
2026-01-30 21:46:14,908484,162.000,3885.000,7492.000,-352.000,48.000,69.000,NA,0.000,0
2026-01-30 21:46:14,908524,262.000,3670.000,7859.000,-600.000,139.000,46.000,NA,0.000,0
2026-01-30 21:46:14,908564,13.000,3657.000,7630.000,26.000,246.000,-269.000,NA,0.000,0
2026-01-30 21:46:14,908604,-322.000,3694.000,7687.000,219.000,363.000,-299.000,NA,0.000,0
2026-01-30 21:46:14,908644,-355.000,4015.000,8094.000,281.000,356.000,-188.000,NA,0.000,0
2026-01-30 21:46:14,908684,26.000,3436.000,7350.000,-100.000,130.000,57.000,NA,0.000,0
2026-01-30 21:46:14,908724,-343.000,3745.000,7661.000,311.000,230.000,-44.000,NA,0.000,0
2026-01-30 21:46:14,908764,80.000,3514.000,7559.000,64.000,31.000,52.000,NA,0.000,0
2026-01-30 21:46:14,908804,128.000,3386.000,7420.000,229.000,-119.000,61.000,NA,0.000,0
2026-01-30 21:46:14,908844,148.000,3747.000,7573.000,46.000,-204.000,229.000,NA,0.000,0
2026-01-30 21:46:14,908884,329.000,3643.000,7381.000,-251.000,-328.000,394.000,NA,0.000,0
2026-01-30 21:46:14,908924,252.000,3830.000,7804.000,-380.000,-350.000,330.000,NA,0.000,0
2026-01-30 21:46:14,908964,209.000,3480.000,7870.000,-394.000,-372.000,160.000,NA,0.000,0
2026-01-30 21:46:14,909004,340.000,3811.000,8160.000,-183.000,-326.000,15.000,NA,0.000,0
2026-01-30 21:46:14,909044,327.000,3518.000,7963.000,-155.000,-103.000,-40.000,NA,0.000,0
2026-01-30 21:46:14,909084,394.000,3608.000,7514.000,317.000,113.000,-135.000,NA,0.000,0
2026-01-30 21:46:14,909124,31.000,4178.000,7376.000,531.000,321.000,-192.000,NA,0.000,0
2026-01-30 21:46:14,909164,-66.000,3833.000,7513.000,-300.000,333.000,-231.000,NA,0.000,0
2026-01-30 21:46:14,909204,8.000,3506.000,7548.000,-77.000,180.000,-367.000,NA,0.000,0
2026-01-30 21:46:14,909244,-215.000,3703.000,7452.000,91.000,125.000,-349.000,NA,0.000,0
2026-01-30 21:46:15,909284,17.000,3997.000,7631.000,110.000,86.000,-105.000,NA,0.000,0
2026-01-30 21:46:15,909324,463.000,3893.000,7136.000,-263.000,-104.000,143.000,NA,0.000,0
2026-01-30 21:46:15,909364,353.000,4127.000,7355.000,76.000,26.000,111.000,NA,0.000,0
2026-01-30 21:46:15,909404,367.000,3985.000,6867.000,5.000,-29.000,127.000,NA,0.000,0
2026-01-30 21:46:15,909446,227.000,4282.000,7161.000,95.000,-53.000,108.000,NA,0.000,0
2026-01-30 21:46:15,909485,326.000,4087.000,7280.000,-236.000,-278.000,99.000,NA,0.000,0
2026-01-30 21:46:15,909524,253.000,3878.000,7286.000,81.000,-306.000,59.000,NA,0.000,0
2026-01-30 21:46:15,909564,561.000,4266.000,7340.000,-112.000,-419.000,198.000,NA,0.000,0
2026-01-30 21:46:15,909604,941.000,4038.000,7201.000,-302.000,-216.000,261.000,NA,0.000,0
2026-01-30 21:46:15,909644,913.000,3971.000,6966.000,101.000,-41.000,181.000,NA,0.000,0
2026-01-30 21:46:15,909684,885.000,4840.000,7297.000,230.000,-4.000,108.000,NA,0.000,0
2026-01-30 21:46:15,909724,892.000,4432.000,7307.000,-572.000,-90.000,80.000,NA,0.000,0
2026-01-30 21:46:15,909764,633.000,3501.000,7279.000,-27.000,-47.000,-176.000,NA,0.000,0
2026-01-30 21:46:15,909804,247.000,4015.000,7363.000,639.000,-70.000,-210.000,NA,0.000,0
2026-01-30 21:46:15,909844,291.000,3900.000,7521.000,-29.000,-77.000,-10.000,NA,0.000,0
2026-01-30 21:46:15,909884,802.000,3748.000,7307.000,-307.000,-157.000,65.000,NA,0.000,0
2026-01-30 21:46:15,909924,546.000,3706.000,7048.000,531.000,162.000,-104.000,NA,0.000,0
2026-01-30 21:46:15,909964,221.000,4123.000,7270.000,362.000,50.000,-87.000,NA,0.000,0
2026-01-30 21:46:15,910004,353.000,3952.000,7540.000,-362.000,-54.000,36.000,NA,0.000,0
2026-01-30 21:46:15,910044,550.000,3704.000,7394.000,-377.000,-167.000,3.000,NA,0.000,0
2026-01-30 21:46:15,910084,334.000,3519.000,7107.000,520.000,77.000,-157.000,NA,0.000,0
2026-01-30 21:46:15,910124,367.000,4165.000,7045.000,503.000,17.000,-74.000,NA,0.000,0
2026-01-30 21:46:15,910164,377.000,4101.000,7263.000,-377.000,23.000,76.000,NA,0.000,0
2026-01-30 21:46:15,910204,318.000,4052.000,7701.000,-697.000,-14.000,-26.000,NA,0.000,0
2026-01-30 21:46:15,910244,116.000,3508.000,7559.000,-168.000,5.000,-232.000,NA,0.000,0
2026-01-30 21:46:16,910284,299.000,4116.000,7937.000,40.000,33.000,-36.000,NA,0.000,0
2026-01-30 21:46:16,910324,441.000,3935.000,7927.000,-382.000,35.000,136.000,NA,0.000,0
2026-01-30 21:46:16,910364,174.000,3536.000,7337.000,-1.000,-50.000,-29.000,NA,0.000,0
2026-01-30 21:46:16,910404,-100.000,3831.000,7650.000,552.000,48.000,-176.000,NA,0.000,0
2026-01-30 21:46:16,910444,258.000,4027.000,7598.000,-136.000,-100.000,40.000,NA,0.000,0
2026-01-30 21:46:16,910484,379.000,3333.000,7526.000,-371.000,-57.000,75.000,NA,0.000,0
2026-01-30 21:46:16,910524,361.000,3244.000,6980.000,593.000,-30.000,-94.000,NA,0.000,0
2026-01-30 21:46:16,910564,62.000,4255.000,7484.000,442.000,28.000,-12.000,NA,0.000,0
2026-01-30 21:46:16,910604,507.000,4177.000,7686.000,-928.000,-98.000,253.000,NA,0.000,0
2026-01-30 21:46:16,910644,441.000,3086.000,7344.000,-622.000,-160.000,-196.000,NA,0.000,0
2026-01-30 21:46:16,910684,-40.000,3881.000,7415.000,1007.000,109.000,-318.000,NA,0.000,0
2026-01-30 21:46:16,910724,143.000,4295.000,7592.000,-51.000,156.000,35.000,NA,0.000,0
2026-01-30 21:46:16,910764,228.000,3920.000,7641.000,-1013.000,-39.000,161.000,NA,0.000,0
2026-01-30 21:46:16,910804,74.000,3435.000,7626.000,-258.000,-50.000,-173.000,NA,0.000,0
2026-01-30 21:46:16,910844,-32.000,3314.000,7376.000,795.000,49.000,-306.000,NA,0.000,0
2026-01-30 21:46:16,910884,243.000,4295.000,7795.000,186.000,34.000,65.000,NA,0.000,0
2026-01-30 21:46:16,910924,555.000,3709.000,7608.000,-1020.000,-46.000,334.000,NA,0.000,0
2026-01-30 21:46:16,910964,234.000,3223.000,7450.000,12.000,-49.000,9.000,NA,0.000,0
2026-01-30 21:46:16,911004,-43.000,3870.000,7610.000,595.000,-149.000,-168.000,NA,0.000,0
2026-01-30 21:46:16,911044,570.000,3337.000,7630.000,-406.000,-166.000,178.000,NA,0.000,0
2026-01-30 21:46:16,911084,326.000,3379.000,7404.000,200.000,-4.000,-7.000,NA,0.000,0
2026-01-30 21:46:16,911124,156.000,4103.000,7514.000,308.000,-7.000,-50.000,NA,0.000,0
2026-01-30 21:46:16,911164,298.000,3348.000,7367.000,-24.000,41.000,-25.000,NA,0.000,0
2026-01-30 21:46:16,911204,329.000,3925.000,7537.000,153.000,-43.000,-103.000,NA,0.000,0
2026-01-30 21:46:16,911244,295.000,3132.000,6983.000,-18.000,130.000,-63.000,NA,0.000,0
2026-01-30 21:46:17,911284,94.000,4250.000,7773.000,276.000,70.000,-66.000,NA,0.000,0
2026-01-30 21:46:17,911324,305.000,3482.000,7281.000,-609.000,-16.000,57.000,NA,0.000,0
2026-01-30 21:46:17,911364,82.000,3738.000,7769.000,69.000,20.000,-141.000,NA,0.000,0
2026-01-30 21:46:17,911404,137.000,3648.000,7663.000,-50.000,-3.000,-119.000,NA,0.000,0
2026-01-30 21:46:17,911446,142.000,3747.000,7509.000,8.000,55.000,-32.000,NA,0.000,0
2026-01-30 21:46:17,911484,110.000,3917.000,7540.000,132.000,54.000,-46.000,NA,0.000,0
2026-01-30 21:46:17,911524,197.000,4070.000,7769.000,-368.000,-137.000,20.000,NA,0.000,0
2026-01-30 21:46:17,911564,347.000,3399.000,7867.000,-370.000,-111.000,-4.000,NA,0.000,0
2026-01-30 21:46:17,911606,271.000,3815.000,7992.000,121.000,-97.000,-76.000,NA,0.000,0
2026-01-30 21:46:17,911644,291.000,3662.000,7892.000,-34.000,-5.000,69.000,NA,0.000,0
2026-01-30 21:46:17,911684,609.000,3529.000,7632.000,64.000,-112.000,129.000,NA,0.000,0
2026-01-30 21:46:17,911724,167.000,3856.000,7743.000,10.000,-70.000,55.000,NA,0.000,0
2026-01-30 21:46:17,911764,194.000,3814.000,7983.000,-190.000,-9.000,-14.000,NA,0.000,0
2026-01-30 21:46:17,911804,137.000,3391.000,7722.000,400.000,161.000,-248.000,NA,0.000,0
2026-01-30 21:46:17,911844,374.000,3766.000,7332.000,229.000,-54.000,-25.000,NA,0.000,0
2026-01-30 21:46:17,911884,152.000,3793.000,7869.000,-317.000,127.000,119.000,NA,0.000,0
2026-01-30 21:46:17,911924,64.000,3567.000,7596.000,-194.000,39.000,-84.000,NA,0.000,0
2026-01-30 21:46:17,911964,130.000,3747.000,7633.000,356.000,7.000,-231.000,NA,0.000,0
2026-01-30 21:46:17,912004,409.000,3572.000,7484.000,-67.000,10.000,-26.000,NA,0.000,0
2026-01-30 21:46:17,912044,112.000,3568.000,7802.000,1.000,55.000,-22.000,NA,0.000,0
2026-01-30 21:46:17,912084,214.000,3391.000,7217.000,104.000,-41.000,3.000,NA,0.000,0
2026-01-30 21:46:17,912124,75.000,3803.000,7602.000,234.000,-43.000,3.000,NA,0.000,0
2026-01-30 21:46:17,912164,410.000,3150.000,7482.000,-338.000,-111.000,58.000,NA,0.000,0
2026-01-30 21:46:17,912204,179.000,3284.000,7384.000,564.000,-1.000,-155.000,NA,0.000,0
2026-01-30 21:46:17,912244,35.000,3818.000,7278.000,178.000,117.000,25.000,NA,0.000,0
2026-01-30 21:46:18,912284,168.000,3891.000,7581.000,-509.000,-32.000,166.000,NA,0.000,0
2026-01-30 21:46:18,912324,309.000,3282.000,7464.000,-141.000,-106.000,-64.000,NA,0.000,0
2026-01-30 21:46:18,912364,-23.000,3738.000,7491.000,418.000,-68.000,-195.000,NA,0.000,0
2026-01-30 21:46:18,912404,49.000,3697.000,7719.000,-141.000,40.000,42.000,NA,0.000,0
2026-01-30 21:46:18,912444,586.000,3682.000,7557.000,-313.000,-156.000,135.000,NA,0.000,0
2026-01-30 21:46:18,912484,112.000,3372.000,7505.000,185.000,3.000,-73.000,NA,0.000,0
2026-01-30 21:46:18,912524,73.000,3766.000,7463.000,326.000,-46.000,-40.000,NA,0.000,0
2026-01-30 21:46:18,912564,406.000,3679.000,7770.000,-353.000,-166.000,143.000,NA,0.000,0
2026-01-30 21:46:18,912604,318.000,3457.000,7629.000,-48.000,-121.000,18.000,NA,0.000,0
2026-01-30 21:46:18,912644,221.000,3437.000,7562.000,447.000,-15.000,-32.000,NA,0.000,0
2026-01-30 21:46:18,912684,388.000,3817.000,7730.000,8.000,-145.000,146.000,NA,0.000,0
2026-01-30 21:46:18,912724,496.000,3335.000,7550.000,-235.000,-107.000,198.000,NA,0.000,0
2026-01-30 21:46:18,912764,398.000,3712.000,7550.000,227.000,-122.000,2.000,NA,0.000,0
2026-01-30 21:46:18,912804,360.000,3556.000,7486.000,2.000,-40.000,12.000,NA,0.000,0
2026-01-30 21:46:18,912844,494.000,3469.000,7547.000,1.000,-50.000,10.000,NA,0.000,0
2026-01-30 21:46:18,912884,467.000,3644.000,7681.000,-122.000,-23.000,34.000,NA,0.000,0
2026-01-30 21:46:18,912924,311.000,3300.000,7451.000,-43.000,55.000,-3.000,NA,0.000,0
2026-01-30 21:46:18,912964,264.000,3654.000,7740.000,288.000,66.000,7.000,NA,0.000,0
2026-01-30 21:46:18,913004,528.000,3555.000,7322.000,-134.000,-133.000,106.000,NA,0.000,0
2026-01-30 21:46:18,913044,344.000,3494.000,7613.000,-68.000,-98.000,37.000,NA,0.000,0
2026-01-30 21:46:18,913084,405.000,3443.000,7398.000,163.000,10.000,-29.000,NA,0.000,0
2026-01-30 21:46:18,913124,417.000,3664.000,7383.000,228.000,-2.000,-5.000,NA,0.000,0
2026-01-30 21:46:18,913164,445.000,3835.000,7599.000,-210.000,-47.000,107.000,NA,0.000,0
2026-01-30 21:46:18,913204,519.000,3273.000,7513.000,-309.000,-50.000,43.000,NA,0.000,0
2026-01-30 21:46:18,913244,315.000,3639.000,7653.000,270.000,42.000,-93.000,NA,0.000,0
2026-01-30 21:46:19,913284,329.000,3934.000,7718.000,-123.000,55.000,28.000,NA,0.000,0
2026-01-30 21:46:19,913324,442.000,3595.000,7755.000,-133.000,-32.000,-50.000,NA,0.000,0
2026-01-30 21:46:19,913364,394.000,3751.000,7870.000,159.000,-16.000,-112.000,NA,0.000,0
2026-01-30 21:46:19,913404,408.000,3693.000,7766.000,-17.000,11.000,9.000,NA,0.000,0
2026-01-30 21:46:19,913444,429.000,3458.000,7326.000,96.000,30.000,-4.000,NA,0.000,0
2026-01-30 21:46:19,913484,20.000,3999.000,7694.000,177.000,63.000,-74.000,NA,0.000,0
2026-01-30 21:46:19,913524,268.000,3614.000,7589.000,-464.000,-118.000,52.000,NA,0.000,0
2026-01-30 21:46:19,913564,535.000,3354.000,7750.000,243.000,-90.000,-97.000,NA,0.000,0
2026-01-30 21:46:19,913609,189.000,3663.000,7267.000,246.000,63.000,3.000,NA,0.000,0
2026-01-30 21:46:19,913647,409.000,3876.000,7413.000,38.000,-51.000,116.000,NA,0.000,0
2026-01-30 21:46:19,913684,334.000,3640.000,7029.000,-126.000,-97.000,75.000,NA,0.000,0
2026-01-30 21:46:19,913724,28.000,3586.000,7252.000,194.000,4.000,-169.000,NA,0.000,0
2026-01-30 21:46:19,913764,256.000,3768.000,7528.000,-103.000,-2.000,-1.000,NA,0.000,0
2026-01-30 21:46:19,913804,580.000,3863.000,7638.000,-428.000,-89.000,57.000,NA,0.000,0
2026-01-30 21:46:19,913844,301.000,3593.000,7582.000,-172.000,62.000,-92.000,NA,0.000,0
2026-01-30 21:46:19,913884,141.000,3793.000,7627.000,172.000,89.000,-131.000,NA,0.000,0
2026-01-30 21:46:19,913924,333.000,3925.000,7856.000,-235.000,-24.000,2.000,NA,0.000,0
2026-01-30 21:46:19,913964,471.000,3768.000,7919.000,-389.000,-34.000,5.000,NA,0.000,0
2026-01-30 21:46:19,914004,431.000,3595.000,7702.000,1.000,9.000,-78.000,NA,0.000,0
2026-01-30 21:46:19,914044,171.000,3962.000,8024.000,48.000,117.000,-43.000,NA,0.000,0
2026-01-30 21:46:19,914084,413.000,3595.000,8026.000,-123.000,44.000,25.000,NA,0.000,0
2026-01-30 21:46:19,914124,350.000,3669.000,7833.000,-31.000,8.000,-16.000,NA,0.000,0
2026-01-30 21:46:19,914164,420.000,3643.000,7981.000,-26.000,27.000,-18.000,NA,0.000,0
2026-01-30 21:46:19,914204,559.000,3414.000,7541.000,2.000,35.000,-29.000,NA,0.000,0
2026-01-30 21:46:19,914244,143.000,3445.000,7533.000,367.000,115.000,-118.000,NA,0.000,0
2026-01-30 21:46:20,914284,221.000,3887.000,7752.000,-64.000,-42.000,12.000,NA,0.000,0
2026-01-30 21:46:20,914324,361.000,3197.000,7671.000,-280.000,-21.000,44.000,NA,0.000,0
2026-01-30 21:46:20,914364,328.000,3494.000,7310.000,378.000,-29.000,-118.000,NA,0.000,0
2026-01-30 21:46:20,914404,141.000,3360.000,7033.000,382.000,188.000,-58.000,NA,0.000,0
2026-01-30 21:46:20,914444,278.000,3747.000,7299.000,194.000,16.000,57.000,NA,0.000,0
2026-01-30 21:46:20,914484,388.000,3754.000,7599.000,-794.000,-127.000,42.000,NA,0.000,0
2026-01-30 21:46:20,914524,157.000,3230.000,7981.000,-263.000,34.000,-183.000,NA,0.000,0
2026-01-30 21:46:20,914564,295.000,3538.000,7652.000,364.000,-5.000,-243.000,NA,0.000,0
2026-01-30 21:46:20,914604,237.000,3730.000,7613.000,191.000,73.000,33.000,NA,0.000,0
2026-01-30 21:46:20,914644,246.000,3805.000,7643.000,-90.000,-27.000,168.000,NA,0.000,0
2026-01-30 21:46:20,914684,340.000,3286.000,7208.000,25.000,-112.000,15.000,NA,0.000,0
2026-01-30 21:46:20,914724,157.000,3472.000,7383.000,559.000,17.000,-109.000,NA,0.000,0
2026-01-30 21:46:20,914764,370.000,4005.000,7411.000,-247.000,-48.000,107.000,NA,0.000,0
2026-01-30 21:46:20,914804,578.000,3534.000,7806.000,-825.000,-75.000,192.000,NA,0.000,0
2026-01-30 21:46:20,914844,408.000,3626.000,7811.000,-51.000,9.000,-161.000,NA,0.000,0
2026-01-30 21:46:20,914884,361.000,3686.000,7974.000,24.000,137.000,-21.000,NA,0.000,0
2026-01-30 21:46:20,914924,552.000,3711.000,7904.000,-175.000,13.000,75.000,NA,0.000,0
2026-01-30 21:46:20,914964,244.000,3682.000,8121.000,-53.000,83.000,-113.000,NA,0.000,0
2026-01-30 21:46:20,915004,191.000,3762.000,8131.000,75.000,75.000,-113.000,NA,0.000,0
2026-01-30 21:46:20,915044,497.000,3125.000,7544.000,23.000,46.000,-16.000,NA,0.000,0
2026-01-30 21:46:20,915084,424.000,3471.000,7422.000,567.000,155.000,-23.000,NA,0.000,0
2026-01-30 21:46:20,915124,224.000,3864.000,7348.000,77.000,150.000,100.000,NA,0.000,0
2026-01-30 21:46:20,915164,257.000,3612.000,7456.000,-410.000,-65.000,95.000,NA,0.000,0
2026-01-30 21:46:20,915204,293.000,3333.000,7693.000,-41.000,-138.000,-159.000,NA,0.000,0
2026-01-30 21:46:20,915244,444.000,3662.000,7848.000,25.000,1.000,18.000,NA,0.000,0
2026-01-30 21:46:21,915284,533.000,3306.000,7617.000,-70.000,61.000,150.000,NA,0.000,0
2026-01-30 21:46:21,915324,311.000,3514.000,7419.000,182.000,-8.000,23.000,NA,0.000,0
2026-01-30 21:46:21,915364,193.000,3342.000,7410.000,263.000,71.000,-16.000,NA,0.000,0
2026-01-30 21:46:21,915404,315.000,3585.000,7306.000,29.000,-174.000,25.000,NA,0.000,0
2026-01-30 21:46:21,915444,264.000,2991.000,7190.000,98.000,27.000,-37.000,NA,0.000,0
2026-01-30 21:46:21,915484,322.000,3800.000,7225.000,183.000,-91.000,33.000,NA,0.000,0
2026-01-30 21:46:21,915524,304.000,3331.000,7210.000,-300.000,-18.000,121.000,NA,0.000,0
2026-01-30 21:46:21,915564,433.000,3244.000,7153.000,257.000,-9.000,-88.000,NA,0.000,0
2026-01-30 21:46:21,915605,121.000,4096.000,7813.000,320.000,43.000,44.000,NA,0.000,0
2026-01-30 21:46:21,915644,617.000,3360.000,7567.000,-915.000,-177.000,159.000,NA,0.000,0
2026-01-30 21:46:21,915684,204.000,3393.000,7823.000,281.000,8.000,-198.000,NA,0.000,0
2026-01-30 21:46:21,915724,83.000,3716.000,7630.000,450.000,58.000,-130.000,NA,0.000,0
2026-01-30 21:46:21,915764,344.000,3750.000,7793.000,-307.000,-16.000,198.000,NA,0.000,0
2026-01-30 21:46:21,915804,476.000,3450.000,7482.000,-307.000,-111.000,115.000,NA,0.000,0
2026-01-30 21:46:21,915844,169.000,3712.000,7351.000,332.000,72.000,-157.000,NA,0.000,0
2026-01-30 21:46:21,915884,231.000,3856.000,7522.000,-13.000,89.000,-76.000,NA,0.000,0
2026-01-30 21:46:21,915924,306.000,3847.000,8177.000,-423.000,12.000,-37.000,NA,0.000,0
2026-01-30 21:46:21,915964,508.000,3721.000,8241.000,-695.000,-85.000,-12.000,NA,0.000,0
2026-01-30 21:46:21,916004,253.000,3697.000,8088.000,245.000,74.000,-72.000,NA,0.000,0
2026-01-30 21:46:21,916044,205.000,3529.000,7872.000,217.000,147.000,-8.000,NA,0.000,0
2026-01-30 21:46:21,916084,207.000,3868.000,7924.000,63.000,-81.000,19.000,NA,0.000,0
2026-01-30 21:46:21,916124,234.000,2994.000,7379.000,-37.000,-157.000,-34.000,NA,0.000,0
2026-01-30 21:46:21,916164,155.000,3493.000,7352.000,671.000,-118.000,-130.000,NA,0.000,0
2026-01-30 21:46:21,916204,196.000,3035.000,6611.000,408.000,35.000,16.000,NA,0.000,0
2026-01-30 21:46:21,916244,183.000,3385.000,6710.000,504.000,-7.000,61.000,NA,0.000,0
2026-01-30 21:46:22,916284,119.000,3874.000,6910.000,32.000,-161.000,72.000,NA,0.000,0
2026-01-30 21:46:22,916324,216.000,3964.000,7600.000,-860.000,-320.000,46.000,NA,0.000,0
2026-01-30 21:46:22,916364,426.000,2988.000,7864.000,-674.000,-266.000,-196.000,NA,0.000,0
2026-01-30 21:46:22,916404,334.000,3495.000,7395.000,783.000,36.000,-124.000,NA,0.000,0
2026-01-30 21:46:22,916444,263.000,4452.000,7748.000,-214.000,136.000,270.000,NA,0.000,0
2026-01-30 21:46:22,916484,426.000,4011.000,7596.000,-1087.000,-31.000,246.000,NA,0.000,0
2026-01-30 21:46:22,916524,197.000,3536.000,7721.000,-495.000,-86.000,-192.000,NA,0.000,0
2026-01-30 21:46:22,916564,6.000,3460.000,8335.000,525.000,26.000,-453.000,NA,0.000,0
2026-01-30 21:46:22,916604,345.000,3847.000,8360.000,-408.000,-102.000,45.000,NA,0.000,0
2026-01-30 21:46:22,916644,327.000,3450.000,8917.000,-667.000,45.000,308.000,NA,0.000,0
2026-01-30 21:46:22,916684,596.000,3470.000,7083.000,-166.000,-336.000,264.000,NA,0.000,0
2026-01-30 21:46:22,916724,-248.000,1996.000,6195.000,1613.000,264.000,-267.000,NA,0.000,0
2026-01-30 21:46:22,916764,269.000,5806.000,7451.000,1007.000,-342.000,87.000,NA,0.000,0
2026-01-30 21:46:22,916804,1062.000,3884.000,7587.000,-3483.000,-492.000,783.000,NA,0.000,0
2026-01-30 21:46:22,916844,809.000,2713.000,7977.000,-1942.000,-372.000,263.000,NA,0.000,0
2026-01-30 21:46:22,916884,223.000,3072.000,7408.000,1239.000,8.000,-394.000,NA,0.000,0
2026-01-30 21:46:22,916924,643.000,4377.000,7090.000,1561.000,86.000,-71.000,NA,0.000,0
2026-01-30 21:46:22,916964,1108.000,3655.000,7193.000,-11.000,170.000,355.000,NA,0.000,0
2026-01-30 21:46:22,917004,1073.000,3437.000,7386.000,-381.000,-229.000,189.000,NA,0.000,0
2026-01-30 21:46:22,917044,1056.000,4145.000,8086.000,-58.000,-468.000,-43.000,NA,0.000,0
2026-01-30 21:46:22,917084,1263.000,4310.000,8062.000,-1069.000,-419.000,240.000,NA,0.000,0
2026-01-30 21:46:22,917124,1266.000,3868.000,7231.000,-27.000,90.000,-233.000,NA,0.000,0
2026-01-30 21:46:22,917164,775.000,4260.000,6538.000,1069.000,434.000,-344.000,NA,0.000,0
2026-01-30 21:46:22,917204,353.000,4878.000,8012.000,-421.000,190.000,-249.000,NA,0.000,0
2026-01-30 21:46:22,917244,554.000,3892.000,8102.000,-1664.000,-17.000,-153.000,NA,0.000,0
2026-01-30 21:46:23,917284,-352.000,2630.000,7706.000,-48.000,284.000,-471.000,NA,0.000,0
2026-01-30 21:46:23,917324,-186.000,4094.000,7482.000,1521.000,249.000,-435.000,NA,0.000,0
2026-01-30 21:46:23,917364,496.000,3307.000,6431.000,315.000,370.000,72.000,NA,0.000,0
2026-01-30 21:46:23,917404,467.000,3925.000,6704.000,629.000,206.000,149.000,NA,0.000,0
2026-01-30 21:46:23,917444,567.000,4287.000,6684.000,-569.000,-156.000,122.000,NA,0.000,0
2026-01-30 21:46:23,917484,316.000,4396.000,8353.000,-1329.000,-277.000,23.000,NA,0.000,0
2026-01-30 21:46:23,917524,675.000,1771.000,7674.000,-894.000,-325.000,-90.000,NA,0.000,0
2026-01-30 21:46:23,917564,531.000,3558.000,8741.000,1485.000,-142.000,-187.000,NA,0.000,0
2026-01-30 21:46:23,917606,1319.000,4630.000,8447.000,-528.000,-116.000,632.000,NA,0.000,0
2026-01-30 21:46:23,917644,1042.000,2748.000,8292.000,-1727.000,126.000,797.000,NA,0.000,0
2026-01-30 21:46:23,917684,433.000,3365.000,8336.000,578.000,-82.000,-95.000,NA,0.000,0
2026-01-30 21:46:23,917724,-27.000,3739.000,8482.000,587.000,-93.000,-285.000,NA,0.000,0
2026-01-30 21:46:23,917764,819.000,2802.000,7759.000,-92.000,-178.000,102.000,NA,0.000,0
2026-01-30 21:46:23,917804,732.000,2565.000,7013.000,753.000,-27.000,9.000,NA,0.000,0
2026-01-30 21:46:23,917844,596.000,3452.000,6613.000,1401.000,38.000,-67.000,NA,0.000,0
2026-01-30 21:46:23,917884,568.000,3669.000,6928.000,504.000,64.000,80.000,NA,0.000,0
2026-01-30 21:46:23,917924,842.000,4504.000,8506.000,-1390.000,-109.000,68.000,NA,0.000,0
2026-01-30 21:46:23,917964,934.000,2384.000,8213.000,-2374.000,74.000,-81.000,NA,0.000,0
2026-01-30 21:46:23,918004,87.000,1486.000,7585.000,832.000,429.000,-633.000,NA,0.000,0
2026-01-30 21:46:23,918044,-46.000,3736.000,7189.000,2667.000,246.000,-458.000,NA,0.000,0
2026-01-30 21:46:23,918084,518.000,4869.000,7711.000,-1.000,128.000,415.000,NA,0.000,0
2026-01-30 21:46:23,918124,929.000,3076.000,7307.000,-1904.000,-187.000,657.000,NA,0.000,0
2026-01-30 21:46:23,918164,276.000,2561.000,6953.000,-169.000,-357.000,-136.000,NA,0.000,0
2026-01-30 21:46:23,918204,-208.000,3477.000,7619.000,1002.000,57.000,-480.000,NA,0.000,0
2026-01-30 21:46:23,918244,661.000,3852.000,8031.000,-346.000,87.000,1.000,NA,0.000,0
2026-01-30 21:46:24,918284,901.000,3124.000,8557.000,-639.000,59.000,37.000,NA,0.000,0
2026-01-30 21:46:24,918324,75.000,2618.000,7472.000,1055.000,218.000,-392.000,NA,0.000,0
2026-01-30 21:46:24,918364,-172.000,3679.000,7487.000,1985.000,213.000,-399.000,NA,0.000,0
2026-01-30 21:46:24,918404,389.000,4505.000,8064.000,134.000,47.000,145.000,NA,0.000,0
2026-01-30 21:46:24,918444,793.000,2761.000,7109.000,-1558.000,-220.000,450.000,NA,0.000,0
2026-01-30 21:46:24,918484,197.000,3057.000,7365.000,431.000,-58.000,-45.000,NA,0.000,0
2026-01-30 21:46:24,918524,172.000,3740.000,7389.000,297.000,-9.000,-30.000,NA,0.000,0
2026-01-30 21:46:24,918564,450.000,3632.000,8184.000,-534.000,-70.000,182.000,NA,0.000,0
2026-01-30 21:46:24,918604,588.000,3620.000,8616.000,-1090.000,-295.000,192.000,NA,0.000,0
2026-01-30 21:46:24,918644,408.000,2132.000,6807.000,-121.000,-384.000,0.000,NA,0.000,0
2026-01-30 21:46:24,918684,422.000,3278.000,6231.000,2337.000,6.000,-145.000,NA,0.000,0
2026-01-30 21:46:24,918724,322.000,4983.000,7470.000,610.000,193.000,322.000,NA,0.000,0
2026-01-30 21:46:24,918764,1067.000,5035.000,8240.000,-2895.000,-311.000,633.000,NA,0.000,0
2026-01-30 21:46:24,918804,982.000,2270.000,8547.000,-3104.000,-216.000,53.000,NA,0.000,0
2026-01-30 21:46:24,918844,53.000,2026.000,8912.000,871.000,68.000,-873.000,NA,0.000,0
2026-01-30 21:46:24,918884,407.000,3710.000,8135.000,2007.000,54.000,-469.000,NA,0.000,0
2026-01-30 21:46:24,918924,978.000,3881.000,7902.000,0.000,303.000,569.000,NA,0.000,0
2026-01-30 21:46:24,918964,720.000,3009.000,7354.000,-477.000,211.000,522.000,NA,0.000,0
2026-01-30 21:46:24,919004,181.000,3679.000,7419.000,503.000,-92.000,-215.000,NA,0.000,0
2026-01-30 21:46:24,919044,512.000,3153.000,7982.000,-387.000,-252.000,-149.000,NA,0.000,0
2026-01-30 21:46:24,919084,863.000,2467.000,7315.000,23.000,-24.000,-72.000,NA,0.000,0
2026-01-30 21:46:24,919124,401.000,3557.000,7319.000,944.000,307.000,-51.000,NA,0.000,0
2026-01-30 21:46:24,919164,185.000,3826.000,7151.000,35.000,197.000,156.000,NA,0.000,0
2026-01-30 21:46:24,919204,177.000,3449.000,7541.000,-650.000,-173.000,63.000,NA,0.000,0
2026-01-30 21:46:24,919244,346.000,2815.000,7365.000,179.000,-205.000,-278.000,NA,0.000,0
2026-01-30 21:46:25,919284,472.000,3771.000,7645.000,292.000,-229.000,-97.000,NA,0.000,0
2026-01-30 21:46:25,919324,696.000,3641.000,7975.000,-750.000,-2.000,304.000,NA,0.000,0
2026-01-30 21:46:25,919364,577.000,3020.000,7722.000,-513.000,-98.000,194.000,NA,0.000,0
2026-01-30 21:46:25,919404,328.000,3158.000,7349.000,240.000,-170.000,-152.000,NA,0.000,0
2026-01-30 21:46:25,919446,478.000,3583.000,8055.000,139.000,-24.000,-36.000,NA,0.000,0
2026-01-30 21:46:25,919485,720.000,2986.000,7169.000,58.000,-75.000,32.000,NA,0.000,0
2026-01-30 21:46:25,919524,161.000,3760.000,8031.000,33.000,-15.000,-14.000,NA,0.000,0
2026-01-30 21:46:25,919564,661.000,3393.000,7576.000,-424.000,-211.000,57.000,NA,0.000,0
2026-01-30 21:46:25,919606,390.000,2825.000,7681.000,238.000,-30.000,-151.000,NA,0.000,0
2026-01-30 21:46:25,919644,319.000,3401.000,7239.000,833.000,72.000,-173.000,NA,0.000,0
2026-01-30 21:46:25,919684,382.000,3828.000,7237.000,19.000,-14.000,70.000,NA,0.000,0
2026-01-30 21:46:25,919724,388.000,3448.000,7649.000,-399.000,52.000,37.000,NA,0.000,0
2026-01-30 21:46:25,919764,417.000,3985.000,8175.000,-392.000,-172.000,-100.000,NA,0.000,0
2026-01-30 21:46:25,919804,549.000,3203.000,8109.000,143.000,0.000,-106.000,NA,0.000,0
2026-01-30 21:46:25,919844,690.000,3233.000,7343.000,424.000,32.000,-15.000,NA,0.000,0
2026-01-30 21:46:25,919884,291.000,4016.000,8124.000,391.000,118.000,-17.000,NA,0.000,0
2026-01-30 21:46:25,919924,713.000,3540.000,7681.000,-742.000,-284.000,162.000,NA,0.000,0
2026-01-30 21:46:25,919964,193.000,2871.000,7955.000,214.000,-55.000,-169.000,NA,0.000,0
2026-01-30 21:46:25,920004,510.000,3128.000,6977.000,727.000,-95.000,-117.000,NA,0.000,0
2026-01-30 21:46:25,920044,362.000,3597.000,7662.000,350.000,100.000,93.000,NA,0.000,0
2026-01-30 21:46:25,920084,1018.000,3647.000,7215.000,-570.000,-167.000,316.000,NA,0.000,0
2026-01-30 21:46:25,920124,428.000,3163.000,7514.000,-88.000,42.000,-51.000,NA,0.000,0
2026-01-30 21:46:25,920164,486.000,3442.000,7791.000,98.000,-40.000,-210.000,NA,0.000,0
2026-01-30 21:46:25,920204,842.000,3786.000,8208.000,-271.000,-14.000,-19.000,NA,0.000,0
2026-01-30 21:46:25,920244,466.000,2898.000,7638.000,-180.000,200.000,-37.000,NA,0.000,0
2026-01-30 21:46:26,920284,215.000,3788.000,7617.000,527.000,135.000,-203.000,NA,0.000,0
2026-01-30 21:46:26,920324,327.000,3555.000,7524.000,41.000,164.000,-45.000,NA,0.000,0
2026-01-30 21:46:26,920364,458.000,3528.000,7594.000,183.000,21.000,-33.000,NA,0.000,0
2026-01-30 21:46:26,920404,253.000,3390.000,7327.000,173.000,4.000,-40.000,NA,0.000,0
2026-01-30 21:46:26,920444,270.000,3849.000,8115.000,-222.000,-108.000,96.000,NA,0.000,0
2026-01-30 21:46:26,920484,704.000,3201.000,7809.000,-649.000,-132.000,211.000,NA,0.000,0
2026-01-30 21:46:26,920524,534.000,3084.000,7566.000,420.000,-72.000,-6.000,NA,0.000,0
2026-01-30 21:46:26,920564,309.000,3680.000,7045.000,658.000,-27.000,63.000,NA,0.000,0
2026-01-30 21:46:26,920604,672.000,3687.000,7445.000,-208.000,-120.000,231.000,NA,0.000,0
2026-01-30 21:46:26,920644,774.000,4068.000,8321.000,-1016.000,-257.000,192.000,NA,0.000,0
2026-01-30 21:46:26,920684,757.000,3051.000,7990.000,-1003.000,-121.000,69.000,NA,0.000,0
2026-01-30 21:46:26,920724,409.000,3003.000,7593.000,531.000,231.000,-193.000,NA,0.000,0
2026-01-30 21:46:26,920764,167.000,4043.000,8189.000,850.000,218.000,-205.000,NA,0.000,0
2026-01-30 21:46:26,920804,1075.000,3568.000,7980.000,-540.000,-204.000,202.000,NA,0.000,0
2026-01-30 21:46:26,920844,673.000,3161.000,8265.000,-340.000,-168.000,69.000,NA,0.000,0
2026-01-30 21:46:26,920884,674.000,2870.000,7127.000,390.000,-108.000,-81.000,NA,0.000,0
2026-01-30 21:46:26,920924,462.000,3408.000,7606.000,1136.000,134.000,-111.000,NA,0.000,0
2026-01-30 21:46:26,920964,995.000,3393.000,7533.000,-544.000,-30.000,197.000,NA,0.000,0
2026-01-30 21:46:26,921004,542.000,3248.000,7423.000,-182.000,34.000,-28.000,NA,0.000,0
2026-01-30 21:46:26,921044,307.000,3805.000,7709.000,65.000,42.000,-174.000,NA,0.000,0
2026-01-30 21:46:26,921084,509.000,3270.000,7338.000,106.000,205.000,-156.000,NA,0.000,0
2026-01-30 21:46:26,921124,209.000,3926.000,7801.000,172.000,173.000,-212.000,NA,0.000,0
2026-01-30 21:46:26,921164,190.000,3474.000,7659.000,-244.000,136.000,-118.000,NA,0.000,0
2026-01-30 21:46:26,921204,508.000,3260.000,7866.000,139.000,88.000,-77.000,NA,0.000,0
2026-01-30 21:46:26,921244,567.000,3446.000,7506.000,155.000,-70.000,76.000,NA,0.000,0
2026-01-30 21:46:27,921284,636.000,2744.000,6720.000,172.000,-9.000,131.000,NA,0.000,0
2026-01-30 21:46:27,921324,306.000,4336.000,7513.000,891.000,-26.000,-55.000,NA,0.000,0
2026-01-30 21:46:27,921364,700.000,4631.000,8272.000,-1653.000,-273.000,308.000,NA,0.000,0
2026-01-30 21:46:27,921404,968.000,2304.000,7976.000,-1883.000,-126.000,225.000,NA,0.000,0
2026-01-30 21:46:27,921446,201.000,2327.000,7206.000,1550.000,243.000,-397.000,NA,0.000,0
2026-01-30 21:46:27,921485,-7.000,4171.000,7036.000,2048.000,57.000,-246.000,NA,0.000,0
2026-01-30 21:46:27,921524,899.000,4648.000,7551.000,-696.000,-281.000,480.000,NA,0.000,0
2026-01-30 21:46:27,921564,1184.000,2984.000,7897.000,-2138.000,-299.000,510.000,NA,0.000,0
2026-01-30 21:46:27,921606,362.000,2638.000,8043.000,-367.000,-180.000,-195.000,NA,0.000,0
2026-01-30 21:46:27,921644,369.000,3094.000,7768.000,872.000,46.000,-260.000,NA,0.000,0
2026-01-30 21:46:27,921684,1010.000,3505.000,7741.000,458.000,265.000,221.000,NA,0.000,0
2026-01-30 21:46:27,921724,759.000,3053.000,6573.000,236.000,134.000,88.000,NA,0.000,0
2026-01-30 21:46:27,921764,-65.000,3859.000,7503.000,789.000,81.000,-293.000,NA,0.000,0
2026-01-30 21:46:27,921804,612.000,3933.000,7599.000,-908.000,-319.000,48.000,NA,0.000,0
2026-01-30 21:46:27,921844,758.000,2617.000,7777.000,-1011.000,-52.000,42.000,NA,0.000,0
2026-01-30 21:46:27,921884,766.000,3242.000,7755.000,324.000,66.000,-209.000,NA,0.000,0
2026-01-30 21:46:27,921924,574.000,3515.000,7591.000,293.000,184.000,-61.000,NA,0.000,0
2026-01-30 21:46:27,921964,494.000,3735.000,8111.000,-283.000,66.000,118.000,NA,0.000,0
2026-01-30 21:46:27,922004,603.000,3063.000,7677.000,-306.000,-39.000,17.000,NA,0.000,0
2026-01-30 21:46:27,922044,321.000,3192.000,7488.000,501.000,-6.000,-170.000,NA,0.000,0
2026-01-30 21:46:27,922084,501.000,2520.000,6882.000,362.000,-9.000,81.000,NA,0.000,0
2026-01-30 21:46:27,922124,556.000,4554.000,8106.000,-70.000,-233.000,203.000,NA,0.000,0
2026-01-30 21:46:27,922164,1106.000,2800.000,7285.000,-1216.000,-237.000,408.000,NA,0.000,0
2026-01-30 21:46:27,922204,773.000,2501.000,6858.000,39.000,-155.000,-18.000,NA,0.000,0
2026-01-30 21:46:27,922244,349.000,2403.000,6619.000,1672.000,374.000,-282.000,NA,0.000,0
2026-01-30 21:46:28,922284,103.000,6110.000,8871.000,-153.000,-185.000,133.000,NA,0.000,0
2026-01-30 21:46:28,922324,1773.000,2528.000,7229.000,-3209.000,-75.000,691.000,NA,0.000,0
2026-01-30 21:46:28,922364,528.000,3239.000,9290.000,84.000,-150.000,-492.000,NA,0.000,0
2026-01-30 21:46:28,922404,230.000,2939.000,7514.000,801.000,52.000,-451.000,NA,0.000,0
2026-01-30 21:46:28,922444,501.000,3367.000,7879.000,817.000,232.000,60.000,NA,0.000,0
2026-01-30 21:46:28,922484,898.000,2775.000,6636.000,-258.000,-76.000,294.000,NA,0.000,0
2026-01-30 21:46:28,922524,202.000,3846.000,7738.000,423.000,-37.000,-121.000,NA,0.000,0
2026-01-30 21:46:28,922564,745.000,3169.000,7671.000,-580.000,-220.000,69.000,NA,0.000,0
2026-01-30 21:46:28,922604,1026.000,2829.000,7900.000,-115.000,-145.000,14.000,NA,0.000,0
2026-01-30 21:46:28,922644,832.000,3249.000,7469.000,421.000,25.000,1.000,NA,0.000,0
2026-01-30 21:46:28,922684,688.000,3845.000,7707.000,120.000,73.000,124.000,NA,0.000,0
2026-01-30 21:46:28,922724,957.000,3335.000,7525.000,-309.000,-42.000,76.000,NA,0.000,0
2026-01-30 21:46:28,922764,746.000,3454.000,8019.000,136.000,-25.000,-202.000,NA,0.000,0
2026-01-30 21:46:28,922804,780.000,3535.000,8231.000,-206.000,49.000,-67.000,NA,0.000,0
2026-01-30 21:46:28,922844,920.000,3751.000,8373.000,-341.000,93.000,68.000,NA,0.000,0
2026-01-30 21:46:28,922884,880.000,2853.000,7353.000,241.000,192.000,-116.000,NA,0.000,0
2026-01-30 21:46:28,922924,292.000,3921.000,8102.000,672.000,233.000,-247.000,NA,0.000,0
2026-01-30 21:46:28,922964,626.000,3570.000,8253.000,-634.000,41.000,101.000,NA,0.000,0
2026-01-30 21:46:28,923004,772.000,3199.000,8395.000,-637.000,-130.000,60.000,NA,0.000,0
2026-01-30 21:46:28,923044,679.000,2916.000,7916.000,466.000,24.000,-155.000,NA,0.000,0
2026-01-30 21:46:28,923084,636.000,3121.000,7034.000,1029.000,73.000,-28.000,NA,0.000,0
2026-01-30 21:46:28,923124,674.000,3602.000,7021.000,504.000,133.000,161.000,NA,0.000,0
