datetime_local,uptime_ms,acc_x,acc_y,acc_z,gyro_x,gyro_y,gyro_z,speed_mps,turn_rate_deg_s,gps_valid
2026-01-30 23:13:57,724654,-784.000,-7589.000,4501.000,589.000,366.000,-123.000,0.000,0.000,0
2026-01-30 23:13:57,724694,458.000,-7183.000,4496.000,85.000,-140.000,-203.000,0.000,0.000,0
2026-01-30 23:13:57,724735,406.000,-7459.000,4419.000,-218.000,335.000,-559.000,0.000,0.000,0
2026-01-30 23:13:57,724774,412.000,-7331.000,4399.000,360.000,409.000,-436.000,0.000,0.000,0
2026-01-30 23:13:57,724814,433.000,-7500.000,4369.000,245.000,873.000,-18.000,0.000,0.000,0
2026-01-30 23:13:57,724854,-168.000,-7633.000,4607.000,419.000,1006.000,38.000,0.000,0.000,0
2026-01-30 23:13:57,724894,-227.000,-7195.000,4372.000,89.000,205.000,83.000,0.000,0.000,0
2026-01-30 23:13:57,724934,-95.000,-6997.000,4165.000,-354.000,-497.000,206.000,0.000,0.000,0
2026-01-30 23:13:57,724976,-104.000,-6937.000,3999.000,-485.000,-647.000,111.000,0.000,0.000,0
2026-01-30 23:13:57,725015,-214.000,-7047.000,4118.000,-33.000,-791.000,293.000,0.000,0.000,0
2026-01-30 23:13:57,725054,-17.000,-6903.000,4267.000,232.000,-704.000,318.000,0.000,0.000,0
2026-01-30 23:13:57,725094,-261.000,-7143.000,4631.000,119.000,-381.000,260.000,0.000,0.000,0
2026-01-30 23:13:58,725134,-131.000,-7135.000,4529.000,-213.000,16.000,332.000,0.000,0.000,0
2026-01-30 23:13:58,725174,-312.000,-7700.000,4539.000,277.000,75.000,257.000,0.000,0.000,0
2026-01-30 23:13:58,725214,-184.000,-7651.000,4444.000,823.000,145.000,88.000,0.000,0.000,0
2026-01-30 23:13:58,725254,-138.000,-7957.000,4572.000,729.000,402.000,-95.000,0.000,0.000,0
2026-01-30 23:13:58,725294,-142.000,-7737.000,4421.000,806.000,285.000,-10.000,0.000,0.000,0
2026-01-30 23:13:58,725334,-197.000,-7941.000,3763.000,1391.000,96.000,28.000,0.000,0.000,0
2026-01-30 23:13:58,725374,-294.000,-6810.000,3121.000,2816.000,63.000,179.000,0.000,0.000,0
2026-01-30 23:13:58,725414,-1777.000,-5859.000,4119.000,2336.000,-1187.000,1970.000,0.000,0.000,0
2026-01-30 23:13:58,725454,219.000,-8394.000,3396.000,2270.000,-1608.000,626.000,0.000,0.000,0
2026-01-30 23:13:58,725494,539.000,-7256.000,4124.000,4787.000,-1714.000,1786.000,0.000,0.000,0
2026-01-30 23:13:58,725534,-1.000,-4900.000,5368.000,5834.000,-1522.000,1970.000,0.000,0.000,0
2026-01-30 23:13:58,725574,41.000,-4477.000,6312.000,3609.000,-1884.000,2814.000,0.000,0.000,0
2026-01-30 23:13:58,725614,112.000,-4992.000,7276.000,2628.000,-2072.000,2888.000,0.000,0.000,0
2026-01-30 23:13:58,725654,701.000,-4011.000,9223.000,2531.000,-1577.000,2833.000,0.000,0.000,0
2026-01-30 23:13:58,725694,637.000,-3414.000,9198.000,1294.000,-602.000,3014.000,0.000,0.000,0
2026-01-30 23:13:58,725734,403.000,-3316.000,9208.000,352.000,427.000,2710.000,0.000,0.000,0
2026-01-30 23:13:58,725774,-183.000,-2877.000,8669.000,556.000,1224.000,2190.000,0.000,0.000,0
2026-01-30 23:13:58,725814,-1163.000,-2733.000,8229.000,541.000,1627.000,1162.000,0.000,0.000,0
2026-01-30 23:13:58,725854,-1323.000,-2438.000,8494.000,640.000,1593.000,71.000,0.000,0.000,0
2026-01-30 23:13:58,725894,-832.000,-2174.000,7373.000,-24.000,1181.000,-682.000,0.000,0.000,0
2026-01-30 23:13:58,725934,-2477.000,-3731.000,8510.000,41.000,2163.000,-1755.000,0.000,0.000,0
2026-01-30 23:13:58,725974,-997.000,-3571.000,9184.000,217.000,2506.000,-2854.000,0.000,0.000,0
2026-01-30 23:13:58,726014,-1640.000,-4149.000,7075.000,53.000,2984.000,-2410.000,0.000,0.000,0
2026-01-30 23:13:58,726054,-1491.000,-4515.000,6710.000,-180.000,2977.000,-2854.000,0.000,0.000,0
2026-01-30 23:13:58,726094,-1392.000,-4340.000,6466.000,863.000,2543.000,-3355.000,0.000,0.000,0
2026-01-30 23:13:59,726134,-730.000,-4652.000,6361.000,1594.000,1969.000,-3433.000,0.000,0.000,0
2026-01-30 23:13:59,726174,-756.000,-4469.000,6439.000,1998.000,1767.000,-3618.000,0.000,0.000,0
2026-01-30 23:13:59,726214,-491.000,-4101.000,6686.000,1339.000,1091.000,-3571.000,0.000,0.000,0
2026-01-30 23:13:59,726254,-195.000,-4357.000,6502.000,-172.000,959.000,-3174.000,0.000,0.000,0
2026-01-30 23:13:59,726294,-710.000,-5415.000,6137.000,-638.000,869.000,-3047.000,0.000,0.000,0
2026-01-30 23:13:59,726334,-311.000,-5752.000,6060.000,755.000,519.000,-2696.000,0.000,0.000,0
2026-01-30 23:13:59,726376,-686.000,-5571.000,6911.000,773.000,785.000,-2479.000,0.000,0.000,0
2026-01-30 23:13:59,726416,-296.000,-5904.000,6981.000,344.000,1059.000,-1429.000,0.000,0.000,0
2026-01-30 23:13:59,726454,-1375.000,-5575.000,8295.000,835.000,2017.000,-1397.000,0.000,0.000,0
2026-01-30 23:13:59,726494,-1327.000,-4849.000,8274.000,1372.000,2178.000,-701.000,0.000,0.000,0
2026-01-30 23:13:59,726534,-2518.000,-4468.000,8307.000,1410.000,2843.000,-832.000,0.000,0.000,0
2026-01-30 23:13:59,726574,-2968.000,-3703.000,7827.000,2540.000,2384.000,-875.000,0.000,0.000,0
2026-01-30 23:13:59,726614,-3000.000,-3622.000,7397.000,1959.000,2109.000,-1056.000,0.000,0.000,0
2026-01-30 23:13:59,726655,-3005.000,-3148.000,7418.000,1702.000,1400.000,-937.000,0.000,0.000,0
2026-01-30 23:13:59,726694,-2543.000,-4232.000,6586.000,540.000,507.000,-313.000,0.000,0.000,0
2026-01-30 23:13:59,726734,-1792.000,-3817.000,6062.000,3016.000,-409.000,-25.000,0.000,0.000,0
2026-01-30 23:13:59,726774,-1525.000,-4004.000,6057.000,3141.000,-615.000,71.000,0.000,0.000,0
2026-01-30 23:13:59,726814,-246.000,-2534.000,6315.000,5518.000,-881.000,255.000,0.000,0.000,0
2026-01-30 23:13:59,726854,-574.000,-2155.000,7192.000,5944.000,-668.000,331.000,0.000,0.000,0
2026-01-30 23:13:59,726894,190.000,-869.000,8025.000,5075.000,-1174.000,335.000,0.000,0.000,0
2026-01-30 23:13:59,726934,20.000,-806.000,7671.000,4001.000,-1107.000,354.000,0.000,0.000,0
2026-01-30 23:13:59,726974,154.000,339.000,8233.000,4327.000,-1680.000,509.000,0.000,0.000,0
2026-01-30 23:13:59,727014,-162.000,-107.000,7554.000,2492.000,-1494.000,813.000,0.000,0.000,0
2026-01-30 23:13:59,727054,1298.000,4568.000,9300.000,5125.000,626.000,336.000,0.000,0.000,0
2026-01-30 23:13:59,727094,-3869.000,2500.000,8635.000,87.000,3430.000,-168.000,0.000,0.000,0
2026-01-30 23:14:00,727134,-1009.000,-1380.000,8379.000,-3609.000,258.000,1538.000,0.000,0.000,0
2026-01-30 23:14:00,727174,-1627.000,115.000,8172.000,471.000,167.000,795.000,0.000,0.000,0
2026-01-30 23:14:00,727214,-1084.000,301.000,8555.000,-131.000,-222.000,795.000,0.000,0.000,0
2026-01-30 23:14:00,727254,-1784.000,-268.000,8083.000,-518.000,-394.000,1080.000,0.000,0.000,0
2026-01-30 23:14:00,727294,-1435.000,-1593.000,8540.000,-268.000,-584.000,778.000,0.000,0.000,0
2026-01-30 23:14:00,727334,-1073.000,367.000,8700.000,691.000,-579.000,607.000,0.000,0.000,0
2026-01-30 23:14:00,727374,-1001.000,-810.000,7959.000,-85.000,-211.000,718.000,0.000,0.000,0
2026-01-30 23:14:00,727414,-1161.000,-664.000,8200.000,510.000,36.000,330.000,0.000,0.000,0
2026-01-30 23:14:00,727454,-1655.000,48.000,8125.000,251.000,16.000,189.000,0.000,0.000,0
2026-01-30 23:14:00,727494,-1880.000,34.000,7876.000,-459.000,-500.000,245.000,0.000,0.000,0
2026-01-30 23:14:00,727534,-570.000,-624.000,7568.000,-348.000,-300.000,323.000,0.000,0.000,0
2026-01-30 23:14:00,727574,-834.000,-102.000,7732.000,-261.000,386.000,-149.000,0.000,0.000,0
2026-01-30 23:14:00,727614,-1586.000,-20.000,7808.000,519.000,1032.000,-453.000,0.000,0.000,0
2026-01-30 23:14:00,727654,-1608.000,583.000,9120.000,781.000,966.000,-587.000,0.000,0.000,0
2026-01-30 23:14:00,727694,-1239.000,154.000,8412.000,812.000,1171.000,-494.000,0.000,0.000,0
2026-01-30 23:14:00,727734,-1283.000,586.000,7931.000,461.000,1155.000,-483.000,0.000,0.000,0
2026-01-30 23:14:00,727774,-1894.000,654.000,8249.000,631.000,1317.000,-276.000,0.000,0.000,0
2026-01-30 23:14:00,727814,-2327.000,197.000,8047.000,-307.000,837.000,146.000,0.000,0.000,0
2026-01-30 23:14:00,727854,-1703.000,-635.000,8226.000,-812.000,472.000,345.000,0.000,0.000,0
2026-01-30 23:14:00,727894,-1597.000,-336.000,8200.000,-373.000,270.000,159.000,0.000,0.000,0
2026-01-30 23:14:00,727934,-1915.000,-310.000,7971.000,-201.000,165.000,405.000,0.000,0.000,0
2026-01-30 23:14:00,727974,-1797.000,-505.000,8381.000,-224.000,103.000,545.000,0.000,0.000,0
2026-01-30 23:14:00,728014,-1810.000,-565.000,8306.000,-491.000,161.000,562.000,0.000,0.000,0
2026-01-30 23:14:00,728054,-1995.000,-325.000,8392.000,67.000,375.000,426.000,0.000,0.000,0
2026-01-30 23:14:00,728094,-2559.000,-74.000,8351.000,-145.000,-52.000,286.000,0.000,0.000,0
2026-01-30 23:14:01,728134,-2257.000,-264.000,8621.000,91.000,-99.000,247.000,0.000,0.000,0
2026-01-30 23:14:01,728174,-1978.000,-288.000,7483.000,-33.000,-124.000,-8.000,0.000,0.000,0
2026-01-30 23:14:01,728214,-1973.000,88.000,7590.000,95.000,-41.000,-259.000,0.000,0.000,0
2026-01-30 23:14:01,728254,-2358.000,-589.000,7492.000,75.000,266.000,-298.000,0.000,0.000,0
2026-01-30 23:14:01,728294,-1906.000,193.000,7973.000,665.000,654.000,-334.000,0.000,0.000,0
2026-01-30 23:14:01,728334,-1728.000,762.000,8298.000,397.000,835.000,-322.000,0.000,0.000,0
2026-01-30 23:14:01,728374,-2109.000,661.000,8688.000,84.000,1170.000,-356.000,0.000,0.000,0
2026-01-30 23:14:01,728414,-1982.000,771.000,8212.000,-717.000,874.000,-106.000,0.000,0.000,0
2026-01-30 23:14:01,728454,-2243.000,-768.000,7482.000,-1088.000,583.000,4.000,0.000,0.000,0
2026-01-30 23:14:01,728494,-2036.000,-185.000,8291.000,-662.000,218.000,1.000,0.000,0.000,0
2026-01-30 23:14:01,728534,-2641.000,-155.000,7587.000,-1329.000,-145.000,79.000,0.000,0.000,0
2026-01-30 23:14:01,728574,-2307.000,-940.000,7859.000,-1637.000,-539.000,435.000,0.000,0.000,0
2026-01-30 23:14:01,728614,-2465.000,-723.000,8557.000,-1019.000,-841.000,636.000,0.000,0.000,0
2026-01-30 23:14:01,728654,-2450.000,-156.000,8613.000,-998.000,-878.000,804.000,0.000,0.000,0
2026-01-30 23:14:01,728694,-2117.000,-1648.000,9079.000,-1381.000,-610.000,997.000,0.000,0.000,0
2026-01-30 23:14:01,728734,-2391.000,-1189.000,8676.000,-261.000,-469.000,806.000,0.000,0.000,0
2026-01-30 23:14:01,728774,-2748.000,-1254.000,8248.000,-210.000,-632.000,546.000,0.000,0.000,0
2026-01-30 23:14:01,728814,-2428.000,-1879.000,9175.000,-138.000,-961.000,131.000,0.000,0.000,0
2026-01-30 23:14:01,728854,-2293.000,-178.000,8521.000,294.000,-658.000,-334.000,0.000,0.000,0
2026-01-30 23:14:01,728894,-1572.000,-473.000,8347.000,78.000,-238.000,-615.000,0.000,0.000,0
2026-01-30 23:14:01,728934,-2380.000,459.000,8118.000,925.000,693.000,-895.000,0.000,0.000,0
2026-01-30 23:14:01,728974,-1705.000,722.000,7708.000,789.000,928.000,-662.000,0.000,0.000,0
2026-01-30 23:14:01,729014,-2281.000,327.000,7443.000,143.000,1050.000,-567.000,0.000,0.000,0
2026-01-30 23:14:01,729054,-1557.000,-505.000,7497.000,-412.000,514.000,-309.000,0.000,0.000,0
2026-01-30 23:14:01,729094,-2829.000,-261.000,7825.000,94.000,78.000,-356.000,0.000,0.000,0
2026-01-30 23:14:02,729134,-2392.000,-145.000,7136.000,-315.000,-547.000,-114.000,0.000,0.000,0
2026-01-30 23:14:02,729174,-1698.000,-949.000,8175.000,-681.000,-681.000,323.000,0.000,0.000,0
2026-01-30 23:14:02,729214,-2032.000,-702.000,8378.000,-90.000,-136.000,435.000,0.000,0.000,0
2026-01-30 23:14:02,729254,-1797.000,-702.000,8066.000,-4.000,127.000,563.000,0.000,0.000,0
2026-01-30 23:14:02,729294,-2041.000,-967.000,8337.000,214.000,129.000,507.000,0.000,0.000,0
2026-01-30 23:14:02,729334,-2282.000,-883.000,8633.000,328.000,-123.000,275.000,0.000,0.000,0
2026-01-30 23:14:02,729374,-1881.000,-612.000,7962.000,-113.000,-699.000,33.000,0.000,0.000,0
2026-01-30 23:14:02,729414,-1461.000,-944.000,7740.000,-218.000,-712.000,-138.000,0.000,0.000,0
2026-01-30 23:14:02,729454,-2049.000,-708.000,7523.000,69.000,-408.000,-171.000,0.000,0.000,0
2026-01-30 23:14:02,729494,-1685.000,-751.000,8235.000,-49.000,-165.000,13.000,0.000,0.000,0
2026-01-30 23:14:02,729534,-1855.000,-535.000,8055.000,-159.000,210.000,61.000,0.000,0.000,0
2026-01-30 23:14:02,729574,-1668.000,-1000.000,8464.000,-229.000,527.000,224.000,0.000,0.000,0
2026-01-30 23:14:02,729614,-2246.000,-1159.000,8996.000,53.000,738.000,78.000,0.000,0.000,0
2026-01-30 23:14:02,729654,-2474.000,-534.000,8844.000,213.000,546.000,-35.000,0.000,0.000,0
2026-01-30 23:14:02,729694,-2549.000,-1121.000,8379.000,-84.000,8.000,-231.000,0.000,0.000,0
2026-01-30 23:14:02,729734,-2107.000,-179.000,8795.000,537.000,-176.000,-409.000,0.000,0.000,0
2026-01-30 23:14:02,729774,-1868.000,-365.000,8413.000,252.000,-71.000,-471.000,0.000,0.000,0
2026-01-30 23:14:02,729814,-2132.000,-33.000,7556.000,272.000,203.000,-319.000,0.000,0.000,0
2026-01-30 23:14:02,729854,-1902.000,226.000,8016.000,569.000,348.000,-152.000,0.000,0.000,0
2026-01-30 23:14:02,729894,-2220.000,-275.000,7791.000,76.000,245.000,-100.000,0.000,0.000,0
2026-01-30 23:14:02,729934,-2009.000,-285.000,7627.000,-93.000,53.000,-69.000,0.000,0.000,0
2026-01-30 23:14:02,729974,-2174.000,-437.000,7201.000,-272.000,-8.000,26.000,0.000,0.000,0
2026-01-30 23:14:02,730014,-2011.000,-765.000,7656.000,-250.000,-174.000,334.000,0.000,0.000,0
2026-01-30 23:14:02,730054,-2476.000,-926.000,8053.000,-436.000,-157.000,360.000,0.000,0.000,0
2026-01-30 23:14:02,730094,-2143.000,-675.000,8003.000,-246.000,-296.000,495.000,0.000,0.000,0
2026-01-30 23:14:03,730134,-2224.000,-1303.000,8154.000,-463.000,-286.000,505.000,0.000,0.000,0
2026-01-30 23:14:03,730174,-2359.000,-1090.000,8462.000,-52.000,-251.000,492.000,0.000,0.000,0
2026-01-30 23:14:03,730214,-1802.000,-1190.000,8477.000,-88.000,-350.000,417.000,0.000,0.000,0
2026-01-30 23:14:03,730254,-2152.000,-739.000,8049.000,4.000,-294.000,62.000,0.000,0.000,0
2026-01-30 23:14:03,730294,-2059.000,-674.000,7971.000,157.000,-249.000,-106.000,0.000,0.000,0
2026-01-30 23:14:03,730334,-2342.000,-908.000,8288.000,221.000,23.000,-307.000,0.000,0.000,0
2026-01-30 23:14:03,730374,-2018.000,-572.000,8204.000,366.000,160.000,-419.000,0.000,0.000,0
2026-01-30 23:14:03,730416,-2130.000,-412.000,8090.000,431.000,389.000,-471.000,0.000,0.000,0
2026-01-30 23:14:03,730455,-1901.000,101.000,8485.000,748.000,562.000,-411.000,0.000,0.000,0
2026-01-30 23:14:03,730494,-2213.000,118.000,8224.000,381.000,654.000,-425.000,0.000,0.000,0
2026-01-30 23:14:03,730534,-1953.000,126.000,8309.000,415.000,532.000,-413.000,0.000,0.000,0
2026-01-30 23:14:03,730574,-2502.000,-80.000,7832.000,-151.000,561.000,-482.000,0.000,0.000,0
2026-01-30 23:14:03,730614,-2245.000,-48.000,7929.000,38.000,175.000,-265.000,0.000,0.000,0
2026-01-30 23:14:03,730657,-2213.000,19.000,7946.000,-97.000,99.000,-8.000,0.000,0.000,0
2026-01-30 23:14:03,730694,-2112.000,-514.000,8420.000,-297.000,40.000,202.000,0.000,0.000,0
2026-01-30 23:14:03,730734,-2484.000,-456.000,8626.000,-169.000,71.000,333.000,0.000,0.000,0
2026-01-30 23:14:03,730774,-2584.000,-815.000,8259.000,-494.000,-95.000,453.000,0.000,0.000,0
2026-01-30 23:14:03,730814,-2168.000,-745.000,8501.000,-185.000,-452.000,494.000,0.000,0.000,0
2026-01-30 23:14:03,730854,-2346.000,-1035.000,8146.000,-343.000,-576.000,433.000,0.000,0.000,0
2026-01-30 23:14:03,730894,-2249.000,-624.000,8160.000,28.000,-760.000,262.000,0.000,0.000,0
2026-01-30 23:14:03,730934,-2133.000,-1004.000,8143.000,-148.000,-645.000,244.000,0.000,0.000,0
2026-01-30 23:14:03,730974,-1932.000,-727.000,8207.000,202.000,-489.000,288.000,0.000,0.000,0
2026-01-30 23:14:03,731014,-2001.000,-673.000,8213.000,323.000,-227.000,162.000,0.000,0.000,0
2026-01-30 23:14:03,731054,-1809.000,-458.000,8503.000,194.000,-205.000,-1.000,0.000,0.000,0
2026-01-30 23:14:03,731094,-1732.000,-189.000,8402.000,110.000,-86.000,-241.000,0.000,0.000,0
2026-01-30 23:14:04,731134,-1967.000,-579.000,8240.000,-13.000,348.000,-373.000,0.000,0.000,0
2026-01-30 23:14:04,731174,-2081.000,-457.000,8583.000,200.000,682.000,-425.000,0.000,0.000,0
2026-01-30 23:14:04,731214,-2452.000,-285.000,8329.000,256.000,772.000,-485.000,0.000,0.000,0
2026-01-30 23:14:04,731254,-2373.000,50.000,8485.000,431.000,559.000,-489.000,0.000,0.000,0
2026-01-30 23:14:04,731294,-1991.000,-13.000,8248.000,225.000,267.000,-408.000,0.000,0.000,0
2026-01-30 23:14:04,731334,-1727.000,199.000,8665.000,202.000,274.000,-299.000,0.000,0.000,0
2026-01-30 23:14:04,731374,-2285.000,-267.000,7719.000,-195.000,264.000,-81.000,0.000,0.000,0
2026-01-30 23:14:04,731414,-2044.000,-145.000,7933.000,-3.000,0.000,116.000,0.000,0.000,0
2026-01-30 23:14:04,731454,-2170.000,-296.000,7704.000,-299.000,-205.000,156.000,0.000,0.000,0
2026-01-30 23:14:04,731494,-2256.000,-316.000,8216.000,-154.000,-366.000,97.000,0.000,0.000,0
2026-01-30 23:14:04,731534,-2229.000,-535.000,8046.000,-352.000,-243.000,237.000,0.000,0.000,0
2026-01-30 23:14:04,731574,-2117.000,-638.000,8295.000,-313.000,-180.000,422.000,0.000,0.000,0
2026-01-30 23:14:04,731614,-2228.000,-587.000,8285.000,-119.000,-26.000,411.000,0.000,0.000,0
2026-01-30 23:14:04,731654,-2196.000,-724.000,8285.000,-277.000,-269.000,319.000,0.000,0.000,0
2026-01-30 23:14:04,731694,-2422.000,-825.000,7525.000,-470.000,-530.000,155.000,0.000,0.000,0
2026-01-30 23:14:04,731734,-1829.000,-728.000,8277.000,-167.000,-739.000,167.000,0.000,0.000,0
2026-01-30 23:14:04,731774,-1952.000,-848.000,8095.000,-74.000,-160.000,189.000,0.000,0.000,0
2026-01-30 23:14:04,731814,-2155.000,-962.000,8502.000,26.000,178.000,155.000,0.000,0.000,0
2026-01-30 23:14:04,731854,-2160.000,-462.000,8908.000,343.000,186.000,-33.000,0.000,0.000,0
2026-01-30 23:14:04,731894,-2070.000,-508.000,8653.000,-52.000,254.000,-259.000,0.000,0.000,0
2026-01-30 23:14:04,731934,-1873.000,-327.000,8109.000,224.000,187.000,-468.000,0.000,0.000,0
2026-01-30 23:14:04,731974,-2345.000,-288.000,8163.000,361.000,350.000,-560.000,0.000,0.000,0
2026-01-30 23:14:04,732014,-2114.000,229.000,8445.000,447.000,464.000,-514.000,0.000,0.000,0
2026-01-30 23:14:04,732054,-2309.000,-109.000,7914.000,129.000,271.000,-408.000,0.000,0.000,0
2026-01-30 23:14:04,732094,-2128.000,288.000,8370.000,249.000,171.000,-314.000,0.000,0.000,0
2026-01-30 23:14:05,732134,-2097.000,-286.000,8356.000,-148.000,322.000,22.000,0.000,0.000,0
2026-01-30 23:14:05,732174,-2411.000,-567.000,8791.000,156.000,519.000,163.000,0.000,0.000,0
2026-01-30 23:14:05,732214,-2602.000,-339.000,8433.000,267.000,370.000,265.000,0.000,0.000,0
2026-01-30 23:14:05,732254,-2453.000,-594.000,8323.000,62.000,-217.000,300.000,0.000,0.000,0
2026-01-30 23:14:05,732294,-2620.000,-373.000,8003.000,-129.000,-668.000,118.000,0.000,0.000,0
2026-01-30 23:14:05,732334,-1661.000,-152.000,7417.000,-202.000,-856.000,133.000,0.000,0.000,0
2026-01-30 23:14:05,732374,-1869.000,-291.000,7229.000,-88.000,-517.000,130.000,0.000,0.000,0
2026-01-30 23:14:05,732416,-1827.000,-151.000,7411.000,115.000,-157.000,299.000,0.000,0.000,0
2026-01-30 23:14:05,732456,-1942.000,-407.000,7579.000,-42.000,33.000,262.000,0.000,0.000,0
2026-01-30 23:14:05,732494,-1721.000,-369.000,7596.000,-152.000,2.000,147.000,0.000,0.000,0
2026-01-30 23:14:05,732534,-2216.000,-805.000,7643.000,-248.000,-131.000,108.000,0.000,0.000,0
2026-01-30 23:14:05,732574,-1665.000,-584.000,8408.000,-1.000,42.000,279.000,0.000,0.000,0
2026-01-30 23:14:05,732614,-2154.000,-742.000,7634.000,-64.000,146.000,240.000,0.000,0.000,0
2026-01-30 23:14:05,732656,-2231.000,-664.000,8117.000,88.000,-149.000,164.000,0.000,0.000,0
2026-01-30 23:14:05,732694,-1604.000,-1225.000,8997.000,-44.000,-264.000,279.000,0.000,0.000,0
2026-01-30 23:14:05,732734,-1703.000,-535.000,8622.000,-66.000,-106.000,181.000,0.000,0.000,0
2026-01-30 23:14:05,732774,-2003.000,-1286.000,8527.000,-81.000,260.000,113.000,0.000,0.000,0
2026-01-30 23:14:05,732814,-2294.000,-823.000,8975.000,407.000,177.000,-79.000,0.000,0.000,0
2026-01-30 23:14:05,732854,-2322.000,-360.000,8699.000,330.000,149.000,-447.000,0.000,0.000,0
2026-01-30 23:14:05,732894,-2066.000,-261.000,7859.000,445.000,-86.000,-541.000,0.000,0.000,0
2026-01-30 23:14:05,732934,-1675.000,450.000,7750.000,1084.000,160.000,-552.000,0.000,0.000,0
2026-01-30 23:14:05,732974,-2090.000,568.000,7876.000,684.000,492.000,-547.000,0.000,0.000,0
2026-01-30 23:14:05,733014,-1741.000,660.000,7459.000,381.000,400.000,-425.000,0.000,0.000,0
2026-01-30 23:14:05,733054,-1970.000,356.000,8101.000,203.000,514.000,-491.000,0.000,0.000,0
2026-01-30 23:14:05,733094,-2591.000,701.000,8008.000,17.000,771.000,-457.000,0.000,0.000,0
2026-01-30 23:14:06,733134,-2754.000,607.000,7986.000,-82.000,880.000,-273.000,0.000,0.000,0
2026-01-30 23:14:06,733174,-2922.000,172.000,8402.000,-12.000,671.000,85.000,0.000,0.000,0
2026-01-30 23:14:06,733214,-2931.000,-98.000,8538.000,-347.000,334.000,282.000,0.000,0.000,0
2026-01-30 23:14:06,733254,-2507.000,-329.000,8581.000,-477.000,-387.000,362.000,0.000,0.000,0
2026-01-30 23:14:06,733294,-2282.000,-343.000,8234.000,-489.000,-612.000,326.000,0.000,0.000,0
2026-01-30 23:14:06,733334,-2123.000,-700.000,8094.000,-359.000,-467.000,423.000,0.000,0.000,0
2026-01-30 23:14:06,733374,-2078.000,-373.000,8155.000,-69.000,-377.000,469.000,0.000,0.000,0
2026-01-30 23:14:06,733414,-2215.000,-607.000,8215.000,-281.000,-378.000,356.000,0.000,0.000,0
2026-01-30 23:14:06,733454,-2226.000,-540.000,8224.000,-42.000,-555.000,187.000,0.000,0.000,0
2026-01-30 23:14:06,733494,-1802.000,-134.000,7883.000,-127.000,-563.000,128.000,0.000,0.000,0
2026-01-30 23:14:06,733534,-1906.000,-793.000,7858.000,-320.000,-150.000,104.000,0.000,0.000,0
2026-01-30 23:14:06,733574,-1976.000,-710.000,8034.000,119.000,18.000,53.000,0.000,0.000,0
2026-01-30 23:14:06,733614,-2207.000,-235.000,8458.000,195.000,112.000,-59.000,0.000,0.000,0
2026-01-30 23:14:06,733654,-2194.000,-463.000,7958.000,-15.000,65.000,-137.000,0.000,0.000,0
2026-01-30 23:14:06,733694,-2246.000,-277.000,8557.000,185.000,158.000,-267.000,0.000,0.000,0
2026-01-30 23:14:06,733734,-2456.000,-243.000,8310.000,30.000,372.000,-303.000,0.000,0.000,0
2026-01-30 23:14:06,733774,-2256.000,-173.000,8398.000,198.000,299.000,-270.000,0.000,0.000,0
2026-01-30 23:14:06,733814,-2670.000,143.000,8163.000,72.000,337.000,-315.000,0.000,0.000,0
2026-01-30 23:14:06,733854,-2360.000,-15.000,8206.000,160.000,164.000,-261.000,0.000,0.000,0
2026-01-30 23:14:06,733894,-2179.000,312.000,8083.000,164.000,222.000,-287.000,0.000,0.000,0
2026-01-30 23:14:06,733934,-1994.000,316.000,7983.000,-15.000,138.000,-99.000,0.000,0.000,0
2026-01-30 23:14:06,733974,-2228.000,68.000,8113.000,28.000,269.000,-33.000,0.000,0.000,0
2026-01-30 23:14:06,734014,-2597.000,189.000,8158.000,-39.000,40.000,7.000,0.000,0.000,0
2026-01-30 23:14:06,734054,-2098.000,-177.000,8055.000,-725.000,-256.000,177.000,0.000,0.000,0
2026-01-30 23:14:06,734094,-2155.000,-398.000,8065.000,-611.000,-264.000,255.000,0.000,0.000,0
2026-01-30 23:14:07,734134,-2137.000,-543.000,8005.000,-319.000,-240.000,341.000,0.000,0.000,0
2026-01-30 23:14:07,734174,-2216.000,-636.000,8154.000,-279.000,-326.000,405.000,0.000,0.000,0
2026-01-30 23:14:07,734214,-2126.000,-427.000,8122.000,-160.000,-481.000,399.000,0.000,0.000,0
2026-01-30 23:14:07,734254,-2274.000,-437.000,8130.000,-164.000,-526.000,421.000,0.000,0.000,0
2026-01-30 23:14:07,734294,-2232.000,-838.000,8407.000,-93.000,-344.000,363.000,0.000,0.000,0
2026-01-30 23:14:07,734334,-1866.000,-700.000,8129.000,-130.000,-439.000,271.000,0.000,0.000,0
2026-01-30 23:14:07,734374,-2197.000,-394.000,8212.000,75.000,-319.000,-51.000,0.000,0.000,0
2026-01-30 23:14:07,734416,-1925.000,-311.000,8026.000,107.000,-52.000,-243.000,0.000,0.000,0
2026-01-30 23:14:07,734456,-1628.000,0.000,8024.000,300.000,275.000,-324.000,0.000,0.000,0
2026-01-30 23:14:07,734494,-1765.000,-102.000,8109.000,400.000,611.000,-343.000,0.000,0.000,0
2026-01-30 23:14:07,734534,-1861.000,133.000,8391.000,528.000,689.000,-394.000,0.000,0.000,0
2026-01-30 23:14:07,734574,-2183.000,212.000,8102.000,380.000,728.000,-398.000,0.000,0.000,0
2026-01-30 23:14:07,734614,-2087.000,618.000,7882.000,334.000,363.000,-370.000,0.000,0.000,0
2026-01-30 23:14:07,734656,-1932.000,181.000,7928.000,7.000,194.000,-204.000,0.000,0.000,0
2026-01-30 23:14:07,734694,-2091.000,498.000,8242.000,108.000,171.000,-121.000,0.000,0.000,0
2026-01-30 23:14:07,734734,-2177.000,-9.000,8210.000,-384.000,170.000,32.000,0.000,0.000,0
2026-01-30 23:14:07,734774,-2292.000,-226.000,8035.000,-323.000,3.000,204.000,0.000,0.000,0
2026-01-30 23:14:07,734814,-2130.000,-233.000,8508.000,-170.000,-195.000,388.000,0.000,0.000,0
2026-01-30 23:14:07,734854,-2018.000,-462.000,8524.000,-284.000,-291.000,384.000,0.000,0.000,0
2026-01-30 23:14:07,734894,-2147.000,-830.000,8367.000,-342.000,-245.000,316.000,0.000,0.000,0
2026-01-30 23:14:07,734934,-1907.000,-667.000,8667.000,-103.000,-333.000,327.000,0.000,0.000,0
2026-01-30 23:14:07,734974,-2305.000,-317.000,8487.000,-59.000,-374.000,209.000,0.000,0.000,0
2026-01-30 23:14:07,735014,-1999.000,-899.000,8436.000,-186.000,-425.000,178.000,0.000,0.000,0
2026-01-30 23:14:07,735054,-1748.000,-348.000,8158.000,-105.000,-418.000,66.000,0.000,0.000,0
2026-01-30 23:14:07,735094,-1975.000,-564.000,8300.000,-120.000,-181.000,107.000,0.000,0.000,0
2026-01-30 23:14:08,735134,-2045.000,-702.000,7677.000,-174.000,-196.000,110.000,0.000,0.000,0
2026-01-30 23:14:08,735174,-1953.000,-804.000,8185.000,-200.000,-421.000,210.000,0.000,0.000,0
2026-01-30 23:14:08,735214,-1248.000,-966.000,8130.000,-268.000,-430.000,254.000,0.000,0.000,0
2026-01-30 23:14:08,735254,-1565.000,-716.000,8297.000,13.000,-259.000,254.000,0.000,0.000,0
2026-01-30 23:14:08,735294,-2043.000,-746.000,7985.000,106.000,-191.000,198.000,0.000,0.000,0
2026-01-30 23:14:08,735334,-1820.000,-1066.000,8080.000,-131.000,-692.000,98.000,0.000,0.000,0
2026-01-30 23:14:08,735374,-1730.000,-412.000,8581.000,-343.000,-1143.000,-30.000,0.000,0.000,0
2026-01-30 23:14:08,735414,-1928.000,-705.000,8382.000,-1589.000,-1602.000,-565.000,0.000,0.000,0
2026-01-30 23:14:08,735454,-2277.000,-805.000,9171.000,-2574.000,-1799.000,-767.000,0.000,0.000,0
2026-01-30 23:14:08,735494,-1510.000,-522.000,9560.000,-4170.000,-2404.000,-691.000,0.000,0.000,0
2026-01-30 23:14:08,735534,-1585.000,-862.000,8198.000,-5205.000,-1877.000,-707.000,0.000,0.000,0
2026-01-30 23:14:08,735574,-852.000,-1006.000,8388.000,-7255.000,-1080.000,-430.000,0.000,0.000,0
2026-01-30 23:14:08,735614,-1783.000,-2806.000,8426.000,-8771.000,753.000,232.000,0.000,0.000,0
2026-01-30 23:14:08,735654,-898.000,-1239.000,7092.000,-9198.000,1357.000,961.000,0.000,0.000,0
2026-01-30 23:14:08,735694,-1156.000,-1733.000,4630.000,-14704.000,2325.000,1600.000,0.000,0.000,0
2026-01-30 23:14:08,735734,-1830.000,-7776.000,3535.000,-12987.000,3667.000,939.000,0.000,0.000,0
2026-01-30 23:14:08,735774,-575.000,-5360.000,3592.000,-3438.000,2534.000,-749.000,0.000,0.000,0
2026-01-30 23:14:08,735814,-528.000,-5644.000,3432.000,-1647.000,2410.000,-1716.000,0.000,0.000,0
2026-01-30 23:14:08,735854,-771.000,-3984.000,2544.000,-353.000,983.000,-2517.000,0.000,0.000,0
2026-01-30 23:14:08,735894,-2216.000,-18477.000,7591.000,-1431.000,2363.000,-2339.000,0.000,0.000,0
2026-01-30 23:14:08,735934,-2514.000,-8179.000,3565.000,1926.000,246.000,297.000,0.000,0.000,0
2026-01-30 23:14:08,735974,-2029.000,-6248.000,6075.000,10056.000,-643.000,714.000,0.000,0.000,0
2026-01-30 23:14:08,736014,-1560.000,-3219.000,6398.000,7522.000,-1476.000,535.000,0.000,0.000,0
2026-01-30 23:14:08,736054,-1400.000,-4357.000,7633.000,3522.000,-1008.000,393.000,0.000,0.000,0
2026-01-30 23:14:08,736094,-1302.000,-5136.000,6388.000,136.000,261.000,1012.000,0.000,0.000,0
2026-01-30 23:14:09,736134,-1464.000,-5172.000,6871.000,-296.000,52.000,1197.000,0.000,0.000,0
2026-01-30 23:14:09,736174,-2679.000,-6668.000,6352.000,-432.000,268.000,1835.000,0.000,0.000,0
2026-01-30 23:14:09,736214,-1922.000,-5454.000,7007.000,1352.000,-460.000,1258.000,0.000,0.000,0
2026-01-30 23:14:09,736254,-1815.000,-5697.000,6534.000,1808.000,-727.000,1125.000,0.000,0.000,0
2026-01-30 23:14:09,736294,-1557.000,-4738.000,7113.000,2856.000,-544.000,477.000,0.000,0.000,0
2026-01-30 23:14:09,736334,-1845.000,-3959.000,7130.000,2583.000,-227.000,349.000,0.000,0.000,0
2026-01-30 23:14:09,736376,-2050.000,-3744.000,7121.000,1524.000,-128.000,-251.000,0.000,0.000,0
2026-01-30 23:14:09,736416,-1384.000,-3507.000,7448.000,1461.000,-231.000,-294.000,0.000,0.000,0
2026-01-30 23:14:09,736454,-999.000,-3442.000,7109.000,792.000,-132.000,-211.000,0.000,0.000,0
2026-01-30 23:14:09,736494,-1613.000,-3609.000,7601.000,849.000,301.000,-226.000,0.000,0.000,0
2026-01-30 23:14:09,736534,-2046.000,-3066.000,7315.000,248.000,456.000,-177.000,0.000,0.000,0
2026-01-30 23:14:09,736574,-1684.000,-2928.000,6732.000,-409.000,212.000,-29.000,0.000,0.000,0
2026-01-30 23:14:09,736614,-1763.000,-3861.000,7091.000,-776.000,368.000,95.000,0.000,0.000,0
2026-01-30 23:14:09,736657,-1870.000,-3741.000,7100.000,-1188.000,233.000,243.000,0.000,0.000,0
2026-01-30 23:14:09,736694,-1964.000,-3622.000,7264.000,-1297.000,619.000,580.000,0.000,0.000,0
2026-01-30 23:14:09,736734,-1991.000,-4676.000,6748.000,-1680.000,530.000,627.000,0.000,0.000,0
2026-01-30 23:14:09,736774,-2241.000,-4509.000,7228.000,-1049.000,-600.000,131.000,0.000,0.000,0
2026-01-30 23:14:09,736814,-1460.000,-5056.000,6310.000,-1567.000,-1663.000,-796.000,0.000,0.000,0
2026-01-30 23:14:09,736854,-1330.000,-4476.000,6611.000,-368.000,-1158.000,-533.000,0.000,0.000,0
2026-01-30 23:14:09,736894,-1722.000,-4563.000,6686.000,-891.000,-68.000,-56.000,0.000,0.000,0
2026-01-30 23:14:09,736934,-1690.000,-5225.000,6553.000,-1050.000,122.000,809.000,0.000,0.000,0
2026-01-30 23:14:09,736974,-2032.000,-5276.000,6826.000,-273.000,46.000,697.000,0.000,0.000,0
2026-01-30 23:14:09,737014,-2226.000,-5435.000,7003.000,-123.000,-102.000,415.000,0.000,0.000,0
2026-01-30 23:14:09,737054,-1923.000,-5463.000,7102.000,623.000,-495.000,181.000,0.000,0.000,0
2026-01-30 23:14:09,737094,-1518.000,-4668.000,7263.000,1485.000,-353.000,-270.000,0.000,0.000,0
2026-01-30 23:14:10,737134,-1834.000,-4638.000,7293.000,1498.000,-31.000,-499.000,0.000,0.000,0
2026-01-30 23:14:10,737174,-1990.000,-3553.000,7222.000,1818.000,23.000,-606.000,0.000,0.000,0
2026-01-30 23:14:10,737214,-1836.000,-3060.000,7231.000,1149.000,301.000,-791.000,0.000,0.000,0
2026-01-30 23:14:10,737254,-1443.000,-3805.000,7120.000,42.000,449.000,-631.000,0.000,0.000,0
2026-01-30 23:14:10,737294,-1550.000,-3993.000,7091.000,341.000,593.000,-195.000,0.000,0.000,0
2026-01-30 23:14:10,737334,-1385.000,-2781.000,6987.000,-284.000,634.000,233.000,0.000,0.000,0
2026-01-30 23:14:10,737374,-2212.000,-4519.000,7262.000,-448.000,961.000,339.000,0.000,0.000,0
2026-01-30 23:14:10,737414,-1832.000,-4024.000,7133.000,-377.000,-260.000,1.000,0.000,0.000,0
2026-01-30 23:14:10,737454,-1902.000,-4315.000,6938.000,-458.000,-116.000,13.000,0.000,0.000,0
2026-01-30 23:14:10,737494,-1702.000,-4190.000,6747.000,-937.000,109.000,305.000,0.000,0.000,0
2026-01-30 23:14:10,737534,-1661.000,-4874.000,6802.000,-560.000,-501.000,-87.000,0.000,0.000,0
2026-01-30 23:14:10,737574,-1056.000,-4094.000,6989.000,-390.000,-728.000,-83.000,0.000,0.000,0
2026-01-30 23:14:10,737614,-1488.000,-4879.000,6617.000,-989.000,21.000,231.000,0.000,0.000,0
2026-01-30 23:14:10,737654,-1943.000,-4948.000,6814.000,-299.000,-251.000,156.000,0.000,0.000,0
2026-01-30 23:14:10,737694,-1498.000,-4935.000,7043.000,-274.000,-448.000,-25.000,0.000,0.000,0
2026-01-30 23:14:10,737734,-1690.000,-4536.000,7108.000,-123.000,-235.000,45.000,0.000,0.000,0
2026-01-30 23:14:10,737774,-940.000,-5771.000,6959.000,-160.000,-290.000,63.000,0.000,0.000,0
2026-01-30 23:14:10,737814,-1389.000,-4600.000,7338.000,458.000,-247.000,194.000,0.000,0.000,0
2026-01-30 23:14:10,737854,-1817.000,-4995.000,7135.000,472.000,225.000,-18.000,0.000,0.000,0
2026-01-30 23:14:10,737894,-1395.000,-4090.000,7024.000,1153.000,-105.000,-105.000,0.000,0.000,0
2026-01-30 23:14:10,737934,-1938.000,-3991.000,7339.000,850.000,380.000,265.000,0.000,0.000,0
2026-01-30 23:14:10,737974,-1754.000,-3804.000,7416.000,534.000,557.000,331.000,0.000,0.000,0
2026-01-30 23:14:10,738014,-1965.000,-3926.000,7275.000,235.000,323.000,161.000,0.000,0.000,0
2026-01-30 23:14:10,738054,-2263.000,-3949.000,7202.000,266.000,131.000,-214.000,0.000,0.000,0
2026-01-30 23:14:10,738094,-1950.000,-3472.000,6886.000,157.000,230.000,-109.000,0.000,0.000,0
2026-01-30 23:14:11,738134,-1831.000,-3689.000,7053.000,-128.000,147.000,-28.000,0.000,0.000,0
2026-01-30 23:14:11,738174,-1962.000,-3722.000,7126.000,-257.000,81.000,-26.000,0.000,0.000,0
2026-01-30 23:14:11,738214,-1779.000,-4573.000,6730.000,-1127.000,165.000,76.000,0.000,0.000,0
2026-01-30 23:14:11,738254,-2312.000,-4507.000,6997.000,-1066.000,135.000,426.000,0.000,0.000,0
2026-01-30 23:14:11,738294,-1830.000,-4826.000,6868.000,-1322.000,-423.000,388.000,0.000,0.000,0
2026-01-30 23:14:11,738334,-1860.000,-5265.000,6715.000,-975.000,-699.000,57.000,0.000,0.000,0
2026-01-30 23:14:11,738376,-1478.000,-5319.000,6752.000,-365.000,-677.000,182.000,0.000,0.000,0
2026-01-30 23:14:11,738415,-1186.000,-5063.000,6677.000,-210.000,-998.000,-75.000,0.000,0.000,0
2026-01-30 23:14:11,738455,-1895.000,-4237.000,6510.000,285.000,-985.000,-510.000,0.000,0.000,0
2026-01-30 23:14:11,738494,-1531.000,-4660.000,6389.000,129.000,-565.000,-481.000,0.000,0.000,0
2026-01-30 23:14:11,738534,-1447.000,-4510.000,6631.000,1325.000,-381.000,-139.000,0.000,0.000,0
2026-01-30 23:14:11,738574,-1576.000,-5135.000,7513.000,1646.000,203.000,-3.000,0.000,0.000,0
2026-01-30 23:14:11,738614,-1474.000,-3972.000,7172.000,1134.000,488.000,73.000,0.000,0.000,0
2026-01-30 23:14:11,738657,-1462.000,-4591.000,7305.000,211.000,325.000,-31.000,0.000,0.000,0
2026-01-30 23:14:11,738695,-1798.000,-4240.000,6914.000,144.000,-178.000,-330.000,0.000,0.000,0
2026-01-30 23:14:11,738734,-1760.000,-3493.000,7169.000,688.000,-135.000,-453.000,0.000,0.000,0
2026-01-30 23:14:11,738774,-1274.000,-3523.000,7127.000,271.000,-67.000,-403.000,0.000,0.000,0
2026-01-30 23:14:11,738814,-1211.000,-3883.000,6992.000,-58.000,49.000,-272.000,0.000,0.000,0
2026-01-30 23:14:11,738854,-1431.000,-4132.000,6682.000,-148.000,-474.000,-781.000,0.000,0.000,0
2026-01-30 23:14:11,738894,-1890.000,-3465.000,7037.000,263.000,-174.000,-838.000,0.000,0.000,0
2026-01-30 23:14:11,738934,-897.000,-3629.000,7183.000,-87.000,-370.000,-283.000,0.000,0.000,0
2026-01-30 23:14:11,738974,-1210.000,-3935.000,7300.000,-783.000,34.000,162.000,0.000,0.000,0
2026-01-30 23:14:11,739014,-1672.000,-3929.000,6603.000,16.000,152.000,351.000,0.000,0.000,0
2026-01-30 23:14:11,739054,-1650.000,-4872.000,7512.000,-914.000,286.000,162.000,0.000,0.000,0
2026-01-30 23:14:11,739094,-987.000,-4392.000,7217.000,-952.000,-443.000,29.000,0.000,0.000,0
2026-01-30 23:14:12,739134,-564.000,-4857.000,6853.000,-1010.000,-335.000,36.000,0.000,0.000,0
2026-01-30 23:14:12,739174,-1621.000,-4246.000,7171.000,-395.000,352.000,597.000,0.000,0.000,0
2026-01-30 23:14:12,739214,-2481.000,-5247.000,7084.000,-103.000,458.000,527.000,0.000,0.000,0
2026-01-30 23:14:12,739254,-1562.000,-4525.000,7115.000,825.000,-549.000,-373.000,0.000,0.000,0
2026-01-30 23:14:12,739294,-761.000,-4633.000,7440.000,1623.000,-755.000,-905.000,0.000,0.000,0
2026-01-30 23:14:12,739334,-177.000,-3581.000,6964.000,1381.000,-713.000,-772.000,0.000,0.000,0
2026-01-30 23:14:12,739374,-1167.000,-3784.000,7398.000,561.000,-116.000,-467.000,0.000,0.000,0
2026-01-30 23:14:12,739414,-814.000,-3177.000,7392.000,651.000,122.000,-121.000,0.000,0.000,0
2026-01-30 23:14:12,739454,-938.000,-3880.000,7176.000,-325.000,511.000,277.000,0.000,0.000,0
2026-01-30 23:14:12,739494,-1555.000,-4106.000,7854.000,-139.000,396.000,414.000,0.000,0.000,0
2026-01-30 23:14:12,739534,-1393.000,-4151.000,7043.000,-688.000,317.000,165.000,0.000,0.000,0
2026-01-30 23:14:12,739574,-1442.000,-4305.000,7151.000,-655.000,-132.000,107.000,0.000,0.000,0
2026-01-30 23:14:12,739614,-1368.000,-4057.000,6973.000,-813.000,-149.000,116.000,0.000,0.000,0
2026-01-30 23:14:12,739654,-944.000,-4689.000,6781.000,-827.000,61.000,61.000,0.000,0.000,0
2026-01-30 23:14:12,739694,-543.000,-4240.000,6982.000,-421.000,-192.000,273.000,0.000,0.000,0
2026-01-30 23:14:12,739734,-1061.000,-4207.000,6855.000,-379.000,-19.000,95.000,0.000,0.000,0
2026-01-30 23:14:12,739774,-1296.000,-5155.000,7165.000,-143.000,-147.000,267.000,0.000,0.000,0
2026-01-30 23:14:12,739814,-898.000,-4443.000,7261.000,-113.000,-287.000,90.000,0.000,0.000,0
2026-01-30 23:14:12,739854,-1518.000,-5695.000,7083.000,-536.000,695.000,252.000,0.000,0.000,0
2026-01-30 23:14:12,739894,-1170.000,-4177.000,7197.000,661.000,140.000,450.000,0.000,0.000,0
2026-01-30 23:14:12,739934,-2216.000,-3872.000,7248.000,594.000,193.000,126.000,0.000,0.000,0
2026-01-30 23:14:12,739974,-1670.000,-4449.000,7138.000,323.000,-192.000,-372.000,0.000,0.000,0
2026-01-30 23:14:12,740014,-1417.000,-3730.000,7169.000,888.000,-477.000,-389.000,0.000,0.000,0
2026-01-30 23:14:12,740054,-1086.000,-3772.000,7537.000,-15.000,33.000,-135.000,0.000,0.000,0
2026-01-30 23:14:12,740094,-1192.000,-4904.000,6853.000,-395.000,327.000,-12.000,0.000,0.000,0
2026-01-30 23:14:13,740134,-1787.000,-3933.000,6730.000,-318.000,187.000,282.000,0.000,0.000,0
2026-01-30 23:14:13,740174,-1509.000,-4205.000,6173.000,-570.000,-268.000,107.000,0.000,0.000,0
2026-01-30 23:14:13,740214,-1207.000,-4189.000,6831.000,-332.000,-808.000,-67.000,0.000,0.000,0
2026-01-30 23:14:13,740254,-1195.000,-3662.000,7085.000,-247.000,-414.000,-60.000,0.000,0.000,0
2026-01-30 23:14:13,740294,-896.000,-4277.000,6765.000,-721.000,-27.000,297.000,0.000,0.000,0
2026-01-30 23:14:13,740334,-1041.000,-4288.000,6566.000,-600.000,-22.000,401.000,0.000,0.000,0
2026-01-30 23:14:13,740376,-1221.000,-4735.000,6316.000,-657.000,-415.000,189.000,0.000,0.000,0
2026-01-30 23:14:13,740414,-2192.000,-4847.000,6851.000,-480.000,-236.000,238.000,0.000,0.000,0
2026-01-30 23:14:13,740454,-2327.000,-5097.000,6998.000,-278.000,117.000,277.000,0.000,0.000,0
2026-01-30 23:14:13,740494,-859.000,-5301.000,7137.000,476.000,-324.000,213.000,0.000,0.000,0
2026-01-30 23:14:13,740534,-1389.000,-4842.000,7083.000,250.000,269.000,108.000,0.000,0.000,0
2026-01-30 23:14:13,740574,-2040.000,-5100.000,6937.000,520.000,383.000,-10.000,0.000,0.000,0
2026-01-30 23:14:13,740614,-1823.000,-4290.000,7128.000,770.000,-336.000,-444.000,0.000,0.000,0
2026-01-30 23:14:13,740655,-1356.000,-4180.000,7288.000,685.000,-989.000,-1270.000,0.000,0.000,0
2026-01-30 23:14:13,740694,-1220.000,-4222.000,7446.000,242.000,-534.000,-1369.000,0.000,0.000,0
2026-01-30 23:14:13,740734,-1836.000,-4275.000,7277.000,-1736.000,-28.000,-766.000,0.000,0.000,0
2026-01-30 23:14:13,740774,-1517.000,-4182.000,7320.000,-2351.000,-871.000,-793.000,0.000,0.000,0
2026-01-30 23:14:13,740814,-1632.000,-5118.000,7356.000,-3126.000,-1100.000,-1226.000,0.000,0.000,0
2026-01-30 23:14:13,740854,-582.000,-4475.000,7152.000,-4038.000,-1615.000,-1788.000,0.000,0.000,0
2026-01-30 23:14:13,740894,-823.000,-5874.000,6028.000,-5048.000,-829.000,-2095.000,0.000,0.000,0
2026-01-30 23:14:13,740934,82.000,-5310.000,5518.000,-1555.000,-8.000,-2089.000,0.000,0.000,0
2026-01-30 23:14:13,740974,-494.000,-6266.000,5577.000,1509.000,650.000,-1533.000,0.000,0.000,0
2026-01-30 23:14:13,741014,568.000,-5437.000,6754.000,-257.000,711.000,-1077.000,0.000,0.000,0
2026-01-30 23:14:13,741054,-1158.000,-6840.000,5357.000,-1152.000,797.000,-1063.000,0.000,0.000,0
2026-01-30 23:14:13,741094,445.000,-7598.000,5356.000,113.000,-165.000,-1961.000,0.000,0.000,0
2026-01-30 23:14:14,741134,-278.000,-5233.000,5789.000,3448.000,-1135.000,-2500.000,0.000,0.000,0
2026-01-30 23:14:14,741174,865.000,-4822.000,5657.000,-277.000,-1645.000,-1512.000,0.000,0.000,0
2026-01-30 23:14:14,741214,1784.000,-7108.000,5491.000,-2837.000,-1135.000,-620.000,0.000,0.000,0
2026-01-30 23:14:14,741254,932.000,-6400.000,6456.000,1242.000,-205.000,-673.000,0.000,0.000,0
2026-01-30 23:14:14,741294,1047.000,-4988.000,6427.000,1946.000,-111.000,-465.000,0.000,0.000,0
2026-01-30 23:14:14,741334,1142.000,-5797.000,5856.000,-601.000,204.000,-99.000,0.000,0.000,0
2026-01-30 23:14:14,741374,-484.000,-4924.000,6444.000,967.000,521.000,-14.000,0.000,0.000,0
2026-01-30 23:14:14,741414,414.000,-4872.000,6337.000,207.000,302.000,-283.000,0.000,0.000,0
2026-01-30 23:14:14,741454,174.000,-5410.000,6241.000,215.000,-14.000,-414.000,0.000,0.000,0
2026-01-30 23:14:14,741494,-269.000,-5242.000,6744.000,1213.000,-357.000,-654.000,0.000,0.000,0
2026-01-30 23:14:14,741534,1036.000,-4975.000,6737.000,476.000,-621.000,-770.000,0.000,0.000,0
2026-01-30 23:14:14,741574,1174.000,-5755.000,6448.000,-1007.000,-534.000,-121.000,0.000,0.000,0
2026-01-30 23:14:14,741614,721.000,-6165.000,5691.000,767.000,285.000,-119.000,0.000,0.000,0
2026-01-30 23:14:14,741654,712.000,-5093.000,6146.000,1716.000,116.000,-718.000,0.000,0.000,0
2026-01-30 23:14:14,741694,961.000,-4785.000,6737.000,193.000,-202.000,-586.000,0.000,0.000,0
2026-01-30 23:14:14,741734,661.000,-5675.000,6412.000,-281.000,428.000,-538.000,0.000,0.000,0
2026-01-30 23:14:14,741774,1551.000,-5562.000,6309.000,970.000,-39.000,-455.000,0.000,0.000,0
2026-01-30 23:14:14,741814,939.000,-4925.000,6884.000,715.000,118.000,-82.000,0.000,0.000,0
2026-01-30 23:14:14,741854,723.000,-5560.000,6600.000,-264.000,338.000,416.000,0.000,0.000,0
2026-01-30 23:14:14,741894,835.000,-4470.000,7030.000,687.000,-217.000,553.000,0.000,0.000,0
2026-01-30 23:14:14,741934,560.000,-4679.000,7123.000,-26.000,-36.000,246.000,0.000,0.000,0
2026-01-30 23:14:14,741974,695.000,-4398.000,7455.000,936.000,-209.000,144.000,0.000,0.000,0
2026-01-30 23:14:14,742014,440.000,-4573.000,7389.000,871.000,188.000,35.000,0.000,0.000,0
2026-01-30 23:14:14,742054,544.000,-3998.000,7442.000,151.000,157.000,448.000,0.000,0.000,0
2026-01-30 23:14:14,742094,265.000,-4397.000,7268.000,-273.000,594.000,158.000,0.000,0.000,0
2026-01-30 23:14:15,742134,504.000,-4328.000,6791.000,581.000,815.000,184.000,0.000,0.000,0
2026-01-30 23:14:15,742174,1261.000,-4155.000,6549.000,-186.000,439.000,163.000,0.000,0.000,0
2026-01-30 23:14:15,742214,274.000,-4174.000,6837.000,-1.000,516.000,-452.000,0.000,0.000,0
2026-01-30 23:14:15,742254,877.000,-4851.000,6880.000,289.000,536.000,-704.000,0.000,0.000,0
2026-01-30 23:14:15,742294,1773.000,-4164.000,6773.000,-70.000,-92.000,-213.000,0.000,0.000,0
2026-01-30 23:14:15,742334,1022.000,-4988.000,6868.000,-1245.000,957.000,186.000,0.000,0.000,0
2026-01-30 23:14:15,742376,1081.000,-5149.000,7157.000,-1190.000,1020.000,309.000,0.000,0.000,0
2026-01-30 23:14:15,742416,-35.000,-5413.000,6502.000,-553.000,1284.000,23.000,0.000,0.000,0
2026-01-30 23:14:15,742454,-315.000,-5891.000,5982.000,745.000,988.000,265.000,0.000,0.000,0
2026-01-30 23:14:15,742494,-40.000,-5208.000,6453.000,934.000,323.000,556.000,0.000,0.000,0
2026-01-30 23:14:15,742534,-7.000,-4899.000,6540.000,-252.000,29.000,1684.000,0.000,0.000,0
2026-01-30 23:14:15,742574,-28.000,-5510.000,7097.000,-417.000,111.000,1215.000,0.000,0.000,0
2026-01-30 23:14:15,742614,-88.000,-3680.000,7421.000,394.000,208.000,950.000,0.000,0.000,0
2026-01-30 23:14:15,742657,727.000,-4003.000,7178.000,-337.000,276.000,1088.000,0.000,0.000,0
2026-01-30 23:14:15,742694,-10.000,-3958.000,6769.000,592.000,1038.000,334.000,0.000,0.000,0
2026-01-30 23:14:15,742734,-470.000,-3880.000,7052.000,1371.000,1194.000,-122.000,0.000,0.000,0
2026-01-30 23:14:15,742774,-132.000,-4217.000,7211.000,793.000,1029.000,-555.000,0.000,0.000,0
2026-01-30 23:14:15,742814,-25.000,-3630.000,7162.000,1211.000,1065.000,-550.000,0.000,0.000,0
2026-01-30 23:14:15,742854,536.000,-3890.000,6679.000,295.000,1387.000,-467.000,0.000,0.000,0
2026-01-30 23:14:15,742894,-999.000,-4572.000,6824.000,773.000,1798.000,-805.000,0.000,0.000,0
2026-01-30 23:14:15,742934,772.000,-4485.000,6240.000,886.000,1382.000,-322.000,0.000,0.000,0
2026-01-30 23:14:15,742974,-2065.000,-7457.000,7303.000,-2750.000,3423.000,1765.000,0.000,0.000,0
2026-01-30 23:14:15,743014,-285.000,-5099.000,6525.000,395.000,943.000,967.000,0.000,0.000,0
2026-01-30 23:14:15,743054,-732.000,-4887.000,6532.000,889.000,1276.000,483.000,0.000,0.000,0
2026-01-30 23:14:15,743094,-1026.000,-3356.000,6664.000,1648.000,-144.000,1544.000,0.000,0.000,0
2026-01-30 23:14:16,743134,-553.000,-5268.000,6595.000,-1406.000,102.000,1674.000,0.000,0.000,0
2026-01-30 23:14:16,743174,-2888.000,-3788.000,6471.000,3323.000,-171.000,1385.000,0.000,0.000,0
2026-01-30 23:14:16,743214,-2193.000,-2845.000,6676.000,2832.000,-670.000,913.000,0.000,0.000,0
2026-01-30 23:14:16,743254,-3361.000,-1602.000,6422.000,1322.000,-1953.000,1038.000,0.000,0.000,0
2026-01-30 23:14:16,743294,-1482.000,-4096.000,5888.000,-202.000,-3230.000,1112.000,0.000,0.000,0
2026-01-30 23:14:16,743334,-3543.000,-1873.000,7736.000,3292.000,-3535.000,-112.000,0.000,0.000,0
2026-01-30 23:14:16,743374,-1153.000,-2785.000,7417.000,1101.000,-4765.000,1057.000,0.000,0.000,0
2026-01-30 23:14:16,743414,307.000,-3887.000,7212.000,2841.000,-4158.000,643.000,0.000,0.000,0
2026-01-30 23:14:16,743454,63.000,-2355.000,8402.000,5482.000,-2973.000,569.000,0.000,0.000,0
2026-01-30 23:14:16,743494,-261.000,-1391.000,9583.000,3643.000,-2604.000,1252.000,0.000,0.000,0
2026-01-30 23:14:16,743534,836.000,-3279.000,9033.000,3955.000,-2891.000,1630.000,0.000,0.000,0
2026-01-30 23:14:16,743574,-280.000,-2998.000,9199.000,5112.000,-1257.000,2213.000,0.000,0.000,0
2026-01-30 23:14:16,743614,-1003.000,-878.000,8448.000,4115.000,-2340.000,2846.000,0.000,0.000,0
2026-01-30 23:14:16,743654,-7.000,-1723.000,8232.000,1003.000,-3323.000,3153.000,0.000,0.000,0
2026-01-30 23:14:16,743694,-146.000,-103.000,8476.000,2584.000,-3627.000,2509.000,0.000,0.000,0
2026-01-30 23:14:16,743734,2320.000,2505.000,9376.000,-173.000,-3672.000,2114.000,0.000,0.000,0
2026-01-30 23:14:16,743774,1128.000,51.000,8261.000,-1631.000,-1704.000,875.000,0.000,0.000,0
2026-01-30 23:14:16,743814,2496.000,420.000,9472.000,1072.000,-1516.000,230.000,0.000,0.000,0
2026-01-30 23:14:16,743854,2248.000,-62.000,8747.000,329.000,-498.000,219.000,0.000,0.000,0
2026-01-30 23:14:16,743894,2261.000,-547.000,7946.000,1239.000,-991.000,118.000,0.000,0.000,0
2026-01-30 23:14:16,743934,3155.000,8.000,9004.000,703.000,-1145.000,-415.000,0.000,0.000,0
2026-01-30 23:14:16,743974,2154.000,-718.000,7881.000,1256.000,-532.000,-465.000,0.000,0.000,0
2026-01-30 23:14:16,744014,1912.000,-415.000,7059.000,2800.000,-646.000,-87.000,0.000,0.000,0
2026-01-30 23:14:16,744054,2505.000,720.000,7533.000,3930.000,-1078.000,104.000,0.000,0.000,0
2026-01-30 23:14:16,744094,3040.000,3288.000,9211.000,2514.000,-537.000,-209.000,0.000,0.000,0
2026-01-30 23:14:17,744134,3143.000,1550.000,9580.000,-885.000,-108.000,-89.000,0.000,0.000,0
2026-01-30 23:14:17,744174,3589.000,54.000,8644.000,-876.000,-445.000,-64.000,0.000,0.000,0
2026-01-30 23:14:17,744214,3506.000,-337.000,7632.000,121.000,-336.000,-49.000,0.000,0.000,0
2026-01-30 23:14:17,744254,3320.000,396.000,7775.000,1058.000,-101.000,159.000,0.000,0.000,0
2026-01-30 23:14:17,744294,2742.000,1065.000,7801.000,1497.000,176.000,109.000,0.000,0.000,0
2026-01-30 23:14:17,744334,2611.000,998.000,8216.000,1072.000,373.000,65.000,0.000,0.000,0
2026-01-30 23:14:17,744376,2259.000,325.000,7833.000,591.000,477.000,19.000,0.000,0.000,0
2026-01-30 23:14:17,744414,2432.000,1956.000,8160.000,1823.000,287.000,-23.000,0.000,0.000,0
2026-01-30 23:14:17,744454,2621.000,1346.000,7952.000,-815.000,138.000,203.000,0.000,0.000,0
2026-01-30 23:14:17,744494,2434.000,893.000,7344.000,-299.000,-268.000,4.000,0.000,0.000,0
2026-01-30 23:14:17,744534,2792.000,794.000,7949.000,-369.000,-105.000,-143.000,0.000,0.000,0
2026-01-30 23:14:17,744574,2742.000,928.000,8204.000,305.000,174.000,-136.000,0.000,0.000,0
2026-01-30 23:14:17,744614,2638.000,966.000,7882.000,562.000,210.000,-11.000,0.000,0.000,0
2026-01-30 23:14:17,744656,2562.000,1085.000,7657.000,479.000,73.000,10.000,0.000,0.000,0
2026-01-30 23:14:17,744694,2466.000,1442.000,7865.000,56.000,-156.000,79.000,0.000,0.000,0
2026-01-30 23:14:17,744734,2649.000,511.000,8061.000,-606.000,-58.000,119.000,0.000,0.000,0
2026-01-30 23:14:17,744774,2750.000,758.000,7852.000,203.000,-71.000,117.000,0.000,0.000,0
2026-01-30 23:14:17,744814,2651.000,1348.000,7956.000,257.000,-60.000,48.000,0.000,0.000,0
2026-01-30 23:14:17,744854,2625.000,964.000,7969.000,-526.000,-99.000,110.000,0.000,0.000,0
2026-01-30 23:14:17,744894,2527.000,470.000,7872.000,-286.000,-24.000,133.000,0.000,0.000,0
2026-01-30 23:14:17,744934,2754.000,619.000,8286.000,-146.000,43.000,110.000,0.000,0.000,0
2026-01-30 23:14:17,744974,2867.000,966.000,8407.000,188.000,108.000,85.000,0.000,0.000,0
2026-01-30 23:14:17,745014,2633.000,1099.000,7672.000,267.000,42.000,14.000,0.000,0.000,0
2026-01-30 23:14:17,745054,2464.000,1214.000,7766.000,-18.000,-72.000,-88.000,0.000,0.000,0
2026-01-30 23:14:17,745094,2690.000,907.000,7847.000,-503.000,-118.000,-60.000,0.000,0.000,0
2026-01-30 23:14:18,745134,2549.000,801.000,7729.000,201.000,289.000,-213.000,0.000,0.000,0
2026-01-30 23:14:18,745174,2583.000,1341.000,8136.000,64.000,182.000,-165.000,0.000,0.000,0
2026-01-30 23:14:18,745214,2648.000,962.000,7844.000,-417.000,162.000,-87.000,0.000,0.000,0
2026-01-30 23:14:18,745254,2176.000,1171.000,6981.000,657.000,56.000,-80.000,0.000,0.000,0
2026-01-30 23:14:18,745294,2873.000,2244.000,8606.000,-637.000,24.000,-224.000,0.000,0.000,0
2026-01-30 23:14:18,745334,2572.000,89.000,7978.000,-853.000,370.000,-11.000,0.000,0.000,0
2026-01-30 23:14:18,745374,2781.000,1523.000,7677.000,1023.000,75.000,8.000,0.000,0.000,0
2026-01-30 23:14:18,745414,2656.000,1443.000,7800.000,-247.000,97.000,-105.000,0.000,0.000,0
2026-01-30 23:14:18,745454,2780.000,1403.000,7903.000,-271.000,-119.000,-146.000,0.000,0.000,0
2026-01-30 23:14:18,745494,2684.000,1141.000,7776.000,57.000,206.000,-160.000,0.000,0.000,0
2026-01-30 23:14:18,745534,2563.000,1503.000,7562.000,306.000,83.000,-83.000,0.000,0.000,0
2026-01-30 23:14:18,745574,2579.000,1655.000,7616.000,22.000,-33.000,-37.000,0.000,0.000,0
2026-01-30 23:14:18,745614,2514.000,1440.000,7816.000,-180.000,17.000,-36.000,0.000,0.000,0
2026-01-30 23:14:18,745654,2503.000,1218.000,7920.000,50.000,118.000,31.000,0.000,0.000,0
2026-01-30 23:14:18,745694,2423.000,1500.000,7467.000,509.000,68.000,89.000,0.000,0.000,0
2026-01-30 23:14:18,745734,2492.000,2008.000,7598.000,182.000,-57.000,27.000,0.000,0.000,0
2026-01-30 23:14:18,745774,2664.000,1357.000,7748.000,-491.000,15.000,-132.000,0.000,0.000,0
2026-01-30 23:14:18,745814,2578.000,1297.000,7488.000,238.000,22.000,-42.000,0.000,0.000,0
2026-01-30 23:14:18,745854,2682.000,1618.000,7722.000,88.000,35.000,-66.000,0.000,0.000,0
2026-01-30 23:14:18,745894,2858.000,1373.000,8031.000,-570.000,6.000,-25.000,0.000,0.000,0
2026-01-30 23:14:18,745934,2869.000,1170.000,8064.000,-3.000,125.000,43.000,0.000,0.000,0
2026-01-30 23:14:18,745974,2766.000,1754.000,7941.000,367.000,101.000,144.000,0.000,0.000,0
2026-01-30 23:14:18,746014,2709.000,1493.000,8065.000,-274.000,71.000,194.000,0.000,0.000,0
2026-01-30 23:14:18,746054,2329.000,1042.000,7597.000,-25.000,6.000,224.000,0.000,0.000,0
2026-01-30 23:14:18,746094,2343.000,1633.000,8070.000,63.000,-104.000,175.000,0.000,0.000,0
2026-01-30 23:14:19,746134,2502.000,1214.000,8291.000,-317.000,10.000,121.000,0.000,0.000,0
2026-01-30 23:14:19,746174,2476.000,1136.000,7657.000,521.000,86.000,99.000,0.000,0.000,0
2026-01-30 23:14:19,746214,2406.000,1862.000,7086.000,629.000,-103.000,-9.000,0.000,0.000,0
2026-01-30 23:14:19,746254,2399.000,1714.000,7305.000,50.000,-179.000,-201.000,0.000,0.000,0
2026-01-30 23:14:19,746294,2672.000,1131.000,7948.000,-268.000,139.000,-207.000,0.000,0.000,0
2026-01-30 23:14:19,746334,2659.000,1424.000,7619.000,551.000,328.000,-134.000,0.000,0.000,0
2026-01-30 23:14:19,746374,2736.000,1819.000,7845.000,108.000,219.000,-91.000,0.000,0.000,0
2026-01-30 23:14:19,746414,2610.000,1608.000,7808.000,-114.000,19.000,31.000,0.000,0.000,0
2026-01-30 23:14:19,746456,2554.000,1208.000,7863.000,-263.000,42.000,94.000,0.000,0.000,0
2026-01-30 23:14:19,746496,2550.000,1443.000,8079.000,47.000,25.000,124.000,0.000,0.000,0
2026-01-30 23:14:19,746534,2566.000,1500.000,8236.000,-38.000,69.000,107.000,0.000,0.000,0
2026-01-30 23:14:19,746574,2603.000,1492.000,8318.000,50.000,95.000,56.000,0.000,0.000,0
2026-01-30 23:14:19,746614,2582.000,1453.000,7391.000,105.000,-206.000,36.000,0.000,0.000,0
2026-01-30 23:14:19,746656,2513.000,1535.000,7562.000,-313.000,-216.000,-51.000,0.000,0.000,0
2026-01-30 23:14:19,746694,2590.000,1290.000,8252.000,-505.000,87.000,-143.000,0.000,0.000,0
2026-01-30 23:14:19,746734,2438.000,1012.000,7887.000,427.000,367.000,-54.000,0.000,0.000,0
2026-01-30 23:14:19,746774,2524.000,2100.000,7901.000,628.000,172.000,76.000,0.000,0.000,0
2026-01-30 23:14:19,746814,2489.000,1041.000,7740.000,-709.000,-73.000,230.000,0.000,0.000,0
2026-01-30 23:14:19,746854,2548.000,531.000,7788.000,-591.000,-180.000,262.000,0.000,0.000,0
2026-01-30 23:14:19,746894,2402.000,851.000,8207.000,-35.000,37.000,201.000,0.000,0.000,0
2026-01-30 23:14:19,746934,2263.000,986.000,8264.000,121.000,63.000,246.000,0.000,0.000,0
2026-01-30 23:14:19,746974,2553.000,1128.000,8547.000,-129.000,-42.000,315.000,0.000,0.000,0
2026-01-30 23:14:19,747014,2368.000,1004.000,7471.000,270.000,-332.000,319.000,0.000,0.000,0
2026-01-30 23:14:19,747054,2485.000,906.000,7770.000,-734.000,-379.000,154.000,0.000,0.000,0
2026-01-30 23:14:19,747094,2527.000,289.000,7787.000,-578.000,-184.000,12.000,0.000,0.000,0
2026-01-30 23:14:20,747134,2818.000,839.000,8306.000,32.000,24.000,-56.000,0.000,0.000,0
2026-01-30 23:14:20,747174,2743.000,526.000,8095.000,-10.000,211.000,-85.000,0.000,0.000,0
2026-01-30 23:14:20,747214,2794.000,671.000,8049.000,60.000,-57.000,-1.000,0.000,0.000,0
2026-01-30 23:14:20,747254,2921.000,468.000,8291.000,-467.000,-93.000,5.000,0.000,0.000,0
2026-01-30 23:14:20,747294,2300.000,321.000,7125.000,311.000,-72.000,-3.000,0.000,0.000,0
2026-01-30 23:14:20,747334,2437.000,1315.000,8145.000,-141.000,-232.000,-34.000,0.000,0.000,0
2026-01-30 23:14:20,747374,2601.000,-19.000,8403.000,-670.000,258.000,26.000,0.000,0.000,0
2026-01-30 23:14:20,747414,2533.000,1141.000,7628.000,1022.000,85.000,185.000,0.000,0.000,0
2026-01-30 23:14:20,747454,2417.000,863.000,7656.000,-394.000,-235.000,94.000,0.000,0.000,0
2026-01-30 23:14:20,747494,2556.000,-9.000,8311.000,-791.000,-225.000,46.000,0.000,0.000,0
2026-01-30 23:14:20,747534,2440.000,338.000,8486.000,197.000,39.000,31.000,0.000,0.000,0
2026-01-30 23:14:20,747574,2459.000,519.000,8306.000,206.000,102.000,-1.000,0.000,0.000,0
2026-01-30 23:14:20,747614,2652.000,392.000,7644.000,68.000,-243.000,41.000,0.000,0.000,0
2026-01-30 23:14:20,747654,2778.000,894.000,7850.000,-174.000,-437.000,2.000,0.000,0.000,0
2026-01-30 23:14:20,747694,2860.000,96.000,8492.000,-649.000,-43.000,-50.000,0.000,0.000,0
2026-01-30 23:14:20,747734,2551.000,233.000,7759.000,595.000,113.000,-26.000,0.000,0.000,0
2026-01-30 23:14:20,747774,2640.000,1187.000,7917.000,86.000,-131.000,-91.000,0.000,0.000,0
2026-01-30 23:14:20,747814,2694.000,351.000,8178.000,-301.000,52.000,-190.000,0.000,0.000,0
2026-01-30 23:14:20,747854,2539.000,754.000,7459.000,712.000,149.000,-173.000,0.000,0.000,0
2026-01-30 23:14:20,747894,2490.000,1396.000,7326.000,447.000,-63.000,-187.000,0.000,0.000,0
2026-01-30 23:14:20,747934,2615.000,844.000,7760.000,-654.000,-31.000,-259.000,0.000,0.000,0
2026-01-30 23:14:20,747974,2646.000,647.000,7998.000,89.000,239.000,-252.000,0.000,0.000,0
2026-01-30 23:14:20,748014,2634.000,1161.000,7746.000,522.000,287.000,-192.000,0.000,0.000,0
2026-01-30 23:14:20,748054,2868.000,1511.000,7828.000,113.000,106.000,-60.000,0.000,0.000,0
2026-01-30 23:14:20,748094,3009.000,912.000,8372.000,-499.000,86.000,-5.000,0.000,0.000,0
2026-01-30 23:14:21,748134,2738.000,662.000,7419.000,63.000,124.000,28.000,0.000,0.000,0
2026-01-30 23:14:21,748174,2480.000,1396.000,7433.000,117.000,-238.000,159.000,0.000,0.000,0
2026-01-30 23:14:21,748214,2705.000,663.000,8412.000,-1075.000,-185.000,177.000,0.000,0.000,0
2026-01-30 23:14:21,748254,2597.000,185.000,8345.000,227.000,286.000,173.000,0.000,0.000,0
2026-01-30 23:14:21,748294,2552.000,1344.000,7871.000,973.000,183.000,223.000,0.000,0.000,0
2026-01-30 23:14:21,748334,2674.000,1168.000,7763.000,-297.000,-128.000,188.000,0.000,0.000,0
2026-01-30 23:14:21,748374,2623.000,323.000,7607.000,-665.000,-243.000,134.000,0.000,0.000,0
2026-01-30 23:14:21,748414,2589.000,688.000,8079.000,-193.000,-135.000,43.000,0.000,0.000,0
2026-01-30 23:14:21,748456,2509.000,574.000,8332.000,81.000,197.000,42.000,0.000,0.000,0
2026-01-30 23:14:21,748494,2621.000,1186.000,8205.000,560.000,215.000,27.000,0.000,0.000,0
2026-01-30 23:14:21,748534,2370.000,1310.000,7504.000,304.000,4.000,-47.000,0.000,0.000,0
2026-01-30 23:14:21,748574,2412.000,896.000,7395.000,-440.000,-195.000,-70.000,0.000,0.000,0
2026-01-30 23:14:21,748614,2638.000,379.000,8110.000,-497.000,-1.000,-112.000,0.000,0.000,0
2026-01-30 23:14:21,748656,2653.000,588.000,8262.000,180.000,233.000,-37.000,0.000,0.000,0
2026-01-30 23:14:21,748694,2437.000,967.000,7746.000,584.000,152.000,44.000,0.000,0.000,0
2026-01-30 23:14:21,748734,2585.000,1234.000,7570.000,70.000,-214.000,35.000,0.000,0.000,0
2026-01-30 23:14:21,748774,2717.000,815.000,7679.000,-487.000,-287.000,22.000,0.000,0.000,0
2026-01-30 23:14:21,748814,2712.000,698.000,7725.000,-257.000,-57.000,-32.000,0.000,0.000,0
2026-01-30 23:14:21,748854,2642.000,350.000,7985.000,-252.000,113.000,30.000,0.000,0.000,0
2026-01-30 23:14:21,748894,2714.000,672.000,7851.000,170.000,-41.000,161.000,0.000,0.000,0
2026-01-30 23:14:21,748934,2601.000,507.000,8266.000,-120.000,32.000,200.000,0.000,0.000,0
2026-01-30 23:14:21,748974,2560.000,652.000,7992.000,290.000,29.000,175.000,0.000,0.000,0
2026-01-30 23:14:21,749014,2489.000,850.000,7733.000,244.000,-55.000,105.000,0.000,0.000,0
2026-01-30 23:14:21,749054,2469.000,885.000,7853.000,-86.000,-116.000,-24.000,0.000,0.000,0
2026-01-30 23:14:21,749094,2460.000,558.000,7894.000,-136.000,-37.000,-109.000,0.000,0.000,0
2026-01-30 23:14:22,749134,2387.000,1333.000,7930.000,504.000,74.000,-255.000,0.000,0.000,0
2026-01-30 23:14:22,749174,2546.000,1308.000,7649.000,0.000,239.000,-355.000,0.000,0.000,0
2026-01-30 23:14:22,749214,2735.000,1342.000,7880.000,41.000,155.000,-245.000,0.000,0.000,0
2026-01-30 23:14:22,749254,3055.000,497.000,8206.000,-891.000,149.000,-45.000,0.000,0.000,0
2026-01-30 23:14:22,749294,2780.000,446.000,7687.000,29.000,-99.000,209.000,0.000,0.000,0
2026-01-30 23:14:22,749334,2941.000,1247.000,9340.000,-428.000,-83.000,136.000,0.000,0.000,0
2026-01-30 23:14:22,749374,2280.000,-159.000,8249.000,246.000,153.000,363.000,0.000,0.000,0
2026-01-30 23:14:22,749414,2416.000,1451.000,7612.000,1109.000,-284.000,448.000,0.000,0.000,0
2026-01-30 23:14:22,749454,2341.000,498.000,7032.000,-668.000,-396.000,290.000,0.000,0.000,0
2026-01-30 23:14:22,749494,2168.000,469.000,6525.000,-247.000,-586.000,-12.000,0.000,0.000,0
2026-01-30 23:14:22,749534,2415.000,1033.000,7567.000,-780.000,-257.000,-285.000,0.000,0.000,0
2026-01-30 23:14:22,749574,2442.000,184.000,8029.000,-320.000,489.000,-302.000,0.000,0.000,0
2026-01-30 23:14:22,749614,2593.000,703.000,7748.000,848.000,573.000,-51.000,0.000,0.000,0
2026-01-30 23:14:22,749654,2836.000,1145.000,8090.000,217.000,364.000,173.000,0.000,0.000,0
2026-01-30 23:14:22,749694,2736.000,-45.000,8542.000,-343.000,210.000,234.000,0.000,0.000,0
2026-01-30 23:14:22,749734,2536.000,311.000,8438.000,276.000,73.000,229.000,0.000,0.000,0
2026-01-30 23:14:22,749774,2400.000,560.000,8600.000,44.000,-60.000,166.000,0.000,0.000,0
2026-01-30 23:14:22,749814,2488.000,329.000,8419.000,-178.000,-127.000,70.000,0.000,0.000,0
2026-01-30 23:14:22,749854,2306.000,507.000,7829.000,356.000,-174.000,-1.000,0.000,0.000,0
2026-01-30 23:14:22,749894,2503.000,1076.000,7938.000,16.000,-304.000,-84.000,0.000,0.000,0
2026-01-30 23:14:22,749934,2678.000,430.000,8173.000,-383.000,-50.000,-173.000,0.000,0.000,0
2026-01-30 23:14:22,749974,2427.000,603.000,7615.000,509.000,115.000,-200.000,0.000,0.000,0
2026-01-30 23:14:22,750014,2381.000,1114.000,7498.000,273.000,-35.000,-235.000,0.000,0.000,0
2026-01-30 23:14:22,750054,2493.000,777.000,7735.000,-279.000,-135.000,-282.000,0.000,0.000,0
2026-01-30 23:14:22,750094,2705.000,770.000,8434.000,-110.000,180.000,-277.000,0.000,0.000,0
2026-01-30 23:14:23,750134,2456.000,951.000,7621.000,718.000,335.000,-198.000,0.000,0.000,0
2026-01-30 23:14:23,750174,2383.000,1615.000,7359.000,615.000,0.000,-107.000,0.000,0.000,0
2026-01-30 23:14:23,750214,2607.000,1418.000,8150.000,-634.000,-244.000,-103.000,0.000,0.000,0
2026-01-30 23:14:23,750254,2743.000,288.000,8269.000,-564.000,44.000,-105.000,0.000,0.000,0
2026-01-30 23:14:23,750294,2629.000,1206.000,7969.000,747.000,96.000,-58.000,0.000,0.000,0
2026-01-30 23:14:23,750334,2733.000,1787.000,7917.000,70.000,-142.000,-85.000,0.000,0.000,0
2026-01-30 23:14:23,750374,2788.000,1255.000,7849.000,-318.000,-192.000,-153.000,0.000,0.000,0
2026-01-30 23:14:23,750414,2790.000,1014.000,7640.000,-243.000,-85.000,-182.000,0.000,0.000,0
2026-01-30 23:14:23,750454,2799.000,1531.000,7881.000,75.000,-99.000,-118.000,0.000,0.000,0
2026-01-30 23:14:23,750494,2782.000,1315.000,8275.000,-144.000,31.000,-34.000,0.000,0.000,0
2026-01-30 23:14:23,750534,2695.000,1084.000,8181.000,231.000,163.000,97.000,0.000,0.000,0
2026-01-30 23:14:23,750574,2686.000,1395.000,7778.000,423.000,71.000,83.000,0.000,0.000,0
2026-01-30 23:14:23,750614,2425.000,1314.000,7111.000,209.000,-216.000,26.000,0.000,0.000,0
2026-01-30 23:14:23,750656,2546.000,1678.000,7622.000,-408.000,-374.000,-126.000,0.000,0.000,0
2026-01-30 23:14:23,750694,2518.000,788.000,7812.000,-465.000,78.000,-172.000,0.000,0.000,0
2026-01-30 23:14:23,750734,2458.000,1397.000,7433.000,746.000,309.000,-88.000,0.000,0.000,0
2026-01-30 23:14:23,750774,2624.000,2001.000,7485.000,290.000,125.000,-44.000,0.000,0.000,0
2026-01-30 23:14:23,750814,2706.000,1193.000,7714.000,-361.000,49.000,-46.000,0.000,0.000,0
2026-01-30 23:14:23,750854,2711.000,1264.000,7855.000,-83.000,122.000,-7.000,0.000,0.000,0
2026-01-30 23:14:23,750894,2731.000,1554.000,8101.000,156.000,166.000,28.000,0.000,0.000,0
2026-01-30 23:14:23,750934,2761.000,1318.000,8175.000,-195.000,108.000,117.000,0.000,0.000,0
2026-01-30 23:14:23,750974,2753.000,1194.000,8050.000,-19.000,20.000,157.000,0.000,0.000,0
2026-01-30 23:14:23,751014,2551.000,1285.000,7855.000,45.000,-48.000,162.000,0.000,0.000,0
2026-01-30 23:14:23,751054,2594.000,1376.000,8038.000,-168.000,-60.000,90.000,0.000,0.000,0
2026-01-30 23:14:23,751094,2472.000,1222.000,8145.000,44.000,79.000,65.000,0.000,0.000,0
2026-01-30 23:14:24,751134,2469.000,1436.000,8191.000,202.000,163.000,14.000,0.000,0.000,0
2026-01-30 23:14:24,751174,2458.000,1399.000,7590.000,224.000,25.000,-12.000,0.000,0.000,0
2026-01-30 23:14:24,751214,2568.000,1391.000,7833.000,-225.000,-47.000,-142.000,0.000,0.000,0
2026-01-30 23:14:24,751254,2514.000,1131.000,7994.000,-119.000,180.000,-154.000,0.000,0.000,0
2026-01-30 23:14:24,751294,2461.000,1434.000,7626.000,384.000,136.000,-60.000,0.000,0.000,0
2026-01-30 23:14:24,751334,2533.000,1733.000,7852.000,6.000,24.000,-37.000,0.000,0.000,0
2026-01-30 23:14:24,751374,2555.000,1192.000,8108.000,-223.000,107.000,0.000,0.000,0.000,0
2026-01-30 23:14:24,751414,2503.000,1477.000,7918.000,224.000,99.000,71.000,0.000,0.000,0
2026-01-30 23:14:24,751454,2407.000,1381.000,7599.000,-8.000,-26.000,52.000,0.000,0.000,0
2026-01-30 23:14:24,751494,2421.000,1392.000,7698.000,-196.000,-196.000,-5.000,0.000,0.000,0
2026-01-30 23:14:24,751534,2644.000,1316.000,8425.000,-313.000,-50.000,-38.000,0.000,0.000,0
2026-01-30 23:14:24,751574,2511.000,1435.000,7851.000,243.000,185.000,51.000,0.000,0.000,0
2026-01-30 23:14:24,751614,2487.000,1667.000,7639.000,-16.000,-164.000,77.000,0.000,0.000,0
2026-01-30 23:14:24,751654,2450.000,1022.000,7712.000,-386.000,-124.000,-16.000,0.000,0.000,0
2026-01-30 23:14:24,751694,2575.000,1455.000,8048.000,24.000,14.000,-88.000,0.000,0.000,0
2026-01-30 23:14:24,751734,2575.000,1376.000,8079.000,153.000,243.000,-136.000,0.000,0.000,0
2026-01-30 23:14:24,751774,2549.000,1516.000,7654.000,229.000,58.000,-33.000,0.000,0.000,0
2026-01-30 23:14:24,751814,2681.000,1738.000,7880.000,-224.000,-160.000,-10.000,0.000,0.000,0
2026-01-30 23:14:24,751854,2569.000,976.000,8107.000,-441.000,74.000,10.000,0.000,0.000,0
2026-01-30 23:14:24,751894,2497.000,1438.000,8045.000,411.000,197.000,86.000,0.000,0.000,0
2026-01-30 23:14:24,751934,2574.000,1419.000,8029.000,-39.000,106.000,63.000,0.000,0.000,0
2026-01-30 23:14:24,751974,2483.000,1414.000,7668.000,13.000,-280.000,64.000,0.000,0.000,0
2026-01-30 23:14:24,752014,2606.000,1420.000,8623.000,-509.000,-103.000,27.000,0.000,0.000,0
2026-01-30 23:14:24,752054,2348.000,575.000,7842.000,348.000,229.000,103.000,0.000,0.000,0
2026-01-30 23:14:24,752094,2248.000,1954.000,7231.000,966.000,-150.000,127.000,0.000,0.000,0
2026-01-30 23:14:25,752134,2469.000,1766.000,7960.000,-674.000,-268.000,-86.000,0.000,0.000,0
2026-01-30 23:14:25,752174,2614.000,429.000,7915.000,-493.000,87.000,-181.000,0.000,0.000,0
2026-01-30 23:14:25,752214,2634.000,1734.000,7661.000,795.000,114.000,-151.000,0.000,0.000,0
2026-01-30 23:14:25,752254,2595.000,1550.000,7215.000,-109.000,-54.000,-134.000,0.000,0.000,0
2026-01-30 23:14:25,752294,2821.000,1269.000,7681.000,-548.000,-152.000,-163.000,0.000,0.000,0
2026-01-30 23:14:25,752334,2597.000,1835.000,8428.000,35.000,58.000,-67.000,0.000,0.000,0
2026-01-30 23:14:25,752374,2631.000,814.000,7709.000,26.000,336.000,92.000,0.000,0.000,0
2026-01-30 23:14:25,752414,2867.000,2121.000,7877.000,500.000,13.000,93.000,0.000,0.000,0
2026-01-30 23:14:25,752456,2602.000,1247.000,7965.000,-665.000,128.000,-38.000,0.000,0.000,0
2026-01-30 23:14:25,752495,2379.000,1145.000,7945.000,-36.000,92.000,44.000,0.000,0.000,0
2026-01-30 23:14:25,752536,2424.000,1486.000,8313.000,-54.000,105.000,152.000,0.000,0.000,0
2026-01-30 23:14:25,752574,2402.000,1118.000,8199.000,64.000,184.000,209.000,0.000,0.000,0
2026-01-30 23:14:25,752614,2342.000,1488.000,8052.000,351.000,38.000,254.000,0.000,0.000,0
2026-01-30 23:14:25,752654,2415.000,1558.000,8531.000,-170.000,-6.000,146.000,0.000,0.000,0
2026-01-30 23:14:25,752694,2362.000,792.000,8100.000,-8.000,64.000,72.000,0.000,0.000,0
2026-01-30 23:14:25,752734,2160.000,1697.000,7396.000,507.000,-27.000,-41.000,0.000,0.000,0
2026-01-30 23:14:25,752774,2458.000,1134.000,7865.000,-756.000,-210.000,-239.000,0.000,0.000,0
2026-01-30 23:14:25,752814,2629.000,946.000,8034.000,-13.000,72.000,-232.000,0.000,0.000,0
2026-01-30 23:14:25,752854,2539.000,1755.000,7603.000,612.000,38.000,-115.000,0.000,0.000,0
2026-01-30 23:14:25,752894,2608.000,1657.000,7406.000,-137.000,-192.000,-8.000,0.000,0.000,0
2026-01-30 23:14:25,752934,2873.000,1190.000,7919.000,-564.000,-110.000,-14.000,0.000,0.000,0
2026-01-30 23:14:25,752974,2716.000,1137.000,8086.000,129.000,162.000,78.000,0.000,0.000,0
2026-01-30 23:14:25,753014,2586.000,1616.000,7907.000,230.000,128.000,125.000,0.000,0.000,0
2026-01-30 23:14:25,753054,2475.000,1263.000,7710.000,-111.000,-78.000,106.000,0.000,0.000,0
2026-01-30 23:14:25,753094,2551.000,1295.000,7964.000,-157.000,-151.000,106.000,0.000,0.000,0
2026-01-30 23:14:26,753134,2564.000,1357.000,8332.000,-160.000,0.000,82.000,0.000,0.000,0
2026-01-30 23:14:26,753174,2582.000,1058.000,8248.000,95.000,116.000,113.000,0.000,0.000,0
2026-01-30 23:14:26,753214,2531.000,1518.000,7949.000,439.000,15.000,64.000,0.000,0.000,0
2026-01-30 23:14:26,753254,2461.000,1364.000,7582.000,-63.000,-94.000,-109.000,0.000,0.000,0
2026-01-30 23:14:26,753294,2405.000,1235.000,7388.000,-112.000,-326.000,-118.000,0.000,0.000,0
2026-01-30 23:14:26,753334,2699.000,1493.000,8208.000,-436.000,-267.000,-122.000,0.000,0.000,0
2026-01-30 23:14:26,753374,2683.000,772.000,8146.000,-78.000,247.000,-157.000,0.000,0.000,0
2026-01-30 23:14:26,753414,2618.000,1679.000,7533.000,964.000,126.000,-23.000,0.000,0.000,0
2026-01-30 23:14:26,753454,2905.000,1883.000,8059.000,-315.000,-81.000,-50.000,0.000,0.000,0
2026-01-30 23:14:26,753494,2661.000,841.000,7186.000,214.000,-87.000,-42.000,0.000,0.000,0
2026-01-30 23:14:26,753534,2433.000,1877.000,7204.000,166.000,-289.000,-43.000,0.000,0.000,0
2026-01-30 23:14:26,753574,2663.000,1345.000,8408.000,-951.000,11.000,-158.000,0.000,0.000,0
2026-01-30 23:14:26,753614,2594.000,501.000,7938.000,331.000,384.000,77.000,0.000,0.000,0
2026-01-30 23:14:26,753654,2757.000,2260.000,7910.000,1070.000,167.000,255.000,0.000,0.000,0
2026-01-30 23:14:26,753694,2476.000,1521.000,7575.000,-385.000,27.000,110.000,0.000,0.000,0
2026-01-30 23:14:26,753734,2396.000,967.000,7696.000,-349.000,-163.000,29.000,0.000,0.000,0
2026-01-30 23:14:26,753774,2595.000,1141.000,7947.000,-63.000,20.000,-27.000,0.000,0.000,0
2026-01-30 23:14:26,753814,2671.000,1553.000,8118.000,232.000,154.000,-38.000,0.000,0.000,0
2026-01-30 23:14:26,753854,2603.000,1348.000,7565.000,68.000,26.000,29.000,0.000,0.000,0
2026-01-30 23:14:26,753894,2676.000,1730.000,7865.000,4.000,-62.000,-71.000,0.000,0.000,0
2026-01-30 23:14:26,753934,2769.000,1324.000,8003.000,-88.000,119.000,-121.000,0.000,0.000,0
2026-01-30 23:14:26,753974,2722.000,1871.000,7749.000,557.000,103.000,-94.000,0.000,0.000,0
2026-01-30 23:14:26,754014,2646.000,1753.000,7743.000,-70.000,12.000,-81.000,0.000,0.000,0
2026-01-30 23:14:26,754054,2605.000,1509.000,7668.000,-11.000,43.000,-124.000,0.000,0.000,0
2026-01-30 23:14:26,754094,2624.000,1971.000,7530.000,330.000,7.000,-163.000,0.000,0.000,0
2026-01-30 23:14:27,754134,2720.000,2025.000,7603.000,-75.000,-1.000,-175.000,0.000,0.000,0
2026-01-30 23:14:27,754174,2922.000,1897.000,7654.000,-192.000,23.000,-219.000,0.000,0.000,0
2026-01-30 23:14:27,754214,2765.000,1816.000,7430.000,52.000,66.000,-174.000,0.000,0.000,0
2026-01-30 23:14:27,754254,2647.000,2498.000,7755.000,45.000,78.000,-92.000,0.000,0.000,0
2026-01-30 23:14:27,754294,2612.000,1961.000,7701.000,-87.000,325.000,-63.000,0.000,0.000,0
2026-01-30 23:14:27,754334,2539.000,2342.000,7592.000,406.000,306.000,67.000,0.000,0.000,0
2026-01-30 23:14:27,754374,2543.000,2464.000,7962.000,-50.000,182.000,130.000,0.000,0.000,0
2026-01-30 23:14:27,754414,2574.000,1950.000,8059.000,-242.000,165.000,81.000,0.000,0.000,0
2026-01-30 23:14:27,754456,2504.000,2104.000,7752.000,202.000,-20.000,131.000,0.000,0.000,0
2026-01-30 23:14:27,754495,2560.000,2719.000,8253.000,25.000,-178.000,154.000,0.000,0.000,0
2026-01-30 23:14:27,754534,2456.000,1728.000,8266.000,-457.000,-9.000,159.000,0.000,0.000,0
2026-01-30 23:14:27,754574,2479.000,2072.000,7695.000,473.000,-121.000,251.000,0.000,0.000,0
2026-01-30 23:14:27,754614,2601.000,2271.000,7656.000,173.000,-267.000,171.000,0.000,0.000,0
2026-01-30 23:14:27,754655,2714.000,1992.000,7718.000,-140.000,-360.000,25.000,0.000,0.000,0
2026-01-30 23:14:27,754694,2706.000,2023.000,7685.000,-130.000,-234.000,-90.000,0.000,0.000,0
2026-01-30 23:14:27,754734,2850.000,2456.000,7764.000,252.000,-291.000,-37.000,0.000,0.000,0
2026-01-30 23:14:27,754774,2921.000,2057.000,7617.000,-260.000,-205.000,-66.000,0.000,0.000,0
2026-01-30 23:14:27,754814,2759.000,2248.000,7021.000,410.000,-284.000,-23.000,0.000,0.000,0
2026-01-30 23:14:27,754854,2892.000,2822.000,7336.000,-89.000,-392.000,-60.000,0.000,0.000,0
2026-01-30 23:14:27,754894,2737.000,1926.000,7244.000,-465.000,-145.000,-126.000,0.000,0.000,0
2026-01-30 23:14:27,754934,2944.000,2633.000,7590.000,205.000,73.000,-163.000,0.000,0.000,0
2026-01-30 23:14:27,754974,2758.000,2329.000,7282.000,169.000,236.000,-75.000,0.000,0.000,0
2026-01-30 23:14:27,755014,2998.000,2838.000,7750.000,119.000,295.000,-83.000,0.000,0.000,0
2026-01-30 23:14:27,755054,2814.000,2207.000,7709.000,-18.000,433.000,-73.000,0.000,0.000,0
2026-01-30 23:14:27,755094,2596.000,2630.000,7669.000,280.000,213.000,39.000,0.000,0.000,0
2026-01-30 23:14:28,755134,2704.000,2757.000,8330.000,-359.000,9.000,149.000,0.000,0.000,0
2026-01-30 23:14:28,755174,2740.000,1874.000,7944.000,-204.000,158.000,159.000,0.000,0.000,0
2026-01-30 23:14:28,755214,2598.000,2878.000,7590.000,834.000,36.000,166.000,0.000,0.000,0
2026-01-30 23:14:28,755254,2497.000,2999.000,7712.000,-152.000,-160.000,172.000,0.000,0.000,0
2026-01-30 23:14:28,755294,2746.000,2350.000,8393.000,-663.000,-75.000,29.000,0.000,0.000,0
2026-01-30 23:14:28,755334,2653.000,2113.000,8068.000,410.000,77.000,76.000,0.000,0.000,0
2026-01-30 23:14:28,755374,2597.000,3022.000,7498.000,650.000,-205.000,138.000,0.000,0.000,0
2026-01-30 23:14:28,755414,2607.000,2653.000,7474.000,-506.000,-464.000,-40.000,0.000,0.000,0
2026-01-30 23:14:28,755454,2903.000,2314.000,7701.000,-395.000,-110.000,-238.000,0.000,0.000,0
2026-01-30 23:14:28,755494,2928.000,2439.000,7380.000,433.000,238.000,-242.000,0.000,0.000,0
2026-01-30 23:14:28,755534,2881.000,3154.000,7237.000,398.000,-16.000,-17.000,0.000,0.000,0
2026-01-30 23:14:28,755574,2754.000,2517.000,7539.000,-480.000,-22.000,-29.000,0.000,0.000,0
2026-01-30 23:14:28,755614,2583.000,2500.000,7620.000,34.000,123.000,0.000,0.000,0.000,0
2026-01-30 23:14:28,755654,2488.000,2752.000,7372.000,335.000,190.000,34.000,0.000,0.000,0
2026-01-30 23:14:28,755694,2634.000,3069.000,7634.000,23.000,88.000,55.000,0.000,0.000,0
2026-01-30 23:14:28,755734,2732.000,2421.000,7800.000,-279.000,111.000,39.000,0.000,0.000,0
2026-01-30 23:14:28,755774,2888.000,2734.000,7923.000,34.000,41.000,30.000,0.000,0.000,0
2026-01-30 23:14:28,755814,2696.000,2411.000,7290.000,152.000,-148.000,92.000,0.000,0.000,0
2026-01-30 23:14:28,755854,2726.000,2972.000,7543.000,-232.000,-338.000,25.000,0.000,0.000,0
2026-01-30 23:14:28,755894,2726.000,2325.000,7999.000,-583.000,-85.000,-32.000,0.000,0.000,0
2026-01-30 23:14:28,755934,2870.000,2405.000,8107.000,344.000,231.000,66.000,0.000,0.000,0
2026-01-30 23:14:28,755974,2664.000,2784.000,7552.000,683.000,132.000,180.000,0.000,0.000,0
2026-01-30 23:14:28,756014,2630.000,3171.000,7710.000,-99.000,-282.000,142.000,0.000,0.000,0
2026-01-30 23:14:28,756054,2654.000,2206.000,7798.000,-683.000,-257.000,-36.000,0.000,0.000,0
2026-01-30 23:14:28,756094,2757.000,2594.000,7534.000,277.000,-102.000,-142.000,0.000,0.000,0
2026-01-30 23:14:29,756134,2955.000,2879.000,7422.000,28.000,-73.000,-187.000,0.000,0.000,0
2026-01-30 23:14:29,756174,3097.000,2458.000,7618.000,-276.000,-114.000,-169.000,0.000,0.000,0
2026-01-30 23:14:29,756214,2816.000,2436.000,7629.000,105.000,16.000,-73.000,0.000,0.000,0
2026-01-30 23:14:29,756254,2637.000,2885.000,7614.000,224.000,71.000,1.000,0.000,0.000,0
2026-01-30 23:14:29,756294,2630.000,2691.000,7642.000,37.000,127.000,19.000,0.000,0.000,0
2026-01-30 23:14:29,756334,2645.000,2800.000,7586.000,298.000,155.000,-6.000,0.000,0.000,0
2026-01-30 23:14:29,756374,2703.000,2948.000,7813.000,89.000,154.000,-49.000,0.000,0.000,0
2026-01-30 23:14:29,756416,2686.000,2686.000,7826.000,-22.000,97.000,-30.000,0.000,0.000,0
2026-01-30 23:14:29,756456,2663.000,2780.000,7691.000,74.000,-17.000,-35.000,0.000,0.000,0
2026-01-30 23:14:29,756494,2775.000,2768.000,7566.000,-125.000,-110.000,-83.000,0.000,0.000,0
2026-01-30 23:14:29,756534,2877.000,2720.000,7278.000,-31.000,-147.000,-55.000,0.000,0.000,0
2026-01-30 23:14:29,756574,2827.000,2636.000,7497.000,-255.000,-54.000,-84.000,0.000,0.000,0
2026-01-30 23:14:29,756614,2741.000,2688.000,7800.000,69.000,116.000,8.000,0.000,0.000,0
2026-01-30 23:14:29,756656,2681.000,2707.000,7799.000,226.000,212.000,140.000,0.000,0.000,0
2026-01-30 23:14:29,756694,2663.000,2807.000,7704.000,299.000,57.000,176.000,0.000,0.000,0
2026-01-30 23:14:29,756734,2602.000,2749.000,7754.000,26.000,-30.000,106.000,0.000,0.000,0
2026-01-30 23:14:29,756774,2460.000,2735.000,7598.000,141.000,-29.000,-23.000,0.000,0.000,0
2026-01-30 23:14:29,756814,2504.000,3008.000,7580.000,113.000,-37.000,-153.000,0.000,0.000,0
2026-01-30 23:14:29,756854,2763.000,2808.000,7701.000,-48.000,56.000,-227.000,0.000,0.000,0
2026-01-30 23:14:29,756894,2868.000,2771.000,7572.000,216.000,143.000,-195.000,0.000,0.000,0
2026-01-30 23:14:29,756934,2769.000,2709.000,7205.000,-61.000,-38.000,-125.000,0.000,0.000,0
2026-01-30 23:14:29,756974,2799.000,2756.000,7399.000,-202.000,-163.000,-5.000,0.000,0.000,0
2026-01-30 23:14:29,757014,2774.000,2394.000,7635.000,-276.000,29.000,63.000,0.000,0.000,0
2026-01-30 23:14:29,757054,2567.000,2586.000,7342.000,559.000,138.000,190.000,0.000,0.000,0
2026-01-30 23:14:29,757094,2523.000,3142.000,7403.000,341.000,-63.000,248.000,0.000,0.000,0
2026-01-30 23:14:30,757134,2463.000,2690.000,7630.000,-259.000,-63.000,127.000,0.000,0.000,0
2026-01-30 23:14:30,757174,2499.000,2661.000,7691.000,164.000,89.000,43.000,0.000,0.000,0
2026-01-30 23:14:30,757214,2619.000,2955.000,7532.000,281.000,65.000,-51.000,0.000,0.000,0
2026-01-30 23:14:30,757254,2766.000,3039.000,7688.000,-103.000,-44.000,-204.000,0.000,0.000,0
2026-01-30 23:14:30,757294,2955.000,2753.000,7796.000,-314.000,20.000,-291.000,0.000,0.000,0
2026-01-30 23:14:30,757334,3035.000,2782.000,7680.000,83.000,75.000,-150.000,0.000,0.000,0
2026-01-30 23:14:30,757374,3040.000,2827.000,7727.000,-143.000,22.000,-32.000,0.000,0.000,0
2026-01-30 23:14:30,757414,2838.000,2450.000,7488.000,-220.000,-27.000,72.000,0.000,0.000,0
2026-01-30 23:14:30,757454,2551.000,2785.000,7263.000,199.000,-103.000,215.000,0.000,0.000,0
2026-01-30 23:14:30,757494,2431.000,2962.000,7510.000,-179.000,-48.000,202.000,0.000,0.000,0
2026-01-30 23:14:30,757534,2286.000,2329.000,7373.000,-69.000,180.000,193.000,0.000,0.000,0
2026-01-30 23:14:30,757574,2346.000,2870.000,7127.000,593.000,104.000,254.000,0.000,0.000,0
2026-01-30 23:14:30,757614,2558.000,3151.000,7657.000,-272.000,-26.000,146.000,0.000,0.000,0
2026-01-30 23:14:30,757654,2593.000,2183.000,7919.000,-432.000,78.000,38.000,0.000,0.000,0
2026-01-30 23:14:30,757694,2671.000,2864.000,7478.000,248.000,-80.000,18.000,0.000,0.000,0
2026-01-30 23:14:30,757734,2969.000,2723.000,7757.000,-509.000,-299.000,-28.000,0.000,0.000,0
2026-01-30 23:14:30,757774,3117.000,2160.000,8065.000,-653.000,-151.000,-72.000,0.000,0.000,0
2026-01-30 23:14:30,757814,3103.000,2558.000,8124.000,307.000,82.000,-21.000,0.000,0.000,0
2026-01-30 23:14:30,757854,2976.000,2829.000,7788.000,262.000,61.000,11.000,0.000,0.000,0
2026-01-30 23:14:30,757894,2882.000,2957.000,7518.000,136.000,-115.000,-55.000,0.000,0.000,0
2026-01-30 23:14:30,757934,2750.000,2850.000,7479.000,-108.000,-50.000,-155.000,0.000,0.000,0
2026-01-30 23:14:30,757974,2647.000,2750.000,7552.000,-6.000,136.000,-109.000,0.000,0.000,0
2026-01-30 23:14:30,758014,2670.000,2534.000,7644.000,-24.000,263.000,-34.000,0.000,0.000,0
2026-01-30 23:14:30,758054,2565.000,2819.000,7332.000,395.000,261.000,10.000,0.000,0.000,0
2026-01-30 23:14:30,758094,2549.000,2984.000,7701.000,-117.000,72.000,-1.000,0.000,0.000,0
2026-01-30 23:14:31,758134,2586.000,2530.000,7820.000,-147.000,157.000,14.000,0.000,0.000,0
2026-01-30 23:14:31,758174,2538.000,2716.000,7358.000,414.000,96.000,118.000,0.000,0.000,0
2026-01-30 23:14:31,758214,2554.000,2954.000,7492.000,-170.000,-107.000,145.000,0.000,0.000,0
2026-01-30 23:14:31,758254,2598.000,2139.000,7817.000,-626.000,-68.000,128.000,0.000,0.000,0
2026-01-30 23:14:31,758294,2581.000,2230.000,7850.000,182.000,81.000,191.000,0.000,0.000,0
2026-01-30 23:14:31,758334,2655.000,2707.000,7960.000,161.000,-8.000,246.000,0.000,0.000,0
2026-01-30 23:14:31,758374,2682.000,2241.000,7820.000,-289.000,-149.000,213.000,0.000,0.000,0
2026-01-30 23:14:31,758414,2642.000,2164.000,7506.000,-88.000,-261.000,160.000,0.000,0.000,0
2026-01-30 23:14:31,758454,2752.000,2307.000,7682.000,-406.000,-228.000,27.000,0.000,0.000,0
2026-01-30 23:14:31,758494,2775.000,1959.000,7579.000,-151.000,-18.000,-14.000,0.000,0.000,0
2026-01-30 23:14:31,758534,2714.000,2408.000,7589.000,253.000,67.000,13.000,0.000,0.000,0
2026-01-30 23:14:31,758574,2720.000,2151.000,7719.000,-203.000,75.000,12.000,0.000,0.000,0
2026-01-30 23:14:31,758614,2638.000,2002.000,7571.000,107.000,98.000,6.000,0.000,0.000,0
2026-01-30 23:14:31,758656,2549.000,2381.000,7639.000,108.000,37.000,0.000,0.000,0.000,0
2026-01-30 23:14:31,758694,2578.000,2099.000,7720.000,-198.000,18.000,-18.000,0.000,0.000,0
2026-01-30 23:14:31,758734,2664.000,2111.000,7657.000,65.000,63.000,4.000,0.000,0.000,0
2026-01-30 23:14:31,758774,2703.000,2262.000,7657.000,3.000,99.000,30.000,0.000,0.000,0
2026-01-30 23:14:31,758814,2684.000,1999.000,7694.000,-123.000,72.000,19.000,0.000,0.000,0
2026-01-30 23:14:31,758854,2665.000,2152.000,7914.000,-37.000,24.000,0.000,0.000,0.000,0
2026-01-30 23:14:31,758894,2717.000,2077.000,8030.000,-79.000,59.000,3.000,0.000,0.000,0
2026-01-30 23:14:31,758934,2712.000,1973.000,7846.000,41.000,24.000,72.000,0.000,0.000,0
2026-01-30 23:14:31,758974,2662.000,2094.000,7810.000,28.000,-71.000,110.000,0.000,0.000,0
2026-01-30 23:14:31,759014,2522.000,1996.000,7829.000,-55.000,-56.000,29.000,0.000,0.000,0
2026-01-30 23:14:31,759054,2398.000,2177.000,7778.000,154.000,6.000,-74.000,0.000,0.000,0
2026-01-30 23:14:31,759094,2527.000,2392.000,7700.000,107.000,-1.000,-117.000,0.000,0.000,0
2026-01-30 23:14:32,759134,2731.000,2166.000,7680.000,-62.000,5.000,-135.000,0.000,0.000,0
2026-01-30 23:14:32,759174,2748.000,2104.000,7579.000,11.000,6.000,-133.000,0.000,0.000,0
2026-01-30 23:14:32,759214,2695.000,2190.000,7772.000,-112.000,10.000,-115.000,0.000,0.000,0
2026-01-30 23:14:32,759254,2701.000,2037.000,7743.000,-22.000,1.000,-67.000,0.000,0.000,0
2026-01-30 23:14:32,759294,2713.000,2280.000,7700.000,110.000,-44.000,-6.000,0.000,0.000,0
2026-01-30 23:14:32,759334,2735.000,2170.000,7825.000,-101.000,-24.000,5.000,0.000,0.000,0
2026-01-30 23:14:32,759374,2672.000,2080.000,7848.000,66.000,41.000,26.000,0.000,0.000,0
2026-01-30 23:14:32,759414,2611.000,2135.000,7758.000,141.000,2.000,72.000,0.000,0.000,0
2026-01-30 23:14:32,759454,2604.000,2005.000,7688.000,-52.000,-152.000,128.000,0.000,0.000,0
2026-01-30 23:14:32,759494,2548.000,2062.000,7638.000,52.000,-168.000,10.000,0.000,0.000,0
2026-01-30 23:14:32,759534,2422.000,2451.000,7526.000,251.000,-58.000,-245.000,0.000,0.000,0
2026-01-30 23:14:32,759574,2480.000,2708.000,7648.000,110.000,37.000,-323.000,0.000,0.000,0
2026-01-30 23:14:32,759614,2849.000,2168.000,7879.000,-289.000,154.000,-99.000,0.000,0.000,0
2026-01-30 23:14:32,759654,2878.000,1951.000,7989.000,74.000,166.000,-9.000,0.000,0.000,0
2026-01-30 23:14:32,759694,2680.000,2370.000,7789.000,321.000,-12.000,16.000,0.000,0.000,0
2026-01-30 23:14:32,759734,2614.000,2511.000,7569.000,11.000,-242.000,-3.000,0.000,0.000,0
2026-01-30 23:14:32,759774,2658.000,2246.000,7491.000,-236.000,-281.000,-30.000,0.000,0.000,0
2026-01-30 23:14:32,759814,2725.000,2245.000,7540.000,-114.000,-180.000,-28.000,0.000,0.000,0
2026-01-30 23:14:32,759854,2788.000,2239.000,7659.000,-94.000,-65.000,13.000,0.000,0.000,0
2026-01-30 23:14:32,759894,2696.000,2122.000,7753.000,36.000,50.000,101.000,0.000,0.000,0
2026-01-30 23:14:32,759934,2604.000,2311.000,7794.000,218.000,87.000,101.000,0.000,0.000,0
2026-01-30 23:14:32,759974,2607.000,2386.000,7686.000,88.000,-6.000,-6.000,0.000,0.000,0
2026-01-30 23:14:32,760014,2697.000,2283.000,7675.000,-86.000,-63.000,-65.000,0.000,0.000,0
2026-01-30 23:14:32,760054,2751.000,2105.000,7729.000,-123.000,-26.000,-59.000,0.000,0.000,0
2026-01-30 23:14:32,760094,2717.000,2073.000,7716.000,12.000,47.000,1.000,0.000,0.000,0
2026-01-30 23:14:33,760134,2635.000,2131.000,7647.000,77.000,64.000,52.000,0.000,0.000,0
2026-01-30 23:14:33,760174,2601.000,2199.000,7650.000,19.000,25.000,74.000,0.000,0.000,0
2026-01-30 23:14:33,760214,2651.000,2074.000,7644.000,-62.000,13.000,79.000,0.000,0.000,0
2026-01-30 23:14:33,760254,2698.000,1999.000,7644.000,-57.000,8.000,81.000,0.000,0.000,0
2026-01-30 23:14:33,760294,2724.000,1952.000,7837.000,-134.000,7.000,78.000,0.000,0.000,0
2026-01-30 23:14:33,760334,2681.000,1894.000,7913.000,3.000,58.000,77.000,0.000,0.000,0
2026-01-30 23:14:33,760374,2584.000,1984.000,7692.000,100.000,-21.000,153.000,0.000,0.000,0
2026-01-30 23:14:33,760414,2671.000,1746.000,7697.000,-295.000,-120.000,176.000,0.000,0.000,0
2026-01-30 23:14:33,760456,2726.000,1537.000,7813.000,-192.000,-41.000,144.000,0.000,0.000,0
2026-01-30 23:14:33,760496,2649.000,1751.000,7784.000,120.000,78.000,87.000,0.000,0.000,0
2026-01-30 23:14:33,760534,2584.000,1800.000,7680.000,84.000,58.000,113.000,0.000,0.000,0
2026-01-30 23:14:33,760574,2651.000,1542.000,7757.000,-212.000,-31.000,175.000,0.000,0.000,0
2026-01-30 23:14:33,760614,2712.000,1262.000,7899.000,-256.000,-39.000,229.000,0.000,0.000,0
2026-01-30 23:14:33,760656,2688.000,1121.000,7873.000,-98.000,37.000,261.000,0.000,0.000,0
2026-01-30 23:14:33,760694,2602.000,1192.000,7898.000,109.000,47.000,276.000,0.000,0.000,0
2026-01-30 23:14:33,760734,2515.000,1349.000,7891.000,100.000,-41.000,226.000,0.000,0.000,0
2026-01-30 23:14:33,760774,2567.000,1358.000,7855.000,-49.000,-90.000,180.000,0.000,0.000,0
2026-01-30 23:14:33,760814,2677.000,1220.000,7816.000,-182.000,-90.000,162.000,0.000,0.000,0
2026-01-30 23:14:33,760854,2729.000,1074.000,7830.000,-91.000,0.000,123.000,0.000,0.000,0
2026-01-30 23:14:33,760894,2654.000,1099.000,7866.000,60.000,76.000,74.000,0.000,0.000,0
2026-01-30 23:14:33,760934,2525.000,1119.000,7905.000,68.000,82.000,32.000,0.000,0.000,0
2026-01-30 23:14:33,760974,2474.000,1176.000,7934.000,65.000,36.000,20.000,0.000,0.000,0
2026-01-30 23:14:33,761014,2542.000,1248.000,7870.000,40.000,-6.000,-9.000,0.000,0.000,0
2026-01-30 23:14:33,761054,2638.000,1249.000,7775.000,31.000,11.000,-44.000,0.000,0.000,0
2026-01-30 23:14:33,761094,2645.000,1287.000,7831.000,2.000,63.000,-52.000,0.000,0.000,0
2026-01-30 23:14:34,761134,2636.000,1129.000,7917.000,-90.000,51.000,5.000,0.000,0.000,0
2026-01-30 23:14:34,761174,2699.000,1049.000,7952.000,-40.000,13.000,51.000,0.000,0.000,0
2026-01-30 23:14:34,761214,2682.000,1109.000,7913.000,21.000,-12.000,68.000,0.000,0.000,0
2026-01-30 23:14:34,761254,2610.000,1198.000,7858.000,-17.000,-48.000,64.000,0.000,0.000,0
2026-01-30 23:14:34,761294,2579.000,1102.000,7799.000,-96.000,-49.000,78.000,0.000,0.000,0
2026-01-30 23:14:34,761334,2628.000,958.000,7816.000,-122.000,-35.000,134.000,0.000,0.000,0
2026-01-30 23:14:34,761374,2684.000,779.000,7939.000,-174.000,-29.000,190.000,0.000,0.000,0
2026-01-30 23:14:34,761414,2654.000,551.000,8040.000,-139.000,3.000,249.000,0.000,0.000,0
2026-01-30 23:14:34,761454,2571.000,545.000,8102.000,-38.000,-18.000,305.000,0.000,0.000,0
2026-01-30 23:14:34,761494,2484.000,657.000,8001.000,-2.000,-106.000,297.000,0.000,0.000,0
2026-01-30 23:14:34,761534,2464.000,666.000,7872.000,-86.000,-216.000,218.000,0.000,0.000,0
2026-01-30 23:14:34,761574,2521.000,768.000,7870.000,-41.000,-141.000,118.000,0.000,0.000,0
2026-01-30 23:14:34,761614,2601.000,815.000,7772.000,-16.000,-95.000,23.000,0.000,0.000,0
2026-01-30 23:14:34,761654,2624.000,754.000,7713.000,1.000,-14.000,-62.000,0.000,0.000,0
2026-01-30 23:14:34,761694,2628.000,791.000,7837.000,29.000,38.000,-109.000,0.000,0.000,0
2026-01-30 23:14:34,761734,2565.000,747.000,8035.000,-40.000,107.000,-121.000,0.000,0.000,0
2026-01-30 23:14:34,761774,2704.000,687.000,8084.000,50.000,128.000,-101.000,0.000,0.000,0
2026-01-30 23:14:34,761814,2802.000,856.000,8017.000,213.000,114.000,-31.000,0.000,0.000,0
2026-01-30 23:14:34,761854,2791.000,861.000,7850.000,-7.000,9.000,34.000,0.000,0.000,0
2026-01-30 23:14:34,761894,2598.000,628.000,7823.000,-90.000,15.000,31.000,0.000,0.000,0
2026-01-30 23:14:34,761934,2491.000,786.000,7925.000,100.000,77.000,18.000,0.000,0.000,0
2026-01-30 23:14:34,761974,2511.000,811.000,7942.000,108.000,114.000,-27.000,0.000,0.000,0
2026-01-30 23:14:34,762014,2630.000,859.000,7943.000,128.000,136.000,-56.000,0.000,0.000,0
2026-01-30 23:14:34,762054,2648.000,945.000,7962.000,89.000,128.000,-36.000,0.000,0.000,0
2026-01-30 23:14:34,762094,2603.000,823.000,7916.000,-32.000,84.000,-3.000,0.000,0.000,0
2026-01-30 23:14:35,762134,2564.000,724.000,7885.000,6.000,71.000,-6.000,0.000,0.000,0
2026-01-30 23:14:35,762174,2488.000,739.000,7929.000,38.000,77.000,-30.000,0.000,0.000,0
2026-01-30 23:14:35,762214,2487.000,805.000,7976.000,47.000,51.000,-33.000,0.000,0.000,0
2026-01-30 23:14:35,762254,2574.000,876.000,7923.000,76.000,28.000,-33.000,0.000,0.000,0
2026-01-30 23:14:35,762294,2607.000,881.000,7906.000,-9.000,19.000,-17.000,0.000,0.000,0
2026-01-30 23:14:35,762334,2584.000,843.000,7961.000,-23.000,52.000,-27.000,0.000,0.000,0
2026-01-30 23:14:35,762374,2530.000,888.000,7998.000,34.000,81.000,-49.000,0.000,0.000,0
2026-01-30 23:14:35,762414,2378.000,742.000,7819.000,58.000,83.000,-98.000,0.000,0.000,0
2026-01-30 23:14:35,762456,2425.000,1255.000,7935.000,254.000,35.000,-288.000,0.000,0.000,0
2026-01-30 23:14:35,762494,2396.000,624.000,7888.000,-310.000,57.000,-290.000,0.000,0.000,0
2026-01-30 23:14:35,762534,2506.000,766.000,8076.000,11.000,135.000,-286.000,0.000,0.000,0
2026-01-30 23:14:35,762574,2454.000,877.000,8068.000,14.000,46.000,-219.000,0.000,0.000,0
2026-01-30 23:14:35,762614,2571.000,1079.000,7966.000,-152.000,-160.000,-113.000,0.000,0.000,0
2026-01-30 23:14:35,762656,2734.000,859.000,7889.000,-272.000,-216.000,70.000,0.000,0.000,0
2026-01-30 23:14:35,762694,2712.000,776.000,7854.000,-181.000,-162.000,187.000,0.000,0.000,0
2026-01-30 23:14:35,762734,2668.000,737.000,7965.000,-182.000,-136.000,204.000,0.000,0.000,0
2026-01-30 23:14:35,762774,2577.000,699.000,7940.000,-118.000,-114.000,179.000,0.000,0.000,0
2026-01-30 23:14:35,762814,2533.000,762.000,7942.000,-15.000,-87.000,142.000,0.000,0.000,0
2026-01-30 23:14:35,762854,2537.000,735.000,7926.000,-106.000,-109.000,117.000,0.000,0.000,0
2026-01-30 23:14:35,762894,2560.000,676.000,7915.000,-50.000,-87.000,65.000,0.000,0.000,0
2026-01-30 23:14:35,762934,2565.000,702.000,7885.000,19.000,-59.000,12.000,0.000,0.000,0
2026-01-30 23:14:35,762974,2548.000,783.000,7907.000,4.000,-50.000,-27.000,0.000,0.000,0
2026-01-30 23:14:35,763014,2577.000,774.000,7932.000,34.000,-19.000,-64.000,0.000,0.000,0
2026-01-30 23:14:35,763054,2606.000,791.000,7938.000,67.000,2.000,-78.000,0.000,0.000,0
2026-01-30 23:14:35,763094,2640.000,827.000,7916.000,68.000,-19.000,-71.000,0.000,0.000,0
2026-01-30 23:14:36,763134,2693.000,764.000,7923.000,-25.000,-73.000,-45.000,0.000,0.000,0
2026-01-30 23:14:36,763174,2689.000,710.000,7929.000,-11.000,-62.000,-30.000,0.000,0.000,0
2026-01-30 23:14:36,763214,2650.000,779.000,7918.000,78.000,-27.000,-24.000,0.000,0.000,0
2026-01-30 23:14:36,763254,2597.000,838.000,7912.000,48.000,-45.000,-12.000,0.000,0.000,0
2026-01-30 23:14:36,763294,2605.000,813.000,7931.000,8.000,-84.000,1.000,0.000,0.000,0
2026-01-30 23:14:36,763334,2632.000,839.000,7867.000,43.000,-84.000,-4.000,0.000,0.000,0
2026-01-30 23:14:36,763374,2676.000,813.000,7873.000,1.000,-70.000,-7.000,0.000,0.000,0
2026-01-30 23:14:36,763414,2654.000,810.000,7945.000,10.000,-29.000,13.000,0.000,0.000,0
2026-01-30 23:14:36,763454,2603.000,819.000,7925.000,29.000,-37.000,10.000,0.000,0.000,0
2026-01-30 23:14:36,763494,2631.000,832.000,7910.000,16.000,-78.000,7.000,0.000,0.000,0
2026-01-30 23:14:36,763534,2715.000,824.000,7863.000,-24.000,-158.000,15.000,0.000,0.000,0
2026-01-30 23:14:36,763574,2731.000,830.000,7867.000,-76.000,-175.000,22.000,0.000,0.000,0
2026-01-30 23:14:36,763614,2743.000,759.000,7882.000,-79.000,-181.000,21.000,0.000,0.000,0
2026-01-30 23:14:36,763654,2768.000,727.000,7878.000,-97.000,-169.000,20.000,0.000,0.000,0
2026-01-30 23:14:36,763694,2757.000,801.000,7859.000,27.000,-122.000,34.000,0.000,0.000,0
2026-01-30 23:14:36,763734,2725.000,849.000,7874.000,30.000,-116.000,36.000,0.000,0.000,0
2026-01-30 23:14:36,763774,2737.000,773.000,7918.000,-63.000,-147.000,49.000,0.000,0.000,0
2026-01-30 23:14:36,763814,2773.000,777.000,7855.000,-35.000,-196.000,32.000,0.000,0.000,0
2026-01-30 23:14:36,763854,2755.000,836.000,7801.000,-42.000,-215.000,29.000,0.000,0.000,0
2026-01-30 23:14:36,763894,2749.000,780.000,7803.000,-106.000,-227.000,23.000,0.000,0.000,0
2026-01-30 23:14:36,763934,2801.000,724.000,7895.000,-96.000,-206.000,6.000,0.000,0.000,0
2026-01-30 23:14:36,763974,2897.000,718.000,7929.000,-19.000,-184.000,-7.000,0.000,0.000,0
2026-01-30 23:14:36,764014,2986.000,741.000,7825.000,14.000,-184.000,-10.000,0.000,0.000,0
2026-01-30 23:14:36,764054,2978.000,761.000,7765.000,-40.000,-208.000,15.000,0.000,0.000,0
2026-01-30 23:14:36,764094,2952.000,759.000,7758.000,-58.000,-239.000,36.000,0.000,0.000,0
2026-01-30 23:14:37,764134,2894.000,737.000,7793.000,-91.000,-189.000,61.000,0.000,0.000,0
2026-01-30 23:14:37,764174,2930.000,715.000,7859.000,-6.000,-107.000,99.000,0.000,0.000,0
2026-01-30 23:14:37,764214,2967.000,750.000,7805.000,8.000,-115.000,97.000,0.000,0.000,0
2026-01-30 23:14:37,764254,2976.000,742.000,7788.000,-79.000,-164.000,63.000,0.000,0.000,0
2026-01-30 23:14:37,764294,2960.000,686.000,7778.000,-119.000,-175.000,40.000,0.000,0.000,0
2026-01-30 23:14:37,764334,3018.000,656.000,7806.000,-91.000,-158.000,26.000,0.000,0.000,0
2026-01-30 23:14:37,764374,3023.000,646.000,7741.000,-10.000,-110.000,39.000,0.000,0.000,0
2026-01-30 23:14:37,764414,2978.000,721.000,7715.000,18.000,-100.000,38.000,0.000,0.000,0
2026-01-30 23:14:37,764456,3000.000,701.000,7803.000,-49.000,-95.000,33.000,0.000,0.000,0
2026-01-30 23:14:37,764496,3058.000,651.000,7834.000,-19.000,-68.000,28.000,0.000,0.000,0
2026-01-30 23:14:37,764534,3068.000,705.000,7783.000,39.000,-60.000,20.000,0.000,0.000,0
2026-01-30 23:14:37,764574,3056.000,708.000,7732.000,-9.000,-149.000,4.000,0.000,0.000,0
2026-01-30 23:14:37,764614,3069.000,688.000,7671.000,-91.000,-162.000,6.000,0.000,0.000,0
2026-01-30 23:14:37,764656,3116.000,629.000,7761.000,-43.000,-91.000,20.000,0.000,0.000,0
2026-01-30 23:14:37,764694,3107.000,645.000,7834.000,63.000,-59.000,46.000,0.000,0.000,0
2026-01-30 23:14:37,764734,3104.000,692.000,7836.000,81.000,-117.000,47.000,0.000,0.000,0
2026-01-30 23:14:37,764774,3080.000,815.000,7599.000,-64.000,-157.000,32.000,0.000,0.000,0
2026-01-30 23:14:37,764814,3062.000,785.000,7423.000,-271.000,-32.000,44.000,0.000,0.000,0
2026-01-30 23:14:37,764854,3148.000,557.000,7674.000,-124.000,229.000,70.000,0.000,0.000,0
2026-01-30 23:14:37,764894,3104.000,603.000,7844.000,38.000,350.000,64.000,0.000,0.000,0
2026-01-30 23:14:37,764934,2999.000,572.000,7819.000,-47.000,285.000,24.000,0.000,0.000,0
2026-01-30 23:14:37,764974,2994.000,556.000,7860.000,-39.000,249.000,9.000,0.000,0.000,0
2026-01-30 23:14:37,765014,2966.000,629.000,7820.000,92.000,282.000,-19.000,0.000,0.000,0
2026-01-30 23:14:37,765054,2946.000,744.000,7803.000,87.000,237.000,-44.000,0.000,0.000,0
2026-01-30 23:14:37,765094,2936.000,698.000,7813.000,-18.000,180.000,-50.000,0.000,0.000,0
2026-01-30 23:14:38,765134,2937.000,642.000,7826.000,-10.000,153.000,-43.000,0.000,0.000,0
2026-01-30 23:14:38,765174,2941.000,662.000,7843.000,4.000,125.000,-25.000,0.000,0.000,0
2026-01-30 23:14:38,765214,2941.000,674.000,7833.000,-11.000,92.000,-7.000,0.000,0.000,0
2026-01-30 23:14:38,765254,2931.000,656.000,7830.000,8.000,80.000,10.000,0.000,0.000,0
2026-01-30 23:14:38,765294,2913.000,652.000,7861.000,4.000,60.000,30.000,0.000,0.000,0
2026-01-30 23:14:38,765334,2910.000,609.000,7836.000,-41.000,23.000,47.000,0.000,0.000,0
2026-01-30 23:14:38,765374,2904.000,617.000,7835.000,2.000,38.000,46.000,0.000,0.000,0
2026-01-30 23:14:38,765414,2832.000,662.000,7807.000,7.000,49.000,45.000,0.000,0.000,0
2026-01-30 23:14:38,765454,2819.000,677.000,7812.000,-6.000,39.000,22.000,0.000,0.000,0
2026-01-30 23:14:38,765494,2878.000,672.000,7867.000,12.000,57.000,4.000,0.000,0.000,0
2026-01-30 23:14:38,765534,2910.000,700.000,7815.000,46.000,86.000,-16.000,0.000,0.000,0
2026-01-30 23:14:38,765574,2891.000,700.000,7811.000,6.000,71.000,-30.000,0.000,0.000,0
2026-01-30 23:14:38,765614,2866.000,654.000,7863.000,-70.000,27.000,-12.000,0.000,0.000,0
2026-01-30 23:14:38,765654,2856.000,536.000,7861.000,-54.000,51.000,3.000,0.000,0.000,0
2026-01-30 23:14:38,765694,2834.000,739.000,7838.000,80.000,53.000,13.000,0.000,0.000,0
2026-01-30 23:14:38,765734,2859.000,680.000,7816.000,-27.000,19.000,10.000,0.000,0.000,0
2026-01-30 23:14:38,765774,2895.000,528.000,7826.000,-80.000,16.000,34.000,0.000,0.000,0
2026-01-30 23:14:38,765814,2917.000,504.000,7903.000,-83.000,12.000,45.000,0.000,0.000,0
2026-01-30 23:14:38,765854,2846.000,491.000,7857.000,-20.000,33.000,49.000,0.000,0.000,0
2026-01-30 23:14:38,765894,2786.000,571.000,7845.000,1.000,16.000,68.000,0.000,0.000,0
2026-01-30 23:14:38,765934,2793.000,547.000,7838.000,-28.000,8.000,72.000,0.000,0.000,0
2026-01-30 23:14:38,765974,2812.000,494.000,7829.000,-49.000,23.000,72.000,0.000,0.000,0
2026-01-30 23:14:38,766014,2834.000,391.000,7867.000,-82.000,41.000,80.000,0.000,0.000,0
2026-01-30 23:14:38,766054,2822.000,274.000,7934.000,-79.000,39.000,106.000,0.000,0.000,0
2026-01-30 23:14:38,766094,2769.000,51.000,7892.000,-123.000,-41.000,173.000,0.000,0.000,0
2026-01-30 23:14:39,766134,2796.000,-104.000,7916.000,-153.000,-78.000,224.000,0.000,0.000,0
2026-01-30 23:14:39,766174,2769.000,-141.000,7929.000,-47.000,-42.000,261.000,0.000,0.000,0
2026-01-30 23:14:39,766214,2715.000,-117.000,7955.000,-47.000,-78.000,290.000,0.000,0.000,0
2026-01-30 23:14:39,766254,2760.000,-225.000,7978.000,-141.000,-107.000,301.000,0.000,0.000,0
2026-01-30 23:14:39,766294,2847.000,-413.000,7876.000,-9.000,-116.000,345.000,0.000,0.000,0
2026-01-30 23:14:39,766334,2872.000,-355.000,8071.000,287.000,-115.000,362.000,0.000,0.000,0
2026-01-30 23:14:39,766374,2670.000,-661.000,8143.000,-19.000,-54.000,395.000,0.000,0.000,0
2026-01-30 23:14:39,766414,2648.000,-224.000,8092.000,392.000,-67.000,330.000,0.000,0.000,0
2026-01-30 23:14:39,766454,2754.000,-480.000,7889.000,19.000,-107.000,204.000,0.000,0.000,0
2026-01-30 23:14:39,766494,2751.000,-536.000,7973.000,-34.000,19.000,95.000,0.000,0.000,0
2026-01-30 23:14:39,766534,2630.000,-335.000,7929.000,133.000,63.000,-2.000,0.000,0.000,0
2026-01-30 23:14:39,766574,2578.000,-322.000,7853.000,41.000,34.000,-86.000,0.000,0.000,0
2026-01-30 23:14:39,766614,2643.000,-275.000,7847.000,23.000,4.000,-135.000,0.000,0.000,0
2026-01-30 23:14:39,766657,2808.000,-294.000,8003.000,-36.000,37.000,-161.000,0.000,0.000,0
2026-01-30 23:14:39,766695,2916.000,-367.000,8046.000,-15.000,109.000,-132.000,0.000,0.000,0
2026-01-30 23:14:39,766734,2907.000,-316.000,8091.000,38.000,120.000,-59.000,0.000,0.000,0
2026-01-30 23:14:39,766774,2815.000,-324.000,8090.000,4.000,83.000,-22.000,0.000,0.000,0
2026-01-30 23:14:39,766814,2688.000,-268.000,7910.000,20.000,16.000,1.000,0.000,0.000,0
2026-01-30 23:14:39,766854,2718.000,-224.000,7857.000,-22.000,-24.000,-1.000,0.000,0.000,0
2026-01-30 23:14:39,766894,2758.000,-212.000,7910.000,54.000,60.000,-30.000,0.000,0.000,0
2026-01-30 23:14:39,766934,2737.000,-145.000,7889.000,72.000,90.000,-32.000,0.000,0.000,0
2026-01-30 23:14:39,766974,2767.000,-149.000,7998.000,3.000,96.000,-42.000,0.000,0.000,0
2026-01-30 23:14:39,767014,2708.000,-25.000,7979.000,111.000,138.000,-46.000,0.000,0.000,0
2026-01-30 23:14:39,767054,2630.000,31.000,7866.000,34.000,48.000,-39.000,0.000,0.000,0
2026-01-30 23:14:39,767094,2719.000,-53.000,7997.000,-20.000,24.000,-58.000,0.000,0.000,0
2026-01-30 23:14:40,767134,2797.000,71.000,8003.000,145.000,93.000,-80.000,0.000,0.000,0
2026-01-30 23:14:40,767174,2789.000,183.000,7904.000,118.000,78.000,-107.000,0.000,0.000,0
2026-01-30 23:14:40,767214,2781.000,209.000,7937.000,33.000,23.000,-150.000,0.000,0.000,0
2026-01-30 23:14:40,767254,2789.000,263.000,7937.000,111.000,74.000,-167.000,0.000,0.000,0
2026-01-30 23:14:40,767294,2765.000,442.000,7947.000,198.000,118.000,-171.000,0.000,0.000,0
2026-01-30 23:14:40,767334,2758.000,621.000,7975.000,193.000,120.000,-187.000,0.000,0.000,0
2026-01-30 23:14:40,767374,2759.000,841.000,7956.000,273.000,168.000,-261.000,0.000,0.000,0
2026-01-30 23:14:40,767414,2741.000,1128.000,7825.000,374.000,227.000,-369.000,0.000,0.000,0
2026-01-30 23:14:40,767454,2731.000,1386.000,7719.000,363.000,236.000,-483.000,0.000,0.000,0
2026-01-30 23:14:40,767494,2798.000,1396.000,7776.000,126.000,236.000,-547.000,0.000,0.000,0
2026-01-30 23:14:40,767534,2798.000,1175.000,7793.000,-61.000,257.000,-526.000,0.000,0.000,0
2026-01-30 23:14:40,767574,2791.000,1146.000,7800.000,63.000,227.000,-450.000,0.000,0.000,0
2026-01-30 23:14:40,767614,2733.000,1202.000,7697.000,90.000,140.000,-273.000,0.000,0.000,0
2026-01-30 23:14:40,767654,2735.000,1169.000,7753.000,-28.000,69.000,-93.000,0.000,0.000,0
2026-01-30 23:14:40,767694,2766.000,1140.000,7988.000,-78.000,58.000,89.000,0.000,0.000,0
2026-01-30 23:14:40,767734,2735.000,1121.000,7949.000,15.000,55.000,224.000,0.000,0.000,0
2026-01-30 23:14:40,767774,2695.000,1283.000,7857.000,137.000,3.000,254.000,0.000,0.000,0
2026-01-30 23:14:40,767814,2629.000,1324.000,7822.000,32.000,-29.000,202.000,0.000,0.000,0
2026-01-30 23:14:40,767854,2599.000,1227.000,7771.000,-99.000,-68.000,146.000,0.000,0.000,0
2026-01-30 23:14:40,767894,2618.000,1200.000,7882.000,-86.000,-28.000,88.000,0.000,0.000,0
2026-01-30 23:14:40,767934,2580.000,1153.000,7848.000,-6.000,37.000,57.000,0.000,0.000,0
2026-01-30 23:14:40,767974,2606.000,1158.000,7702.000,41.000,35.000,58.000,0.000,0.000,0
2026-01-30 23:14:40,768014,2615.000,1166.000,7657.000,1.000,-20.000,32.000,0.000,0.000,0
2026-01-30 23:14:40,768054,2625.000,1072.000,7748.000,-115.000,-26.000,41.000,0.000,0.000,0
2026-01-30 23:14:40,768094,2675.000,1103.000,7985.000,-10.000,30.000,52.000,0.000,0.000,0
2026-01-30 23:14:41,768134,2643.000,1076.000,7971.000,185.000,134.000,31.000,0.000,0.000,0
2026-01-30 23:14:41,768174,2519.000,1325.000,7943.000,333.000,82.000,-39.000,0.000,0.000,0
2026-01-30 23:14:41,768214,2522.000,1488.000,8021.000,84.000,-95.000,-131.000,0.000,0.000,0
2026-01-30 23:14:41,768254,2625.000,1382.000,8115.000,-78.000,-127.000,-234.000,0.000,0.000,0
2026-01-30 23:14:41,768294,2653.000,1350.000,8036.000,-45.000,-120.000,-311.000,0.000,0.000,0
2026-01-30 23:14:41,768334,2702.000,1399.000,7853.000,-90.000,-170.000,-342.000,0.000,0.000,0
2026-01-30 23:14:41,768374,2761.000,1440.000,7667.000,-110.000,-183.000,-335.000,0.000,0.000,0
2026-01-30 23:14:41,768414,2867.000,1263.000,7691.000,-423.000,-68.000,-249.000,0.000,0.000,0
2026-01-30 23:14:41,768456,2947.000,1241.000,7667.000,-86.000,-7.000,-156.000,0.000,0.000,0
2026-01-30 23:14:41,768495,3004.000,1267.000,7704.000,-117.000,5.000,14.000,0.000,0.000,0
2026-01-30 23:14:41,768534,2982.000,1139.000,7774.000,-143.000,56.000,162.000,0.000,0.000,0
2026-01-30 23:14:41,768574,2863.000,1179.000,7951.000,53.000,173.000,226.000,0.000,0.000,0
2026-01-30 23:14:41,768614,2778.000,1177.000,7986.000,104.000,268.000,282.000,0.000,0.000,0
2026-01-30 23:14:41,768655,2736.000,1237.000,7920.000,313.000,320.000,289.000,0.000,0.000,0
2026-01-30 23:14:41,768694,2595.000,1315.000,7819.000,346.000,323.000,260.000,0.000,0.000,0
2026-01-30 23:14:41,768734,2445.000,1308.000,7778.000,232.000,257.000,164.000,0.000,0.000,0
2026-01-30 23:14:41,768774,2373.000,1300.000,7765.000,153.000,219.000,24.000,0.000,0.000,0
2026-01-30 23:14:41,768814,2364.000,1242.000,7794.000,158.000,216.000,-14.000,0.000,0.000,0
2026-01-30 23:14:41,768854,2365.000,1297.000,7890.000,209.000,187.000,-71.000,0.000,0.000,0
2026-01-30 23:14:41,768894,2489.000,1303.000,7984.000,137.000,147.000,-77.000,0.000,0.000,0
2026-01-30 23:14:41,768934,2534.000,1359.000,8026.000,197.000,158.000,-73.000,0.000,0.000,0
2026-01-30 23:14:41,768974,2468.000,1364.000,7902.000,223.000,142.000,-39.000,0.000,0.000,0
2026-01-30 23:14:41,769014,2433.000,1446.000,7759.000,123.000,33.000,-17.000,0.000,0.000,0
2026-01-30 23:14:41,769054,2459.000,1407.000,7789.000,-32.000,-17.000,-36.000,0.000,0.000,0
2026-01-30 23:14:41,769094,2502.000,1302.000,7869.000,-60.000,18.000,-46.000,0.000,0.000,0
2026-01-30 23:14:42,769134,2509.000,1289.000,7984.000,75.000,47.000,2.000,0.000,0.000,0
2026-01-30 23:14:42,769174,2434.000,1380.000,7970.000,80.000,-15.000,6.000,0.000,0.000,0
2026-01-30 23:14:42,769214,2426.000,1377.000,7810.000,47.000,-54.000,-16.000,0.000,0.000,0
2026-01-30 23:14:42,769254,2496.000,1426.000,7857.000,50.000,-4.000,-64.000,0.000,0.000,0
2026-01-30 23:14:42,769294,2491.000,1406.000,7878.000,11.000,39.000,-105.000,0.000,0.000,0
2026-01-30 23:14:42,769334,2504.000,1416.000,7911.000,-32.000,9.000,-104.000,0.000,0.000,0
2026-01-30 23:14:42,769374,2507.000,1394.000,7853.000,-70.000,-50.000,-42.000,0.000,0.000,0
2026-01-30 23:14:42,769414,2504.000,1425.000,7831.000,-65.000,-99.000,22.000,0.000,0.000,0
2026-01-30 23:14:42,769454,2524.000,1389.000,7895.000,-143.000,-102.000,51.000,0.000,0.000,0
2026-01-30 23:14:42,769494,2537.000,1334.000,7889.000,-72.000,-36.000,72.000,0.000,0.000,0
2026-01-30 23:14:42,769534,2483.000,1472.000,7883.000,85.000,8.000,85.000,0.000,0.000,0
2026-01-30 23:14:42,769574,2518.000,1338.000,7863.000,-97.000,-58.000,66.000,0.000,0.000,0
2026-01-30 23:14:42,769614,2572.000,1244.000,7876.000,-82.000,-56.000,34.000,0.000,0.000,0
2026-01-30 23:14:42,769654,2511.000,1330.000,7866.000,37.000,12.000,3.000,0.000,0.000,0
2026-01-30 23:14:42,769694,2471.000,1353.000,7809.000,34.000,22.000,-10.000,0.000,0.000,0
2026-01-30 23:14:42,769734,2490.000,1367.000,7857.000,5.000,2.000,-21.000,0.000,0.000,0
2026-01-30 23:14:42,769774,2505.000,1315.000,7897.000,-5.000,32.000,-8.000,0.000,0.000,0
2026-01-30 23:14:42,769814,2516.000,1358.000,7963.000,35.000,40.000,12.000,0.000,0.000,0
2026-01-30 23:14:42,769854,2481.000,1365.000,7922.000,36.000,19.000,23.000,0.000,0.000,0
2026-01-30 23:14:42,769894,2463.000,1336.000,7822.000,-33.000,-69.000,23.000,0.000,0.000,0
2026-01-30 23:14:42,769934,2469.000,1295.000,7872.000,-75.000,-111.000,-21.000,0.000,0.000,0
2026-01-30 23:14:42,769974,2488.000,1250.000,7845.000,-69.000,-113.000,-37.000,0.000,0.000,0
2026-01-30 23:14:42,770014,2544.000,1341.000,7846.000,29.000,-69.000,-46.000,0.000,0.000,0
2026-01-30 23:14:42,770054,2563.000,1384.000,7906.000,-62.000,-35.000,-33.000,0.000,0.000,0
2026-01-30 23:14:42,770094,2607.000,1283.000,7976.000,-44.000,-45.000,-16.000,0.000,0.000,0
2026-01-30 23:14:43,770134,2578.000,1277.000,7890.000,39.000,-38.000,6.000,0.000,0.000,0
2026-01-30 23:14:43,770174,2546.000,1342.000,7843.000,26.000,-77.000,3.000,0.000,0.000,0
2026-01-30 23:14:43,770214,2528.000,1313.000,7818.000,-29.000,-92.000,-27.000,0.000,0.000,0
2026-01-30 23:14:43,770254,2518.000,1334.000,7859.000,17.000,-60.000,-48.000,0.000,0.000,0
2026-01-30 23:14:43,770294,2563.000,1306.000,7904.000,-30.000,-46.000,-26.000,0.000,0.000,0
2026-01-30 23:14:43,770334,2577.000,1243.000,7916.000,-25.000,-42.000,11.000,0.000,0.000,0
2026-01-30 23:14:43,770374,2572.000,1166.000,7891.000,-46.000,-81.000,84.000,0.000,0.000,0
2026-01-30 23:14:43,770414,2583.000,954.000,7916.000,-172.000,-145.000,167.000,0.000,0.000,0
2026-01-30 23:14:43,770454,2605.000,696.000,8032.000,-192.000,-144.000,231.000,0.000,0.000,0
2026-01-30 23:14:43,770494,2615.000,629.000,8090.000,-149.000,-178.000,282.000,0.000,0.000,0
2026-01-30 23:14:43,770534,2571.000,797.000,7977.000,-37.000,-214.000,283.000,0.000,0.000,0
2026-01-30 23:14:43,770574,2556.000,942.000,7841.000,-82.000,-251.000,234.000,0.000,0.000,0
2026-01-30 23:14:43,770614,2575.000,981.000,7762.000,-102.000,-197.000,156.000,0.000,0.000,0
2026-01-30 23:14:43,770656,2597.000,1054.000,7625.000,5.000,1.000,2.000,0.000,0.000,0
2026-01-30 23:14:43,770694,2576.000,1023.000,7790.000,45.000,136.000,-103.000,0.000,0.000,0
2026-01-30 23:14:43,770734,2575.000,1002.000,8044.000,58.000,229.000,-156.000,0.000,0.000,0
2026-01-30 23:14:43,770774,2587.000,953.000,8089.000,140.000,245.000,-164.000,0.000,0.000,0
2026-01-30 23:14:43,770814,2588.000,947.000,7958.000,106.000,137.000,-115.000,0.000,0.000,0
2026-01-30 23:14:43,770854,2628.000,940.000,7902.000,-46.000,-22.000,-61.000,0.000,0.000,0
2026-01-30 23:14:43,770894,2666.000,802.000,7861.000,-136.000,-66.000,-17.000,0.000,0.000,0
2026-01-30 23:14:43,770934,2669.000,861.000,7865.000,6.000,16.000,3.000,0.000,0.000,0
2026-01-30 23:14:43,770974,2644.000,1053.000,7916.000,99.000,76.000,15.000,0.000,0.000,0
2026-01-30 23:14:43,771014,2620.000,1108.000,7892.000,64.000,80.000,39.000,0.000,0.000,0
2026-01-30 23:14:43,771054,2574.000,1082.000,7866.000,10.000,59.000,50.000,0.000,0.000,0
2026-01-30 23:14:43,771094,2527.000,1019.000,7892.000,-7.000,68.000,36.000,0.000,0.000,0
2026-01-30 23:14:44,771134,2499.000,941.000,7948.000,-27.000,65.000,36.000,0.000,0.000,0
2026-01-30 23:14:44,771174,2472.000,918.000,7970.000,19.000,56.000,25.000,0.000,0.000,0
2026-01-30 23:14:44,771214,2512.000,948.000,7988.000,9.000,9.000,20.000,0.000,0.000,0
2026-01-30 23:14:44,771254,2589.000,916.000,7917.000,-54.000,-35.000,24.000,0.000,0.000,0
2026-01-30 23:14:44,771294,2593.000,950.000,7893.000,-37.000,-6.000,22.000,0.000,0.000,0
2026-01-30 23:14:44,771334,2571.000,962.000,7887.000,-27.000,15.000,16.000,0.000,0.000,0
2026-01-30 23:14:44,771374,2572.000,973.000,7891.000,45.000,53.000,6.000,0.000,0.000,0
2026-01-30 23:14:44,771414,2564.000,1086.000,7886.000,35.000,58.000,12.000,0.000,0.000,0
2026-01-30 23:14:44,771454,2554.000,971.000,7905.000,-22.000,43.000,11.000,0.000,0.000,0
2026-01-30 23:14:44,771494,2525.000,923.000,7949.000,21.000,55.000,8.000,0.000,0.000,0
2026-01-30 23:14:44,771534,2505.000,924.000,7962.000,34.000,46.000,2.000,0.000,0.000,0
2026-01-30 23:14:44,771574,2493.000,960.000,8002.000,17.000,13.000,3.000,0.000,0.000,0
2026-01-30 23:14:44,771614,2528.000,973.000,7942.000,-23.000,-26.000,13.000,0.000,0.000,0
2026-01-30 23:14:44,771654,2572.000,990.000,7884.000,-6.000,-21.000,16.000,0.000,0.000,0
2026-01-30 23:14:44,771694,2563.000,1020.000,7863.000,7.000,3.000,6.000,0.000,0.000,0
2026-01-30 23:14:44,771734,2538.000,1034.000,7900.000,11.000,26.000,1.000,0.000,0.000,0
2026-01-30 23:14:44,771774,2517.000,1006.000,7932.000,18.000,43.000,4.000,0.000,0.000,0
2026-01-30 23:14:44,771814,2522.000,1001.000,7978.000,9.000,24.000,22.000,0.000,0.000,0
2026-01-30 23:14:44,771854,2531.000,972.000,7946.000,-22.000,-8.000,29.000,0.000,0.000,0
2026-01-30 23:14:44,771894,2525.000,933.000,7922.000,-17.000,-12.000,23.000,0.000,0.000,0
2026-01-30 23:14:44,771934,2521.000,951.000,7904.000,-1.000,-6.000,10.000,0.000,0.000,0
2026-01-30 23:14:44,771974,2533.000,988.000,7924.000,13.000,-10.000,3.000,0.000,0.000,0
2026-01-30 23:14:44,772014,2529.000,1002.000,7897.000,2.000,-4.000,-6.000,0.000,0.000,0
2026-01-30 23:14:44,772054,2552.000,1018.000,7919.000,5.000,5.000,-2.000,0.000,0.000,0
2026-01-30 23:14:44,772094,2554.000,1033.000,7924.000,26.000,33.000,11.000,0.000,0.000,0
2026-01-30 23:14:45,772134,2473.000,1042.000,7943.000,17.000,48.000,33.000,0.000,0.000,0
2026-01-30 23:14:45,772174,2505.000,921.000,7960.000,-55.000,-5.000,30.000,0.000,0.000,0
2026-01-30 23:14:45,772214,2535.000,972.000,7909.000,39.000,5.000,19.000,0.000,0.000,0
2026-01-30 23:14:45,772254,2530.000,988.000,7901.000,-42.000,-25.000,-3.000,0.000,0.000,0
2026-01-30 23:14:45,772294,2537.000,950.000,7940.000,-37.000,-19.000,-13.000,0.000,0.000,0
2026-01-30 23:14:45,772334,2547.000,958.000,7910.000,23.000,14.000,10.000,0.000,0.000,0
2026-01-30 23:14:45,772374,2538.000,1024.000,7916.000,41.000,28.000,17.000,0.000,0.000,0
2026-01-30 23:14:45,772414,2507.000,1011.000,7949.000,-19.000,12.000,7.000,0.000,0.000,0
2026-01-30 23:14:45,772454,2501.000,988.000,7946.000,-23.000,-4.000,14.000,0.000,0.000,0
2026-01-30 23:14:45,772494,2518.000,980.000,7922.000,-4.000,-1.000,8.000,0.000,0.000,0
2026-01-30 23:14:45,772534,2507.000,982.000,7919.000,5.000,3.000,-2.000,0.000,0.000,0
2026-01-30 23:14:45,772574,2510.000,976.000,7938.000,-22.000,-15.000,-1.000,0.000,0.000,0
2026-01-30 23:14:45,772614,2541.000,987.000,7928.000,-6.000,-20.000,0.000,0.000,0.000,0
2026-01-30 23:14:45,772654,2555.000,995.000,7924.000,-7.000,-10.000,2.000,0.000,0.000,0
2026-01-30 23:14:45,772694,2553.000,1000.000,7904.000,-5.000,-10.000,8.000,0.000,0.000,0
2026-01-30 23:14:45,772734,2544.000,995.000,7907.000,-5.000,-6.000,15.000,0.000,0.000,0
2026-01-30 23:14:45,772774,2524.000,993.000,7925.000,-1.000,0.000,14.000,0.000,0.000,0
2026-01-30 23:14:45,772814,2501.000,972.000,7932.000,-11.000,2.000,14.000,0.000,0.000,0
2026-01-30 23:14:45,772854,2504.000,982.000,7968.000,11.000,-6.000,14.000,0.000,0.000,0
2026-01-30 23:14:45,772894,2510.000,984.000,7929.000,-9.000,-18.000,2.000,0.000,0.000,0
2026-01-30 23:14:45,772934,2571.000,964.000,7912.000,-28.000,-26.000,0.000,0.000,0.000,0
2026-01-30 23:14:45,772974,2529.000,1008.000,7912.000,13.000,25.000,2.000,0.000,0.000,0
2026-01-30 23:14:45,773014,2480.000,995.000,7924.000,-19.000,12.000,3.000,0.000,0.000,0
2026-01-30 23:14:45,773054,2536.000,969.000,7956.000,-7.000,-2.000,3.000,0.000,0.000,0
2026-01-30 23:14:45,773094,2573.000,1046.000,7908.000,34.000,7.000,23.000,0.000,0.000,0
2026-01-30 23:14:46,773134,2569.000,972.000,7904.000,-72.000,-19.000,23.000,0.000,0.000,0
2026-01-30 23:14:46,773174,2529.000,926.000,7952.000,-21.000,5.000,24.000,0.000,0.000,0
2026-01-30 23:14:46,773214,2491.000,978.000,7926.000,39.000,24.000,24.000,0.000,0.000,0
2026-01-30 23:14:46,773254,2488.000,961.000,7926.000,-13.000,6.000,12.000,0.000,0.000,0
2026-01-30 23:14:46,773294,2496.000,974.000,7930.000,2.000,-4.000,0.000,0.000,0.000,0
2026-01-30 23:14:46,773334,2546.000,999.000,7912.000,2.000,-6.000,-4.000,0.000,0.000,0
2026-01-30 23:14:46,773374,2543.000,1004.000,7923.000,6.000,6.000,-13.000,0.000,0.000,0
2026-01-30 23:14:46,773414,2518.000,998.000,7937.000,-6.000,-3.000,-7.000,0.000,0.000,0
2026-01-30 23:14:46,773454,2539.000,984.000,7933.000,-14.000,-13.000,12.000,0.000,0.000,0
2026-01-30 23:14:46,773494,2540.000,971.000,7923.000,-10.000,-7.000,18.000,0.000,0.000,0
2026-01-30 23:14:46,773534,2532.000,973.000,7930.000,-29.000,-15.000,22.000,0.000,0.000,0
2026-01-30 23:14:46,773574,2535.000,951.000,7909.000,-20.000,-8.000,25.000,0.000,0.000,0
2026-01-30 23:14:46,773614,2518.000,988.000,7917.000,12.000,5.000,15.000,0.000,0.000,0
2026-01-30 23:14:46,773654,2521.000,991.000,7945.000,-23.000,-7.000,8.000,0.000,0.000,0
2026-01-30 23:14:46,773694,2529.000,973.000,7953.000,-14.000,-2.000,8.000,0.000,0.000,0
2026-01-30 23:14:46,773734,2516.000,980.000,7916.000,24.000,-12.000,12.000,0.000,0.000,0
2026-01-30 23:14:46,773774,2514.000,987.000,7904.000,28.000,-5.000,-6.000,0.000,0.000,0
2026-01-30 23:14:46,773814,2555.000,971.000,7926.000,3.000,-2.000,-8.000,0.000,0.000,0
2026-01-30 23:14:46,773854,2555.000,982.000,7916.000,9.000,23.000,5.000,0.000,0.000,0
2026-01-30 23:14:46,773894,2484.000,1023.000,7932.000,4.000,32.000,23.000,0.000,0.000,0
2026-01-30 23:14:46,773934,2501.000,944.000,7949.000,-52.000,-5.000,20.000,0.000,0.000,0
2026-01-30 23:14:46,773974,2556.000,986.000,7936.000,24.000,7.000,19.000,0.000,0.000,0
2026-01-30 23:14:46,774014,2558.000,1038.000,7905.000,-33.000,-10.000,19.000,0.000,0.000,0
2026-01-30 23:14:46,774054,2543.000,926.000,7924.000,-100.000,-23.000,10.000,0.000,0.000,0
2026-01-30 23:14:46,774094,2506.000,946.000,7919.000,-39.000,-3.000,11.000,0.000,0.000,0
2026-01-30 23:14:47,774134,2506.000,978.000,7947.000,21.000,26.000,0.000,0.000,0.000,0
2026-01-30 23:14:47,774174,2509.000,972.000,7954.000,-11.000,7.000,-2.000,0.000,0.000,0
2026-01-30 23:14:47,774214,2529.000,969.000,7941.000,-4.000,-4.000,2.000,0.000,0.000,0
2026-01-30 23:14:47,774254,2541.000,974.000,7917.000,6.000,-1.000,1.000,0.000,0.000,0
2026-01-30 23:14:47,774294,2517.000,976.000,7921.000,-6.000,-3.000,-6.000,0.000,0.000,0
2026-01-30 23:14:47,774334,2521.000,984.000,7938.000,-1.000,2.000,0.000,0.000,0.000,0
2026-01-30 23:14:47,774374,2521.000,977.000,7924.000,6.000,9.000,4.000,0.000,0.000,0
2026-01-30 23:14:47,774414,2523.000,959.000,7927.000,-7.000,2.000,3.000,0.000,0.000,0
2026-01-30 23:14:47,774454,2531.000,991.000,7948.000,9.000,5.000,-1.000,0.000,0.000,0
2026-01-30 23:14:47,774494,2548.000,961.000,7928.000,31.000,-1.000,4.000,0.000,0.000,0
2026-01-30 23:14:47,774536,2532.000,980.000,7929.000,39.000,-4.000,-5.000,0.000,0.000,0
2026-01-30 23:14:47,774575,2500.000,973.000,7913.000,42.000,-8.000,13.000,0.000,0.000,0
2026-01-30 23:14:47,774614,2489.000,985.000,7927.000,-10.000,7.000,2.000,0.000,0.000,0
2026-01-30 23:14:47,774656,2508.000,1001.000,7929.000,-34.000,-15.000,1.000,0.000,0.000,0
2026-01-30 23:14:47,774694,2544.000,988.000,7935.000,-10.000,-10.000,-5.000,0.000,0.000,0
2026-01-30 23:14:47,774734,2560.000,976.000,7905.000,-1.000,11.000,1.000,0.000,0.000,0
2026-01-30 23:14:47,774774,2509.000,1022.000,7934.000,9.000,39.000,13.000,0.000,0.000,0
2026-01-30 23:14:47,774814,2475.000,970.000,7949.000,-34.000,18.000,16.000,0.000,0.000,0
2026-01-30 23:14:47,774854,2540.000,991.000,7920.000,39.000,14.000,16.000,0.000,0.000,0
2026-01-30 23:14:47,774894,2543.000,1026.000,7902.000,-16.000,-3.000,13.000,0.000,0.000,0
2026-01-30 23:14:47,774934,2533.000,930.000,7923.000,-68.000,-12.000,7.000,0.000,0.000,0
2026-01-30 23:14:47,774974,2507.000,979.000,7921.000,42.000,26.000,12.000,0.000,0.000,0
2026-01-30 23:14:47,775014,2489.000,994.000,7930.000,13.000,24.000,6.000,0.000,0.000,0
2026-01-30 23:14:47,775054,2490.000,988.000,7967.000,4.000,14.000,1.000,0.000,0.000,0
2026-01-30 23:14:47,775094,2526.000,985.000,7932.000,43.000,4.000,1.000,0.000,0.000,0
2026-01-30 23:14:48,775134,2543.000,968.000,7917.000,29.000,-3.000,-11.000,0.000,0.000,0
2026-01-30 23:14:48,775174,2487.000,1017.000,7898.000,10.000,8.000,1.000,0.000,0.000,0
2026-01-30 23:14:48,775214,2498.000,984.000,7940.000,-21.000,-3.000,1.000,0.000,0.000,0
2026-01-30 23:14:48,775254,2534.000,981.000,7932.000,-24.000,-5.000,16.000,0.000,0.000,0
2026-01-30 23:14:48,775294,2527.000,983.000,7934.000,-12.000,4.000,13.000,0.000,0.000,0
2026-01-30 23:14:48,775334,2511.000,987.000,7924.000,6.000,8.000,9.000,0.000,0.000,0
2026-01-30 23:14:48,775374,2504.000,993.000,7932.000,-6.000,4.000,-2.000,0.000,0.000,0
2026-01-30 23:14:48,775414,2509.000,984.000,7943.000,-8.000,5.000,3.000,0.000,0.000,0
2026-01-30 23:14:48,775454,2517.000,984.000,7931.000,-10.000,2.000,9.000,0.000,0.000,0
2026-01-30 23:14:48,775494,2516.000,999.000,7949.000,2.000,-1.000,16.000,0.000,0.000,0
2026-01-30 23:14:48,775534,2506.000,994.000,7933.000,-17.000,-20.000,15.000,0.000,0.000,0
2026-01-30 23:14:48,775574,2557.000,975.000,7914.000,-19.000,-20.000,17.000,0.000,0.000,0
2026-01-30 23:14:48,775614,2502.000,1012.000,7914.000,29.000,40.000,20.000,0.000,0.000,0
2026-01-30 23:14:48,775654,2456.000,1001.000,7949.000,-15.000,22.000,22.000,0.000,0.000,0
2026-01-30 23:14:48,775694,2506.000,929.000,7965.000,-27.000,7.000,18.000,0.000,0.000,0
2026-01-30 23:14:48,775734,2523.000,1013.000,7915.000,71.000,28.000,14.000,0.000,0.000,0
2026-01-30 23:14:48,775774,2503.000,1023.000,7924.000,-22.000,-5.000,3.000,0.000,0.000,0
2026-01-30 23:14:48,775814,2504.000,933.000,7935.000,-46.000,-10.000,-3.000,0.000,0.000,0
2026-01-30 23:14:48,775854,2513.000,976.000,7929.000,41.000,17.000,-8.000,0.000,0.000,0
2026-01-30 23:14:48,775894,2493.000,1002.000,7930.000,16.000,19.000,-9.000,0.000,0.000,0
2026-01-30 23:14:48,775934,2489.000,924.000,7908.000,-31.000,-11.000,20.000,0.000,0.000,0
2026-01-30 23:14:48,775974,2554.000,737.000,8007.000,-119.000,-31.000,55.000,0.000,0.000,0
2026-01-30 23:14:48,776014,2524.000,566.000,8061.000,-44.000,2.000,95.000,0.000,0.000,0
2026-01-30 23:14:48,776054,2390.000,637.000,8018.000,25.000,6.000,144.000,0.000,0.000,0
2026-01-30 23:14:48,776094,2330.000,694.000,7966.000,-21.000,-43.000,158.000,0.000,0.000,0
2026-01-30 23:14:49,776134,2403.000,670.000,7966.000,-126.000,-99.000,139.000,0.000,0.000,0
2026-01-30 23:14:49,776174,2491.000,540.000,7957.000,-153.000,-80.000,104.000,0.000,0.000,0
2026-01-30 23:14:49,776214,2529.000,508.000,7991.000,-98.000,-49.000,79.000,0.000,0.000,0
2026-01-30 23:14:49,776254,2508.000,422.000,8007.000,-136.000,-49.000,77.000,0.000,0.000,0
2026-01-30 23:14:49,776294,2477.000,346.000,8020.000,-123.000,-49.000,79.000,0.000,0.000,0
2026-01-30 23:14:49,776334,2450.000,241.000,8020.000,-150.000,-43.000,107.000,0.000,0.000,0
2026-01-30 23:14:49,776374,2452.000,165.000,7996.000,-132.000,-50.000,160.000,0.000,0.000,0
2026-01-30 23:14:49,776414,2482.000,65.000,8091.000,-172.000,-49.000,180.000,0.000,0.000,0
2026-01-30 23:14:49,776454,2493.000,13.000,8056.000,-140.000,-11.000,187.000,0.000,0.000,0
2026-01-30 23:14:49,776496,2443.000,67.000,8052.000,-79.000,7.000,188.000,0.000,0.000,0
2026-01-30 23:14:49,776536,2429.000,-20.000,8089.000,-179.000,-32.000,178.000,0.000,0.000,0
2026-01-30 23:14:49,776574,2370.000,-249.000,8153.000,-139.000,-34.000,213.000,0.000,0.000,0
2026-01-30 23:14:49,776614,2376.000,-221.000,8202.000,-43.000,-63.000,225.000,0.000,0.000,0
