datetime_local,uptime_ms,acc_x,acc_y,acc_z,gyro_x,gyro_y,gyro_z,speed_mps,turn_rate_deg_s,gps_valid
2026-01-31 00:11:11,1182374,-2165.000,-6633.000,5011.000,-243.000,81.000,54.000,0.000,0.000,0
2026-01-31 00:11:11,1182414,-2284.000,-6408.000,5092.000,-163.000,20.000,24.000,0.000,0.000,0
2026-01-31 00:11:11,1182454,-2326.000,-6196.000,5016.000,-198.000,25.000,18.000,0.000,0.000,0
2026-01-31 00:11:11,1182494,-2367.000,-6679.000,5021.000,-303.000,102.000,6.000,0.000,0.000,0
2026-01-31 00:11:11,1182534,-2296.000,-6433.000,4917.000,66.000,137.000,-19.000,0.000,0.000,0
2026-01-31 00:11:11,1182574,-2337.000,-6268.000,4812.000,-217.000,214.000,24.000,0.000,0.000,0
2026-01-31 00:11:11,1182614,-2496.000,-6868.000,4695.000,-281.000,218.000,23.000,0.000,0.000,0
2026-01-31 00:11:11,1182654,-2410.000,-6314.000,4711.000,225.000,80.000,-44.000,0.000,0.000,0
2026-01-31 00:11:11,1182695,-2370.000,-6544.000,4795.000,117.000,-10.000,-80.000,0.000,0.000,0
2026-01-31 00:11:11,1182735,-2209.000,-6616.000,4884.000,138.000,-121.000,-119.000,0.000,0.000,0
2026-01-31 00:11:11,1182774,-2101.000,-6581.000,5110.000,190.000,-230.000,-79.000,0.000,0.000,0
2026-01-31 00:11:12,1182814,-2017.000,-6406.000,5050.000,183.000,-260.000,-70.000,0.000,0.000,0
2026-01-31 00:11:12,1182854,-1957.000,-6234.000,5017.000,-34.000,-245.000,-40.000,0.000,0.000,0
2026-01-31 00:11:12,1182894,-2009.000,-6641.000,4979.000,-281.000,-249.000,-33.000,0.000,0.000,0
2026-01-31 00:11:12,1182934,-1775.000,-6667.000,4857.000,-113.000,-238.000,-16.000,0.000,0.000,0
2026-01-31 00:11:12,1182974,-1686.000,-6760.000,4927.000,256.000,-361.000,9.000,0.000,0.000,0
2026-01-31 00:11:12,1183014,-2127.000,-6386.000,4865.000,39.000,-43.000,137.000,0.000,0.000,0
2026-01-31 00:11:12,1183054,-2422.000,-6630.000,4875.000,-208.000,117.000,176.000,0.000,0.000,0
2026-01-31 00:11:12,1183094,-2545.000,-6639.000,4882.000,167.000,92.000,77.000,0.000,0.000,0
2026-01-31 00:11:12,1183134,-2429.000,-6299.000,4926.000,228.000,73.000,57.000,0.000,0.000,0
2026-01-31 00:11:12,1183174,-2407.000,-6743.000,4965.000,58.000,123.000,38.000,0.000,0.000,0
2026-01-31 00:11:12,1183214,-2347.000,-6388.000,5023.000,213.000,104.000,15.000,0.000,0.000,0
2026-01-31 00:11:12,1183254,-2242.000,-6605.000,5008.000,-99.000,115.000,41.000,0.000,0.000,0
2026-01-31 00:11:12,1183294,-2172.000,-6570.000,5031.000,37.000,89.000,14.000,0.000,0.000,0
2026-01-31 00:11:12,1183334,-2045.000,-6312.000,5050.000,173.000,36.000,-40.000,0.000,0.000,0
2026-01-31 00:11:12,1183374,-1983.000,-6331.000,5084.000,-14.000,53.000,-57.000,0.000,0.000,0
2026-01-31 00:11:12,1183414,-2076.000,-6354.000,5098.000,41.000,29.000,-22.000,0.000,0.000,0
2026-01-31 00:11:12,1183454,-2056.000,-6275.000,5174.000,148.000,-17.000,19.000,0.000,0.000,0
2026-01-31 00:11:12,1183494,-2036.000,-6520.000,5254.000,281.000,-47.000,44.000,0.000,0.000,0
2026-01-31 00:11:12,1183534,-2028.000,-6251.000,5238.000,82.000,-3.000,19.000,0.000,0.000,0
2026-01-31 00:11:12,1183574,-2065.000,-6711.000,5145.000,-47.000,68.000,-62.000,0.000,0.000,0
2026-01-31 00:11:12,1183614,-2140.000,-6524.000,4962.000,93.000,101.000,-94.000,0.000,0.000,0
2026-01-31 00:11:12,1183654,-2267.000,-6541.000,4923.000,-70.000,87.000,-58.000,0.000,0.000,0
2026-01-31 00:11:12,1183694,-2358.000,-6886.000,4725.000,-123.000,19.000,-120.000,0.000,0.000,0
2026-01-31 00:11:12,1183734,-2432.000,-6685.000,4670.000,-121.000,-27.000,-167.000,0.000,0.000,0
2026-01-31 00:11:12,1183774,-2398.000,-6845.000,4570.000,-183.000,-70.000,-137.000,0.000,0.000,0
2026-01-31 00:11:13,1183814,-2490.000,-6635.000,4623.000,-95.000,-86.000,-14.000,0.000,0.000,0
2026-01-31 00:11:13,1183854,-2522.000,-6625.000,4581.000,-212.000,-119.000,77.000,0.000,0.000,0
2026-01-31 00:11:13,1183894,-2542.000,-6805.000,4405.000,-175.000,-97.000,-33.000,0.000,0.000,0
2026-01-31 00:11:13,1183934,-2654.000,-6713.000,4355.000,-39.000,-81.000,-137.000,0.000,0.000,0
2026-01-31 00:11:13,1183974,-2686.000,-6965.000,4251.000,-127.000,-73.000,-150.000,0.000,0.000,0
2026-01-31 00:11:13,1184014,-2657.000,-7044.000,4310.000,146.000,-106.000,-155.000,0.000,0.000,0
2026-01-31 00:11:13,1184054,-2639.000,-6844.000,4407.000,262.000,-68.000,-123.000,0.000,0.000,0
2026-01-31 00:11:13,1184096,-2467.000,-6756.000,4210.000,346.000,-92.000,-188.000,0.000,0.000,0
2026-01-31 00:11:13,1184138,-2738.000,-6521.000,4198.000,443.000,4.000,-335.000,0.000,0.000,0
2026-01-31 00:11:13,1184174,-2775.000,-6698.000,4015.000,717.000,-37.000,-541.000,0.000,0.000,0
2026-01-31 00:11:13,1184214,-2661.000,-6766.000,4092.000,1330.000,-184.000,-875.000,0.000,0.000,0
2026-01-31 00:11:13,1184254,-2415.000,-6165.000,4465.000,2013.000,-206.000,-1223.000,0.000,0.000,0
2026-01-31 00:11:13,1184294,-2120.000,-5732.000,4605.000,2364.000,-174.000,-1564.000,0.000,0.000,0
2026-01-31 00:11:13,1184334,-1907.000,-5312.000,4917.000,2682.000,-187.000,-1709.000,0.000,0.000,0
2026-01-31 00:11:13,1184375,-1675.000,-5528.000,5352.000,2510.000,-6.000,-1676.000,0.000,0.000,0
2026-01-31 00:11:13,1184414,-1763.000,-5577.000,5446.000,2730.000,91.000,-1593.000,0.000,0.000,0
2026-01-31 00:11:13,1184454,-1741.000,-5954.000,5485.000,2865.000,57.000,-1613.000,0.000,0.000,0
2026-01-31 00:11:13,1184494,-1601.000,-5453.000,5304.000,3332.000,-332.000,-1562.000,0.000,0.000,0
2026-01-31 00:11:13,1184534,-1648.000,-5334.000,5520.000,2756.000,-719.000,-1657.000,0.000,0.000,0
2026-01-31 00:11:13,1184574,-1385.000,-5308.000,5719.000,3100.000,-1653.000,-1621.000,0.000,0.000,0
2026-01-31 00:11:13,1184614,-928.000,-5163.000,6256.000,3913.000,-2689.000,-1592.000,0.000,0.000,0
2026-01-31 00:11:13,1184654,899.000,-3416.000,7269.000,4000.000,-4081.000,-1422.000,0.000,0.000,0
2026-01-31 00:11:13,1184694,1481.000,-3920.000,8280.000,2505.000,-3778.000,-1740.000,0.000,0.000,0
2026-01-31 00:11:13,1184734,2256.000,-3373.000,8479.000,2904.000,-3682.000,-1669.000,0.000,0.000,0
2026-01-31 00:11:13,1184774,2391.000,-2760.000,8976.000,2716.000,-3297.000,-1388.000,0.000,0.000,0
2026-01-31 00:11:14,1184814,2481.000,-3534.000,9406.000,3077.000,-2283.000,-1361.000,0.638,0.000,1
2026-01-31 00:11:14,1184854,3292.000,-2893.000,10648.000,4020.000,-961.000,-1489.000,0.638,0.000,1
2026-01-31 00:11:14,1184894,1990.000,-1435.000,8848.000,4846.000,253.000,-1532.000,0.638,0.000,1
2026-01-31 00:11:14,1184934,1425.000,-799.000,7519.000,4010.000,77.000,-1287.000,0.000,0.000,0
2026-01-31 00:11:14,1184974,1386.000,-1216.000,7673.000,3045.000,-736.000,-1981.000,0.000,0.000,0
2026-01-31 00:11:14,1185014,1649.000,-1092.000,8050.000,4000.000,-1336.000,-2151.000,0.000,0.000,0
2026-01-31 00:11:14,1185054,2447.000,-1130.000,8541.000,2290.000,-1759.000,-1173.000,0.000,0.000,0
2026-01-31 00:11:14,1185094,2709.000,-2211.000,9113.000,1217.000,-1086.000,-20.000,0.000,0.000,0
2026-01-31 00:11:14,1185134,2586.000,-1173.000,8430.000,2701.000,-748.000,244.000,0.000,0.000,0
2026-01-31 00:11:14,1185174,2308.000,-172.000,8231.000,2254.000,-474.000,819.000,0.000,0.000,0
2026-01-31 00:11:14,1185214,2397.000,335.000,7976.000,1543.000,-365.000,631.000,0.000,0.000,0
2026-01-31 00:11:14,1185254,2417.000,507.000,8305.000,963.000,-423.000,404.000,0.000,0.000,0
2026-01-31 00:11:14,1185294,2449.000,360.000,8639.000,-417.000,-219.000,283.000,0.000,0.000,0
2026-01-31 00:11:14,1185334,2496.000,-101.000,8414.000,-849.000,-83.000,33.000,0.000,0.000,0
2026-01-31 00:11:14,1185374,2329.000,-572.000,7754.000,-1483.000,-90.000,138.000,0.000,0.000,0
2026-01-31 00:11:14,1185414,2521.000,-1271.000,7956.000,-984.000,-367.000,192.000,0.000,0.000,0
2026-01-31 00:11:14,1185454,2834.000,-1050.000,8523.000,-112.000,-219.000,124.000,0.000,0.000,0
2026-01-31 00:11:14,1185494,2655.000,-599.000,8196.000,-27.000,1.000,191.000,0.000,0.000,0
2026-01-31 00:11:14,1185534,2295.000,-681.000,8058.000,-4.000,22.000,15.000,0.000,0.000,0
2026-01-31 00:11:14,1185574,2110.000,-641.000,8098.000,-133.000,-137.000,-143.000,0.000,0.000,0
2026-01-31 00:11:14,1185614,2424.000,-977.000,7999.000,-539.000,-181.000,-92.000,0.000,0.000,0
2026-01-31 00:11:14,1185654,2394.000,-1060.000,8169.000,-439.000,-125.000,-69.000,0.000,0.000,0
2026-01-31 00:11:14,1185694,2438.000,-879.000,8451.000,-138.000,-30.000,25.000,0.000,0.000,0
2026-01-31 00:11:14,1185734,2656.000,-512.000,8387.000,-36.000,-54.000,73.000,0.000,0.000,0
2026-01-31 00:11:14,1185774,2506.000,-726.000,7962.000,-688.000,-88.000,100.000,0.000,0.000,0
2026-01-31 00:11:15,1185814,2542.000,-1395.000,7674.000,-405.000,-232.000,55.000,1.029,0.000,1
2026-01-31 00:11:15,1185854,2470.000,-1191.000,7605.000,346.000,-240.000,91.000,1.029,0.000,1
2026-01-31 00:11:15,1185894,2745.000,-767.000,8520.000,550.000,-180.000,59.000,1.029,0.000,1
2026-01-31 00:11:15,1185934,2657.000,-496.000,8486.000,-81.000,108.000,132.000,0.000,0.000,0
2026-01-31 00:11:15,1185974,2389.000,-905.000,7562.000,-905.000,82.000,102.000,0.000,0.000,0
2026-01-31 00:11:15,1186014,2634.000,-1474.000,7729.000,-851.000,-160.000,6.000,0.000,0.000,0
2026-01-31 00:11:15,1186054,2920.000,-1584.000,8353.000,-353.000,-67.000,73.000,0.000,0.000,0
2026-01-31 00:11:15,1186096,2699.000,-999.000,8207.000,-33.000,151.000,139.000,0.000,0.000,0
2026-01-31 00:11:15,1186135,2345.000,-1075.000,7539.000,-624.000,34.000,163.000,0.000,0.000,0
2026-01-31 00:11:15,1186174,2638.000,-1939.000,8058.000,-850.000,-45.000,15.000,0.000,0.000,0
2026-01-31 00:11:15,1186214,2879.000,-1511.000,8624.000,307.000,149.000,93.000,0.000,0.000,0
2026-01-31 00:11:15,1186254,2600.000,-1020.000,8386.000,135.000,232.000,251.000,0.000,0.000,0
2026-01-31 00:11:15,1186294,2460.000,-1121.000,8250.000,-124.000,110.000,101.000,0.000,0.000,0
2026-01-31 00:11:15,1186334,2629.000,-1307.000,8141.000,-395.000,-73.000,38.000,0.000,0.000,0
2026-01-31 00:11:15,1186377,2694.000,-1583.000,8021.000,-233.000,107.000,-3.000,0.000,0.000,0
2026-01-31 00:11:15,1186414,2329.000,-1669.000,7817.000,65.000,238.000,86.000,0.000,0.000,0
2026-01-31 00:11:15,1186454,2197.000,-1402.000,7956.000,408.000,101.000,107.000,0.000,0.000,0
2026-01-31 00:11:15,1186494,2281.000,-1050.000,8132.000,467.000,32.000,-87.000,0.000,0.000,0
2026-01-31 00:11:15,1186534,2487.000,-1060.000,8214.000,247.000,47.000,-298.000,0.000,0.000,0
2026-01-31 00:11:15,1186574,2744.000,-962.000,8156.000,120.000,64.000,-204.000,0.000,0.000,0
2026-01-31 00:11:15,1186614,2529.000,-1089.000,7494.000,-385.000,-99.000,-5.000,0.000,0.000,0
2026-01-31 00:11:15,1186654,2525.000,-1588.000,7701.000,-355.000,-168.000,42.000,0.000,0.000,0
2026-01-31 00:11:15,1186694,2495.000,-1411.000,8085.000,372.000,19.000,59.000,0.000,0.000,0
2026-01-31 00:11:15,1186734,2411.000,-807.000,7961.000,378.000,135.000,45.000,0.000,0.000,0
2026-01-31 00:11:15,1186774,2300.000,-1067.000,7569.000,-324.000,-12.000,53.000,0.000,0.000,0
2026-01-31 00:11:16,1186814,2652.000,-1772.000,7909.000,-335.000,-141.000,-33.000,1.960,0.000,1
2026-01-31 00:11:16,1186854,2633.000,-1567.000,8152.000,177.000,47.000,79.000,1.960,0.000,1
2026-01-31 00:11:16,1186894,2363.000,-1048.000,7848.000,181.000,19.000,126.000,1.960,0.000,1
2026-01-31 00:11:16,1186934,2513.000,-1268.000,7761.000,-80.000,-39.000,-94.000,0.000,0.000,0
2026-01-31 00:11:16,1186974,2455.000,-1328.000,7608.000,-29.000,-73.000,41.000,0.000,0.000,0
2026-01-31 00:11:16,1187014,2668.000,-1603.000,8221.000,262.000,-55.000,119.000,0.000,0.000,0
2026-01-31 00:11:16,1187054,2743.000,-1385.000,8824.000,628.000,151.000,220.000,0.000,0.000,0
2026-01-31 00:11:16,1187094,2391.000,-717.000,8430.000,393.000,222.000,331.000,0.000,0.000,0
2026-01-31 00:11:16,1187134,2037.000,-787.000,7584.000,-475.000,-40.000,112.000,0.000,0.000,0
2026-01-31 00:11:16,1187174,2271.000,-1666.000,7468.000,-886.000,-309.000,-172.000,0.000,0.000,0
2026-01-31 00:11:16,1187214,2875.000,-1650.000,8439.000,310.000,-57.000,-335.000,0.000,0.000,0
2026-01-31 00:11:16,1187254,2571.000,-693.000,8201.000,560.000,259.000,36.000,0.000,0.000,0
2026-01-31 00:11:16,1187294,2174.000,-1203.000,7551.000,-548.000,-13.000,308.000,0.000,0.000,0
2026-01-31 00:11:16,1187334,2513.000,-1904.000,7932.000,-340.000,-101.000,-122.000,0.000,0.000,0
2026-01-31 00:11:16,1187374,2721.000,-855.000,7892.000,643.000,82.000,-292.000,0.000,0.000,0
2026-01-31 00:11:16,1187414,2802.000,-661.000,7995.000,256.000,42.000,-100.000,0.000,0.000,0
2026-01-31 00:11:16,1187454,2922.000,-1411.000,8416.000,29.000,-51.000,74.000,0.000,0.000,0
2026-01-31 00:11:16,1187494,2610.000,-651.000,8317.000,498.000,102.000,113.000,0.000,0.000,0
2026-01-31 00:11:16,1187534,2311.000,94.000,7522.000,254.000,40.000,-197.000,0.000,0.000,0
2026-01-31 00:11:16,1187574,2453.000,-349.000,7360.000,-415.000,-77.000,-335.000,0.000,0.000,0
2026-01-31 00:11:16,1187614,2906.000,-1264.000,7974.000,-166.000,-9.000,-294.000,0.000,0.000,0
2026-01-31 00:11:16,1187654,2942.000,-748.000,8539.000,919.000,266.000,-182.000,0.000,0.000,0
2026-01-31 00:11:16,1187694,2614.000,799.000,8252.000,1126.000,331.000,-193.000,0.000,0.000,0
2026-01-31 00:11:16,1187734,1936.000,676.000,6599.000,-813.000,-180.000,-167.000,0.000,0.000,0
2026-01-31 00:11:16,1187774,2796.000,-761.000,7480.000,-1038.000,-295.000,-576.000,0.000,0.000,0
2026-01-31 00:11:17,1187814,3464.000,-1480.000,9346.000,38.000,443.000,-466.000,6.013,0.000,1
2026-01-31 00:11:17,1187854,2586.000,250.000,8172.000,856.000,653.000,210.000,6.013,0.000,1
2026-01-31 00:11:17,1187894,2047.000,248.000,6603.000,-962.000,-283.000,433.000,6.013,0.000,1
2026-01-31 00:11:17,1187934,3021.000,-1584.000,7932.000,-1370.000,-492.000,60.000,0.000,0.000,0
2026-01-31 00:11:17,1187974,3453.000,-2010.000,9183.000,54.000,316.000,248.000,0.000,0.000,0
2026-01-31 00:11:17,1188014,2203.000,55.000,7438.000,827.000,317.000,827.000,0.000,0.000,0
2026-01-31 00:11:17,1188054,1993.000,-411.000,6920.000,-944.000,-630.000,677.000,0.000,0.000,0
2026-01-31 00:11:17,1188094,2732.000,-2247.000,8868.000,-452.000,14.000,404.000,0.000,0.000,0
2026-01-31 00:11:17,1188136,2406.000,-1395.000,8250.000,737.000,398.000,425.000,0.000,0.000,0
2026-01-31 00:11:17,1188174,2204.000,-612.000,8136.000,443.000,-49.000,353.000,0.000,0.000,0
2026-01-31 00:11:17,1188214,2356.000,-1211.000,8160.000,-477.000,-354.000,63.000,0.000,0.000,0
2026-01-31 00:11:17,1188254,2569.000,-1337.000,8184.000,-340.000,-191.000,-182.000,0.000,0.000,0
2026-01-31 00:11:17,1188294,2832.000,-1192.000,8579.000,-366.000,10.000,-379.000,0.000,0.000,0
2026-01-31 00:11:17,1188334,2581.000,-1197.000,7934.000,-582.000,87.000,-214.000,0.000,0.000,0
2026-01-31 00:11:17,1188376,2313.000,-1532.000,7509.000,-789.000,85.000,-42.000,0.000,0.000,0
2026-01-31 00:11:17,1188414,2423.000,-1897.000,7646.000,-424.000,16.000,-27.000,0.000,0.000,0
2026-01-31 00:11:17,1188454,2478.000,-1480.000,8004.000,262.000,31.000,45.000,0.000,0.000,0
2026-01-31 00:11:17,1188494,2458.000,-1348.000,8169.000,280.000,-115.000,85.000,0.000,0.000,0
2026-01-31 00:11:17,1188534,2541.000,-1337.000,8237.000,3.000,-81.000,-4.000,0.000,0.000,0
2026-01-31 00:11:17,1188574,2364.000,-1515.000,7700.000,-466.000,-109.000,-42.000,0.000,0.000,0
2026-01-31 00:11:17,1188614,2469.000,-1732.000,7638.000,-527.000,-228.000,-100.000,0.000,0.000,0
2026-01-31 00:11:17,1188654,2669.000,-1942.000,8039.000,-257.000,-184.000,22.000,0.000,0.000,0
2026-01-31 00:11:17,1188694,2626.000,-1714.000,8265.000,235.000,118.000,113.000,0.000,0.000,0
2026-01-31 00:11:17,1188734,2432.000,-1487.000,8041.000,129.000,68.000,152.000,0.000,0.000,0
2026-01-31 00:11:17,1188774,2349.000,-1560.000,7803.000,-240.000,-163.000,59.000,0.000,0.000,0
2026-01-31 00:11:18,1188814,2528.000,-1776.000,7921.000,-218.000,-123.000,-68.000,7.212,0.000,1
2026-01-31 00:11:18,1188854,2686.000,-1697.000,8055.000,-17.000,-68.000,-104.000,7.212,0.000,1
2026-01-31 00:11:18,1188894,2560.000,-1823.000,8095.000,43.000,-15.000,100.000,7.212,0.000,1
2026-01-31 00:11:18,1188934,2380.000,-1539.000,7840.000,42.000,-53.000,64.000,0.000,0.000,0
2026-01-31 00:11:18,1188974,2425.000,-1471.000,7694.000,-142.000,-137.000,-30.000,0.000,0.000,0
2026-01-31 00:11:18,1189014,2656.000,-1835.000,8051.000,-57.000,-46.000,-113.000,0.000,0.000,0
2026-01-31 00:11:18,1189054,2657.000,-1689.000,8020.000,149.000,66.000,18.000,0.000,0.000,0
2026-01-31 00:11:18,1189094,2540.000,-1495.000,7816.000,-32.000,10.000,82.000,0.000,0.000,0
2026-01-31 00:11:18,1189134,2558.000,-1720.000,7743.000,-211.000,-64.000,-51.000,0.000,0.000,0
2026-01-31 00:11:18,1189174,2740.000,-1874.000,7892.000,15.000,0.000,-40.000,0.000,0.000,0
2026-01-31 00:11:18,1189214,2593.000,-1613.000,7854.000,222.000,88.000,83.000,0.000,0.000,0
2026-01-31 00:11:18,1189254,2549.000,-1895.000,8162.000,142.000,20.000,115.000,0.000,0.000,0
2026-01-31 00:11:18,1189294,2508.000,-1487.000,8188.000,323.000,121.000,118.000,0.000,0.000,0
2026-01-31 00:11:18,1189334,2314.000,-1298.000,7829.000,-24.000,-5.000,142.000,0.000,0.000,0
2026-01-31 00:11:18,1189374,2547.000,-1801.000,8005.000,-318.000,-29.000,-105.000,0.000,0.000,0
2026-01-31 00:11:18,1189414,2695.000,-1888.000,7793.000,-124.000,62.000,-123.000,0.000,0.000,0
2026-01-31 00:11:18,1189454,2820.000,-1820.000,7848.000,26.000,-28.000,-47.000,0.000,0.000,0
2026-01-31 00:11:18,1189494,2802.000,-1871.000,8045.000,110.000,-38.000,85.000,0.000,0.000,0
2026-01-31 00:11:18,1189534,2562.000,-1587.000,7962.000,188.000,-6.000,139.000,0.000,0.000,0
2026-01-31 00:11:18,1189574,2419.000,-1367.000,7798.000,41.000,3.000,97.000,0.000,0.000,0
2026-01-31 00:11:18,1189614,2601.000,-2118.000,7802.000,-223.000,-39.000,58.000,0.000,0.000,0
2026-01-31 00:11:18,1189654,2639.000,-1873.000,7980.000,145.000,74.000,59.000,0.000,0.000,0
2026-01-31 00:11:18,1189694,2741.000,-1654.000,8032.000,194.000,46.000,65.000,0.000,0.000,0
2026-01-31 00:11:18,1189734,2894.000,-1902.000,8150.000,-24.000,61.000,-3.000,0.000,0.000,0
2026-01-31 00:11:18,1189774,2717.000,-1658.000,7701.000,6.000,-2.000,39.000,0.000,0.000,0
2026-01-31 00:11:19,1189814,2614.000,-1672.000,7486.000,-69.000,-134.000,28.000,6.651,0.000,1
2026-01-31 00:11:19,1189854,2924.000,-1875.000,8200.000,368.000,46.000,-135.000,6.651,0.000,1
2026-01-31 00:11:19,1189894,2624.000,-1186.000,7829.000,378.000,277.000,90.000,6.651,0.000,1
2026-01-31 00:11:19,1189934,2359.000,-1629.000,7273.000,-327.000,-28.000,254.000,0.000,0.000,0
2026-01-31 00:11:19,1189974,2590.000,-2283.000,8186.000,-73.000,-14.000,258.000,0.000,0.000,0
2026-01-31 00:11:19,1190014,2222.000,-1261.000,7922.000,561.000,192.000,328.000,0.000,0.000,0
2026-01-31 00:11:19,1190054,2421.000,-1470.000,7983.000,-130.000,10.000,70.000,0.000,0.000,0
2026-01-31 00:11:19,1190094,2484.000,-1864.000,7725.000,-325.000,-57.000,-48.000,0.000,0.000,0
2026-01-31 00:11:19,1190136,2897.000,-1921.000,8188.000,184.000,-38.000,-77.000,0.000,0.000,0
2026-01-31 00:11:19,1190175,3054.000,-1661.000,8708.000,526.000,177.000,61.000,0.000,0.000,0
2026-01-31 00:11:19,1190214,2648.000,-1388.000,8096.000,226.000,74.000,250.000,0.000,0.000,0
2026-01-31 00:11:19,1190254,2314.000,-1491.000,7531.000,-266.000,-172.000,172.000,0.000,0.000,0
2026-01-31 00:11:19,1190294,2345.000,-1754.000,7327.000,-270.000,-199.000,-57.000,0.000,0.000,0
2026-01-31 00:11:19,1190334,2718.000,-1907.000,7787.000,272.000,-33.000,-182.000,0.000,0.000,0
2026-01-31 00:11:19,1190376,2883.000,-1941.000,8080.000,844.000,214.000,40.000,0.000,0.000,0
2026-01-31 00:11:19,1190414,2706.000,-1376.000,8202.000,964.000,95.000,73.000,0.000,0.000,0
2026-01-31 00:11:19,1190454,2639.000,-962.000,8171.000,498.000,-4.000,18.000,0.000,0.000,0
2026-01-31 00:11:19,1190494,2446.000,-993.000,7938.000,344.000,-24.000,-175.000,0.000,0.000,0
2026-01-31 00:11:19,1190534,2382.000,-994.000,7666.000,145.000,-25.000,-168.000,0.000,0.000,0
2026-01-31 00:11:19,1190574,2552.000,-1419.000,8036.000,-79.000,108.000,-74.000,0.000,0.000,0
2026-01-31 00:11:19,1190614,2504.000,-1549.000,8245.000,573.000,288.000,89.000,0.000,0.000,0
2026-01-31 00:11:19,1190654,2206.000,-874.000,8023.000,1183.000,268.000,102.000,0.000,0.000,0
2026-01-31 00:11:19,1190694,2389.000,-655.000,8193.000,483.000,-143.000,17.000,0.000,0.000,0
2026-01-31 00:11:19,1190734,2569.000,-1126.000,8200.000,49.000,-31.000,-85.000,0.000,0.000,0
2026-01-31 00:11:19,1190774,2624.000,-649.000,8818.000,1151.000,-101.000,-190.000,0.000,0.000,0
2026-01-31 00:11:20,1190814,2478.000,-789.000,8678.000,-69.000,11.000,131.000,9.244,0.000,1
2026-01-31 00:11:20,1190854,2197.000,-807.000,8994.000,377.000,-214.000,-75.000,9.244,0.000,1
2026-01-31 00:11:20,1190894,1836.000,49.000,8138.000,231.000,-341.000,14.000,9.244,0.000,1
2026-01-31 00:11:20,1190934,2250.000,-263.000,7567.000,-931.000,-542.000,66.000,0.000,0.000,0
2026-01-31 00:11:20,1190974,2897.000,-896.000,6987.000,-1219.000,-651.000,11.000,0.000,0.000,0
2026-01-31 00:11:20,1191014,3154.000,-1691.000,7333.000,-919.000,-574.000,-111.000,0.000,0.000,0
2026-01-31 00:11:20,1191054,3390.000,-2156.000,7452.000,-370.000,-416.000,26.000,0.000,0.000,0
2026-01-31 00:11:20,1191094,3493.000,-1544.000,7372.000,205.000,-503.000,191.000,0.000,0.000,0
2026-01-31 00:11:20,1191134,3238.000,-1641.000,7257.000,285.000,-455.000,54.000,0.000,0.000,0
2026-01-31 00:11:20,1191174,3281.000,-821.000,7498.000,827.000,-99.000,-156.000,0.000,0.000,0
2026-01-31 00:11:20,1191214,3141.000,-807.000,7277.000,351.000,-93.000,218.000,0.000,0.000,0
2026-01-31 00:11:20,1191254,3059.000,-870.000,7927.000,476.000,240.000,-100.000,0.000,0.000,0
2026-01-31 00:11:20,1191294,2874.000,-1330.000,8226.000,146.000,472.000,172.000,0.000,0.000,0
2026-01-31 00:11:20,1191334,2456.000,-420.000,7897.000,780.000,311.000,199.000,0.000,0.000,0
2026-01-31 00:11:20,1191374,2347.000,-247.000,7324.000,-96.000,-52.000,169.000,0.000,0.000,0
2026-01-31 00:11:20,1191414,3271.000,-984.000,8635.000,-73.000,20.000,-118.000,0.000,0.000,0
2026-01-31 00:11:20,1191454,3118.000,119.000,8641.000,-104.000,551.000,163.000,0.000,0.000,0
2026-01-31 00:11:20,1191494,2952.000,-1075.000,7948.000,-1673.000,251.000,393.000,0.000,0.000,0
2026-01-31 00:11:20,1191534,2842.000,-2140.000,8687.000,-1282.000,47.000,149.000,0.000,0.000,0
2026-01-31 00:11:20,1191574,2471.000,-1579.000,8323.000,759.000,121.000,21.000,0.000,0.000,0
2026-01-31 00:11:20,1191614,2791.000,-890.000,8462.000,314.000,72.000,172.000,0.000,0.000,0
2026-01-31 00:11:20,1191654,2611.000,-1057.000,8603.000,-58.000,77.000,18.000,0.000,0.000,0
2026-01-31 00:11:20,1191694,2585.000,-1442.000,8617.000,219.000,-66.000,-44.000,0.000,0.000,0
2026-01-31 00:11:20,1191734,2635.000,-477.000,8416.000,802.000,-59.000,-175.000,0.000,0.000,0
2026-01-31 00:11:20,1191774,2616.000,-236.000,7894.000,334.000,-266.000,-173.000,0.000,0.000,0
2026-01-31 00:11:21,1191814,2734.000,-581.000,7853.000,370.000,-278.000,-382.000,10.267,0.000,1
2026-01-31 00:11:21,1191854,2580.000,-534.000,7554.000,521.000,-115.000,-298.000,10.267,0.000,1
2026-01-31 00:11:21,1191894,2471.000,384.000,6994.000,632.000,-289.000,-364.000,10.267,0.000,1
2026-01-31 00:11:21,1191934,2637.000,363.000,6943.000,219.000,-230.000,-450.000,0.000,0.000,0
2026-01-31 00:11:21,1191974,2811.000,277.000,7017.000,222.000,-59.000,-409.000,0.000,0.000,0
2026-01-31 00:11:21,1192014,2951.000,508.000,7312.000,416.000,149.000,-463.000,0.000,0.000,0
2026-01-31 00:11:21,1192054,2829.000,452.000,7376.000,154.000,245.000,-350.000,0.000,0.000,0
2026-01-31 00:11:21,1192094,2966.000,362.000,7653.000,-18.000,176.000,-278.000,0.000,0.000,0
2026-01-31 00:11:21,1192134,2984.000,-52.000,7928.000,-377.000,183.000,-139.000,0.000,0.000,0
2026-01-31 00:11:21,1192174,2923.000,-500.000,8013.000,-505.000,83.000,38.000,0.000,0.000,0
2026-01-31 00:11:21,1192214,2835.000,-492.000,8043.000,-336.000,-69.000,221.000,0.000,0.000,0
2026-01-31 00:11:21,1192254,2927.000,-278.000,8297.000,-182.000,-77.000,336.000,0.000,0.000,0
2026-01-31 00:11:21,1192294,2995.000,-180.000,8636.000,-130.000,127.000,428.000,0.000,0.000,0
2026-01-31 00:11:21,1192334,2931.000,-561.000,8539.000,-488.000,-12.000,454.000,0.000,0.000,0
2026-01-31 00:11:21,1192376,2859.000,-767.000,8591.000,-652.000,-145.000,263.000,0.000,0.000,0
2026-01-31 00:11:21,1192414,2829.000,-897.000,8287.000,-765.000,-237.000,153.000,0.000,0.000,0
2026-01-31 00:11:21,1192454,2589.000,-1099.000,8218.000,-471.000,-183.000,6.000,0.000,0.000,0
2026-01-31 00:11:21,1192494,2816.000,-1176.000,8293.000,-401.000,-170.000,-81.000,0.000,0.000,0
2026-01-31 00:11:21,1192534,2601.000,-1126.000,7793.000,-56.000,-100.000,-13.000,0.000,0.000,0
2026-01-31 00:11:21,1192574,2651.000,-818.000,7717.000,274.000,-181.000,-102.000,0.000,0.000,0
2026-01-31 00:11:21,1192614,2770.000,-607.000,7659.000,68.000,-155.000,-69.000,0.000,0.000,0
2026-01-31 00:11:21,1192654,2841.000,-747.000,7504.000,86.000,-47.000,-143.000,0.000,0.000,0
2026-01-31 00:11:21,1192694,2806.000,-883.000,7517.000,70.000,61.000,-73.000,0.000,0.000,0
2026-01-31 00:11:21,1192734,2607.000,-788.000,7416.000,148.000,106.000,-35.000,0.000,0.000,0
2026-01-31 00:11:21,1192774,2614.000,-762.000,7532.000,158.000,101.000,-69.000,0.000,0.000,0
2026-01-31 00:11:22,1192814,2713.000,-629.000,7874.000,359.000,207.000,-122.000,10.550,0.000,1
2026-01-31 00:11:22,1192854,2778.000,-676.000,8018.000,252.000,294.000,-48.000,10.550,0.000,1
2026-01-31 00:11:22,1192894,2770.000,-675.000,8195.000,238.000,292.000,-50.000,10.550,0.000,1
2026-01-31 00:11:22,1192934,2522.000,-506.000,7955.000,28.000,131.000,2.000,0.000,0.000,0
2026-01-31 00:11:22,1192974,2663.000,-547.000,7979.000,-66.000,-27.000,-97.000,0.000,0.000,0
2026-01-31 00:11:22,1193014,2938.000,-781.000,8289.000,-121.000,102.000,-89.000,0.000,0.000,0
2026-01-31 00:11:22,1193054,2751.000,-634.000,8163.000,42.000,80.000,-2.000,0.000,0.000,0
2026-01-31 00:11:22,1193094,2586.000,-572.000,8124.000,-29.000,-17.000,6.000,0.000,0.000,0
2026-01-31 00:11:22,1193134,2702.000,-651.000,8074.000,-168.000,-72.000,-19.000,0.000,0.000,0
2026-01-31 00:11:22,1193174,2845.000,-713.000,8034.000,-119.000,2.000,-20.000,0.000,0.000,0
2026-01-31 00:11:22,1193214,2796.000,-810.000,8027.000,-119.000,2.000,13.000,0.000,0.000,0
2026-01-31 00:11:22,1193254,2724.000,-588.000,8030.000,130.000,8.000,-35.000,0.000,0.000,0
2026-01-31 00:11:22,1193294,2751.000,-201.000,7878.000,210.000,-54.000,-33.000,0.000,0.000,0
2026-01-31 00:11:22,1193334,2932.000,-12.000,7921.000,229.000,-68.000,-120.000,0.000,0.000,0
2026-01-31 00:11:22,1193374,2922.000,-218.000,7850.000,21.000,12.000,-132.000,0.000,0.000,0
2026-01-31 00:11:22,1193414,2943.000,-37.000,7840.000,205.000,27.000,-174.000,0.000,0.000,0
2026-01-31 00:11:22,1193454,2949.000,212.000,7747.000,260.000,6.000,-181.000,0.000,0.000,0
2026-01-31 00:11:22,1193494,3031.000,189.000,7690.000,54.000,10.000,-203.000,0.000,0.000,0
2026-01-31 00:11:22,1193534,3182.000,-22.000,7810.000,22.000,51.000,-189.000,0.000,0.000,0
2026-01-31 00:11:22,1193574,3070.000,3.000,7924.000,120.000,117.000,-113.000,0.000,0.000,0
2026-01-31 00:11:22,1193614,2949.000,252.000,7731.000,104.000,26.000,8.000,0.000,0.000,0
2026-01-31 00:11:22,1193654,3004.000,93.000,7859.000,-188.000,29.000,32.000,0.000,0.000,0
2026-01-31 00:11:22,1193694,3046.000,-501.000,7813.000,-337.000,57.000,134.000,0.000,0.000,0
2026-01-31 00:11:22,1193734,3148.000,-679.000,7908.000,-49.000,-16.000,194.000,0.000,0.000,0
2026-01-31 00:11:22,1193774,2851.000,-395.000,8235.000,13.000,53.000,291.000,0.000,0.000,0
2026-01-31 00:11:23,1193814,3496.000,-1202.000,9368.000,189.000,242.000,80.000,11.013,0.000,1
2026-01-31 00:11:23,1193854,3620.000,-507.000,9342.000,339.000,1035.000,-268.000,11.013,0.000,1
2026-01-31 00:11:23,1193894,3302.000,-1242.000,10225.000,-618.000,1809.000,-245.000,11.013,0.000,1
2026-01-31 00:11:23,1193934,2108.000,-2295.000,11511.000,-1544.000,3523.000,248.000,0.000,0.000,0
2026-01-31 00:11:23,1193974,1612.000,-1209.000,11093.000,16.000,3776.000,537.000,0.000,0.000,0
2026-01-31 00:11:23,1194014,934.000,-1.000,10739.000,635.000,4234.000,233.000,0.000,0.000,0
2026-01-31 00:11:23,1194054,61.000,287.000,9950.000,-975.000,4759.000,-162.000,0.000,0.000,0
2026-01-31 00:11:23,1194094,-840.000,297.000,8796.000,-1568.000,4942.000,-562.000,0.000,0.000,0
2026-01-31 00:11:23,1194134,-1433.000,517.000,7737.000,-1053.000,4562.000,-1078.000,0.000,0.000,0
2026-01-31 00:11:23,1194174,-1810.000,765.000,7079.000,-592.000,4105.000,-1947.000,0.000,0.000,0
2026-01-31 00:11:23,1194214,-1948.000,295.000,6684.000,-699.000,3139.000,-2729.000,0.000,0.000,0
2026-01-31 00:11:23,1194254,-1773.000,26.000,6111.000,-716.000,2463.000,-2849.000,0.000,0.000,0
2026-01-31 00:11:23,1194294,-1728.000,-608.000,6573.000,-341.000,1646.000,-3096.000,0.000,0.000,0
2026-01-31 00:11:23,1194334,-1236.000,-898.000,6885.000,61.000,917.000,-3242.000,0.000,0.000,0
2026-01-31 00:11:23,1194377,-1062.000,-630.000,6511.000,327.000,439.000,-2877.000,0.000,0.000,0
2026-01-31 00:11:23,1194414,-499.000,-877.000,7254.000,-538.000,-63.000,-2499.000,0.000,0.000,0
2026-01-31 00:11:23,1194454,-36.000,-1740.000,7337.000,-1454.000,-323.000,-2339.000,0.000,0.000,0
2026-01-31 00:11:23,1194494,165.000,-1773.000,7191.000,-1083.000,-714.000,-1953.000,0.000,0.000,0
2026-01-31 00:11:23,1194534,1139.000,-1513.000,7451.000,-1721.000,-1099.000,-1142.000,0.000,0.000,0
2026-01-31 00:11:23,1194574,677.000,-3004.000,7293.000,-2405.000,-777.000,-750.000,0.000,0.000,0
2026-01-31 00:11:23,1194614,1039.000,-1779.000,8372.000,-498.000,-1430.000,-921.000,0.000,0.000,0
2026-01-31 00:11:23,1194654,1648.000,-2520.000,7260.000,-1982.000,-1198.000,-455.000,0.000,0.000,0
2026-01-31 00:11:23,1194694,1450.000,-2342.000,7889.000,-1971.000,-818.000,-852.000,0.000,0.000,0
2026-01-31 00:11:23,1194734,861.000,-3163.000,7529.000,-597.000,-583.000,-914.000,0.000,0.000,0
2026-01-31 00:11:23,1194774,81.000,-3001.000,7718.000,-43.000,-658.000,-901.000,0.000,0.000,0
2026-01-31 00:11:24,1194814,262.000,-3568.000,7298.000,26.000,-899.000,-229.000,12.505,0.000,1
2026-01-31 00:11:24,1194854,225.000,-3275.000,8305.000,1240.000,-1496.000,-263.000,12.505,0.000,1
2026-01-31 00:11:24,1194894,145.000,-1986.000,8901.000,-259.000,-1903.000,-297.000,12.505,0.000,1
2026-01-31 00:11:24,1194934,248.000,-5984.000,9787.000,-1627.000,-1377.000,-173.000,0.000,0.000,0
2026-01-31 00:11:24,1194974,1382.000,1298.000,9073.000,4150.000,-607.000,-639.000,0.000,0.000,0
2026-01-31 00:11:24,1195014,447.000,-2642.000,8639.000,-2981.000,129.000,376.000,0.000,0.000,0
2026-01-31 00:11:24,1195054,545.000,-1842.000,7977.000,-69.000,-658.000,113.000,0.000,0.000,0
2026-01-31 00:11:24,1195094,1506.000,-1802.000,8677.000,-3085.000,-381.000,730.000,0.000,0.000,0
2026-01-31 00:11:24,1195134,1075.000,-4369.000,6532.000,-4776.000,174.000,887.000,0.000,0.000,0
2026-01-31 00:11:24,1195174,410.000,-2909.000,7014.000,-546.000,257.000,376.000,0.000,0.000,0
2026-01-31 00:11:24,1195214,660.000,-3237.000,7865.000,-1315.000,316.000,867.000,0.000,0.000,0
2026-01-31 00:11:24,1195254,1087.000,-3327.000,7336.000,-273.000,275.000,752.000,0.000,0.000,0
2026-01-31 00:11:24,1195294,1085.000,-2907.000,7359.000,1006.000,543.000,35.000,0.000,0.000,0
2026-01-31 00:11:24,1195334,811.000,-3372.000,7310.000,896.000,781.000,129.000,0.000,0.000,0
2026-01-31 00:11:24,1195374,-200.000,-3135.000,7976.000,1242.000,508.000,226.000,0.000,0.000,0
2026-01-31 00:11:24,1195414,-8.000,-1801.000,8111.000,1739.000,576.000,265.000,0.000,0.000,0
2026-01-31 00:11:24,1195454,-289.000,-2430.000,8318.000,1321.000,694.000,451.000,0.000,0.000,0
2026-01-31 00:11:24,1195494,-444.000,-2370.000,8417.000,976.000,904.000,348.000,0.000,0.000,0
2026-01-31 00:11:24,1195534,-291.000,-2722.000,8708.000,169.000,732.000,444.000,0.000,0.000,0
2026-01-31 00:11:24,1195574,-596.000,-3011.000,7656.000,256.000,667.000,450.000,0.000,0.000,0
2026-01-31 00:11:24,1195614,-707.000,-2482.000,8761.000,361.000,228.000,318.000,0.000,0.000,0
2026-01-31 00:11:24,1195654,-448.000,-1623.000,8324.000,-244.000,-104.000,237.000,0.000,0.000,0
2026-01-31 00:11:24,1195694,-409.000,-2006.000,7893.000,-846.000,-86.000,253.000,0.000,0.000,0
2026-01-31 00:11:24,1195734,132.000,-2832.000,8040.000,29.000,18.000,-52.000,0.000,0.000,0
2026-01-31 00:11:24,1195774,-237.000,-2745.000,7597.000,336.000,65.000,-117.000,0.000,0.000,0
2026-01-31 00:11:25,1195814,2.000,-2059.000,8174.000,851.000,-28.000,-415.000,12.973,0.000,1
2026-01-31 00:11:25,1195854,226.000,-1369.000,7957.000,334.000,188.000,-397.000,12.973,0.000,1
2026-01-31 00:11:25,1195894,550.000,-1712.000,8098.000,510.000,78.000,-421.000,12.973,0.000,1
2026-01-31 00:11:25,1195934,-89.000,-1381.000,8025.000,431.000,428.000,-402.000,0.000,0.000,0
2026-01-31 00:11:25,1195974,-251.000,-1461.000,8050.000,107.000,506.000,-266.000,0.000,0.000,0
2026-01-31 00:11:25,1196014,-649.000,-1107.000,8244.000,79.000,307.000,-277.000,0.000,0.000,0
2026-01-31 00:11:25,1196054,-553.000,-570.000,8589.000,-395.000,134.000,-112.000,0.000,0.000,0
2026-01-31 00:11:25,1196096,-255.000,-1887.000,8185.000,-768.000,-197.000,180.000,0.000,0.000,0
2026-01-31 00:11:25,1196135,-237.000,-1984.000,8537.000,-717.000,-166.000,296.000,0.000,0.000,0
2026-01-31 00:11:25,1196175,-341.000,-2145.000,8015.000,-931.000,-173.000,207.000,0.000,0.000,0
2026-01-31 00:11:25,1196214,-377.000,-2271.000,8215.000,-729.000,-499.000,198.000,0.000,0.000,0
2026-01-31 00:11:25,1196254,-397.000,-2353.000,8004.000,-523.000,-687.000,155.000,0.000,0.000,0
2026-01-31 00:11:25,1196294,-129.000,-2292.000,8073.000,-414.000,-801.000,40.000,0.000,0.000,0
2026-01-31 00:11:25,1196334,-99.000,-2106.000,7846.000,-546.000,-640.000,172.000,0.000,0.000,0
2026-01-31 00:11:25,1196374,-12.000,-2406.000,8017.000,-37.000,-553.000,95.000,0.000,0.000,0
2026-01-31 00:11:25,1196414,-153.000,-2533.000,8145.000,-261.000,-511.000,146.000,0.000,0.000,0
2026-01-31 00:11:25,1196454,84.000,-2582.000,8016.000,-551.000,-572.000,45.000,0.000,0.000,0
2026-01-31 00:11:25,1196494,176.000,-2872.000,7999.000,-681.000,-930.000,-193.000,0.000,0.000,0
2026-01-31 00:11:25,1196534,-127.000,-2848.000,8253.000,-1602.000,-898.000,-129.000,0.000,0.000,0
2026-01-31 00:11:25,1196574,478.000,-3005.000,7694.000,-2020.000,-1131.000,-213.000,0.000,0.000,0
2026-01-31 00:11:25,1196614,471.000,-2957.000,7626.000,-1299.000,-864.000,-306.000,0.000,0.000,0
2026-01-31 00:11:25,1196654,569.000,-3460.000,7961.000,-901.000,-759.000,-230.000,0.000,0.000,0
2026-01-31 00:11:25,1196694,551.000,-2952.000,7800.000,-1191.000,-517.000,-72.000,0.000,0.000,0
2026-01-31 00:11:25,1196734,528.000,-4107.000,7615.000,-1348.000,-617.000,-258.000,0.000,0.000,0
2026-01-31 00:11:25,1196774,477.000,-4016.000,7895.000,-1294.000,-916.000,-395.000,0.000,0.000,0
2026-01-31 00:11:26,1196814,742.000,-4159.000,7841.000,-1706.000,-1404.000,-505.000,13.503,0.000,1
2026-01-31 00:11:26,1196854,1143.000,-4160.000,7477.000,-1437.000,-1646.000,-873.000,13.503,0.000,1
2026-01-31 00:11:26,1196894,1286.000,-4066.000,7480.000,-2142.000,-1491.000,-720.000,13.503,0.000,1
2026-01-31 00:11:26,1196934,1610.000,-3864.000,7099.000,-1926.000,-1556.000,-881.000,0.000,0.000,0
2026-01-31 00:11:26,1196974,1631.000,-4216.000,7108.000,-1529.000,-1375.000,-664.000,0.000,0.000,0
2026-01-31 00:11:26,1197014,1913.000,-5164.000,6636.000,-1591.000,-1025.000,-344.000,0.000,0.000,0
2026-01-31 00:11:26,1197054,1691.000,-5060.000,6550.000,-991.000,-463.000,-234.000,0.000,0.000,0
2026-01-31 00:11:26,1197094,1683.000,-5458.000,6716.000,-560.000,-345.000,-248.000,0.000,0.000,0
2026-01-31 00:11:26,1197134,1880.000,-4644.000,6468.000,-301.000,-245.000,-18.000,0.000,0.000,0
2026-01-31 00:11:26,1197174,2006.000,-4076.000,6777.000,181.000,-302.000,-108.000,0.000,0.000,0
2026-01-31 00:11:26,1197214,2060.000,-3945.000,6833.000,-129.000,-74.000,6.000,0.000,0.000,0
2026-01-31 00:11:26,1197254,1985.000,-5326.000,6712.000,-180.000,30.000,59.000,0.000,0.000,0
2026-01-31 00:11:26,1197294,1949.000,-4615.000,6418.000,425.000,85.000,15.000,0.000,0.000,0
2026-01-31 00:11:26,1197334,1876.000,-4543.000,6737.000,257.000,-24.000,-5.000,0.000,0.000,0
2026-01-31 00:11:26,1197374,1797.000,-4111.000,6835.000,196.000,-57.000,-34.000,0.000,0.000,0
2026-01-31 00:11:26,1197414,1814.000,-4524.000,6935.000,224.000,186.000,71.000,0.000,0.000,0
2026-01-31 00:11:26,1197454,2052.000,-4579.000,6874.000,295.000,266.000,2.000,0.000,0.000,0
2026-01-31 00:11:26,1197494,1896.000,-4549.000,6583.000,66.000,484.000,7.000,0.000,0.000,0
2026-01-31 00:11:26,1197534,1524.000,-4208.000,7034.000,754.000,414.000,65.000,0.000,0.000,0
2026-01-31 00:11:26,1197574,1137.000,-4222.000,7273.000,256.000,467.000,91.000,0.000,0.000,0
2026-01-31 00:11:26,1197614,1876.000,-4251.000,6841.000,604.000,110.000,75.000,0.000,0.000,0
2026-01-31 00:11:26,1197654,1428.000,-3976.000,7119.000,-254.000,69.000,197.000,0.000,0.000,0
2026-01-31 00:11:26,1197694,1095.000,-4692.000,6857.000,-296.000,-138.000,109.000,0.000,0.000,0
2026-01-31 00:11:26,1197734,1418.000,-4895.000,6957.000,-412.000,-232.000,51.000,0.000,0.000,0
2026-01-31 00:11:26,1197774,1864.000,-4992.000,6975.000,-80.000,-16.000,63.000,0.000,0.000,0
2026-01-31 00:11:27,1197814,1953.000,-4332.000,6785.000,641.000,104.000,14.000,14.146,0.000,1
2026-01-31 00:11:27,1197854,1885.000,-3528.000,6997.000,529.000,72.000,-59.000,14.146,0.000,1
2026-01-31 00:11:27,1197894,1100.000,-4389.000,6871.000,-158.000,39.000,21.000,14.146,0.000,1
2026-01-31 00:11:27,1197934,1307.000,-4199.000,6775.000,57.000,80.000,21.000,0.000,0.000,0
2026-01-31 00:11:27,1197974,1484.000,-4547.000,7066.000,543.000,387.000,-17.000,0.000,0.000,0
2026-01-31 00:11:27,1198014,1713.000,-3647.000,7528.000,944.000,503.000,-288.000,0.000,0.000,0
2026-01-31 00:11:27,1198054,1155.000,-4187.000,7530.000,558.000,473.000,-237.000,0.000,0.000,0
2026-01-31 00:11:27,1198096,1473.000,-3594.000,7505.000,361.000,482.000,-82.000,0.000,0.000,0
2026-01-31 00:11:27,1198135,1372.000,-4465.000,7309.000,225.000,691.000,38.000,0.000,0.000,0
2026-01-31 00:11:27,1198174,1958.000,-4495.000,7982.000,1086.000,540.000,176.000,0.000,0.000,0
2026-01-31 00:11:27,1198214,2067.000,-3358.000,8355.000,895.000,266.000,121.000,0.000,0.000,0
2026-01-31 00:11:27,1198254,1600.000,-2860.000,8212.000,50.000,6.000,74.000,0.000,0.000,0
2026-01-31 00:11:27,1198294,1829.000,-3276.000,7426.000,-657.000,-189.000,64.000,0.000,0.000,0
2026-01-31 00:11:27,1198334,1144.000,-4225.000,6884.000,-979.000,-68.000,151.000,0.000,0.000,0
2026-01-31 00:11:27,1198375,1477.000,-3817.000,7072.000,-605.000,-36.000,124.000,0.000,0.000,0
2026-01-31 00:11:27,1198414,1387.000,-4165.000,7465.000,-433.000,53.000,322.000,0.000,0.000,0
2026-01-31 00:11:27,1198454,1472.000,-4045.000,6922.000,-505.000,201.000,273.000,0.000,0.000,0
2026-01-31 00:11:27,1198494,1443.000,-4796.000,6782.000,-559.000,139.000,234.000,0.000,0.000,0
2026-01-31 00:11:27,1198534,1250.000,-4495.000,7028.000,1.000,102.000,32.000,0.000,0.000,0
2026-01-31 00:11:27,1198574,869.000,-4171.000,7237.000,-237.000,-135.000,165.000,0.000,0.000,0
2026-01-31 00:11:27,1198614,1006.000,-4021.000,7299.000,-478.000,205.000,269.000,0.000,0.000,0
2026-01-31 00:11:27,1198654,1382.000,-4263.000,7191.000,-432.000,309.000,282.000,0.000,0.000,0
2026-01-31 00:11:27,1198694,1414.000,-4673.000,6976.000,-204.000,37.000,338.000,0.000,0.000,0
2026-01-31 00:11:27,1198734,1185.000,-4434.000,7349.000,-351.000,-115.000,269.000,0.000,0.000,0
2026-01-31 00:11:27,1198774,1228.000,-4267.000,7121.000,-192.000,-392.000,303.000,0.000,0.000,0
2026-01-31 00:11:28,1198814,1236.000,-4779.000,7324.000,71.000,-515.000,199.000,14.347,0.000,1
2026-01-31 00:11:28,1198854,1450.000,-5253.000,7092.000,-58.000,-468.000,257.000,14.347,0.000,1
2026-01-31 00:11:28,1198894,1587.000,-4764.000,7586.000,-142.000,-131.000,188.000,14.347,0.000,1
2026-01-31 00:11:28,1198934,1352.000,-4759.000,7163.000,145.000,106.000,-74.000,0.000,0.000,0
2026-01-31 00:11:28,1198974,1010.000,-4243.000,7255.000,390.000,194.000,-215.000,0.000,0.000,0
2026-01-31 00:11:28,1199014,948.000,-3288.000,7173.000,757.000,216.000,-263.000,0.000,0.000,0
2026-01-31 00:11:28,1199054,974.000,-3826.000,7246.000,740.000,464.000,-376.000,0.000,0.000,0
2026-01-31 00:11:28,1199094,1069.000,-4022.000,7426.000,466.000,727.000,-209.000,0.000,0.000,0
2026-01-31 00:11:28,1199134,1091.000,-3516.000,7663.000,415.000,645.000,-200.000,0.000,0.000,0
2026-01-31 00:11:28,1199174,1035.000,-3583.000,7302.000,392.000,300.000,-168.000,0.000,0.000,0
2026-01-31 00:11:28,1199214,1050.000,-4213.000,6929.000,-109.000,181.000,-152.000,0.000,0.000,0
2026-01-31 00:11:28,1199254,1491.000,-3381.000,7329.000,408.000,34.000,-263.000,0.000,0.000,0
2026-01-31 00:11:28,1199294,1144.000,-3272.000,7361.000,-45.000,170.000,-189.000,0.000,0.000,0
2026-01-31 00:11:28,1199334,1063.000,-3156.000,7100.000,413.000,-35.000,-128.000,0.000,0.000,0
2026-01-31 00:11:28,1199374,897.000,-3217.000,7560.000,390.000,-7.000,4.000,0.000,0.000,0
2026-01-31 00:11:28,1199414,825.000,-3495.000,7679.000,-129.000,243.000,251.000,0.000,0.000,0
2026-01-31 00:11:28,1199454,494.000,-4215.000,7200.000,-462.000,285.000,294.000,0.000,0.000,0
2026-01-31 00:11:28,1199494,659.000,-4261.000,7281.000,-414.000,82.000,191.000,0.000,0.000,0
2026-01-31 00:11:28,1199534,1384.000,-3770.000,7450.000,-865.000,-388.000,620.000,0.000,0.000,0
2026-01-31 00:11:28,1199574,970.000,-5051.000,7041.000,-1112.000,-362.000,522.000,0.000,0.000,0
2026-01-31 00:11:28,1199614,902.000,-4981.000,7068.000,-1091.000,-328.000,381.000,0.000,0.000,0
2026-01-31 00:11:28,1199654,1228.000,-4851.000,6582.000,-691.000,-572.000,376.000,0.000,0.000,0
2026-01-31 00:11:28,1199694,1022.000,-5669.000,6842.000,-354.000,-506.000,168.000,0.000,0.000,0
2026-01-31 00:11:28,1199734,1089.000,-4447.000,7036.000,69.000,-302.000,-155.000,0.000,0.000,0
2026-01-31 00:11:28,1199774,1243.000,-4043.000,7054.000,341.000,78.000,-152.000,0.000,0.000,0
2026-01-31 00:11:29,1199814,967.000,-4160.000,7188.000,1211.000,476.000,-200.000,14.228,0.000,1
2026-01-31 00:11:29,1199854,801.000,-4238.000,7440.000,1143.000,850.000,-121.000,14.228,0.000,1
2026-01-31 00:11:29,1199894,1518.000,-3838.000,8159.000,1456.000,863.000,-189.000,14.228,0.000,1
2026-01-31 00:11:29,1199934,1241.000,-3450.000,8242.000,1077.000,390.000,-201.000,0.000,0.000,0
2026-01-31 00:11:29,1199974,954.000,-3620.000,8283.000,259.000,338.000,-260.000,0.000,0.000,0
2026-01-31 00:11:29,1200014,629.000,-3865.000,7982.000,-407.000,369.000,-225.000,0.000,0.000,0
2026-01-31 00:11:29,1200054,636.000,-3846.000,7634.000,-401.000,176.000,-141.000,0.000,0.000,0
2026-01-31 00:11:29,1200096,1163.000,-3880.000,7561.000,-254.000,-361.000,-11.000,0.000,0.000,0
2026-01-31 00:11:29,1200136,956.000,-3403.000,7407.000,-664.000,-583.000,151.000,0.000,0.000,0
2026-01-31 00:11:29,1200174,1407.000,-3147.000,7478.000,-487.000,-628.000,54.000,0.000,0.000,0
2026-01-31 00:11:29,1200214,1327.000,-4226.000,6710.000,-1170.000,-575.000,352.000,0.000,0.000,0
2026-01-31 00:11:29,1200254,1271.000,-3961.000,6766.000,-82.000,-681.000,278.000,0.000,0.000,0
2026-01-31 00:11:29,1200294,1224.000,-4299.000,7151.000,-58.000,-671.000,231.000,0.000,0.000,0
2026-01-31 00:11:29,1200334,1426.000,-4249.000,6875.000,-436.000,-543.000,45.000,0.000,0.000,0
2026-01-31 00:11:29,1200377,1523.000,-3950.000,6799.000,633.000,-289.000,-199.000,0.000,0.000,0
2026-01-31 00:11:29,1200414,1340.000,-3671.000,6854.000,1029.000,61.000,-257.000,0.000,0.000,0
2026-01-31 00:11:29,1200454,1260.000,-4103.000,7235.000,1603.000,431.000,8.000,0.000,0.000,0
2026-01-31 00:11:29,1200494,1287.000,-3821.000,7614.000,2225.000,333.000,-147.000,0.000,0.000,0
2026-01-31 00:11:29,1200534,1205.000,-3422.000,8462.000,1253.000,251.000,-373.000,0.000,0.000,0
2026-01-31 00:11:29,1200574,1121.000,-3291.000,7854.000,-206.000,48.000,-520.000,0.000,0.000,0
2026-01-31 00:11:29,1200614,1342.000,-3395.000,7784.000,-152.000,230.000,-602.000,0.000,0.000,0
2026-01-31 00:11:29,1200654,1727.000,-3579.000,7380.000,-196.000,708.000,-398.000,0.000,0.000,0
2026-01-31 00:11:29,1200694,1388.000,-3660.000,7214.000,422.000,896.000,251.000,0.000,0.000,0
2026-01-31 00:11:29,1200734,867.000,-3446.000,8006.000,808.000,209.000,259.000,0.000,0.000,0
2026-01-31 00:11:29,1200774,981.000,-3818.000,8145.000,-776.000,-484.000,440.000,0.000,0.000,0
2026-01-31 00:11:30,1200814,1151.000,-2810.000,7416.000,-1159.000,-769.000,358.000,14.398,0.000,1
2026-01-31 00:11:30,1200854,641.000,-3419.000,6921.000,-1549.000,-489.000,41.000,14.398,0.000,1
2026-01-31 00:11:30,1200894,675.000,-4961.000,7086.000,-788.000,-252.000,1.000,14.398,0.000,1
2026-01-31 00:11:30,1200934,1024.000,-3895.000,7513.000,-686.000,-534.000,254.000,0.000,0.000,0
2026-01-31 00:11:30,1200974,2049.000,-3977.000,7547.000,-797.000,-362.000,677.000,0.000,0.000,0
2026-01-31 00:11:30,1201014,2112.000,-5307.000,7287.000,-286.000,82.000,689.000,0.000,0.000,0
2026-01-31 00:11:30,1201054,687.000,-4850.000,7152.000,352.000,262.000,502.000,0.000,0.000,0
2026-01-31 00:11:30,1201094,538.000,-3376.000,7927.000,662.000,-692.000,-83.000,0.000,0.000,0
2026-01-31 00:11:30,1201134,1150.000,-3978.000,7420.000,-739.000,-947.000,221.000,0.000,0.000,0
2026-01-31 00:11:30,1201174,1504.000,-3870.000,6977.000,-332.000,-398.000,-276.000,0.000,0.000,0
2026-01-31 00:11:30,1201214,1756.000,-5236.000,7013.000,540.000,8.000,-434.000,0.000,0.000,0
2026-01-31 00:11:30,1201254,1936.000,-4796.000,6530.000,-384.000,104.000,-325.000,0.000,0.000,0
2026-01-31 00:11:30,1201294,1527.000,-2997.000,6923.000,1618.000,208.000,-654.000,0.000,0.000,0
2026-01-31 00:11:30,1201334,1658.000,-2617.000,6990.000,1485.000,461.000,-625.000,0.000,0.000,0
2026-01-31 00:11:30,1201374,1664.000,-2325.000,6895.000,856.000,608.000,-495.000,0.000,0.000,0
2026-01-31 00:11:30,1201414,1516.000,-3671.000,7472.000,752.000,894.000,-311.000,0.000,0.000,0
2026-01-31 00:11:30,1201454,1593.000,-2762.000,7757.000,-20.000,635.000,-1.000,0.000,0.000,0
2026-01-31 00:11:30,1201494,1107.000,-3284.000,7358.000,-353.000,465.000,279.000,0.000,0.000,0
2026-01-31 00:11:30,1201534,922.000,-3460.000,7413.000,80.000,-20.000,99.000,0.000,0.000,0
2026-01-31 00:11:30,1201574,1153.000,-3862.000,8139.000,-365.000,-296.000,343.000,0.000,0.000,0
2026-01-31 00:11:30,1201614,1252.000,-3500.000,7606.000,-1120.000,-342.000,697.000,0.000,0.000,0
2026-01-31 00:11:30,1201654,1164.000,-3781.000,7606.000,-714.000,-330.000,575.000,0.000,0.000,0
2026-01-31 00:11:30,1201694,972.000,-3794.000,7460.000,-1111.000,-402.000,538.000,0.000,0.000,0
2026-01-31 00:11:30,1201734,1222.000,-4631.000,7232.000,-1109.000,-700.000,145.000,0.000,0.000,0
2026-01-31 00:11:30,1201774,1446.000,-4591.000,7474.000,-1399.000,-606.000,299.000,0.000,0.000,0
2026-01-31 00:11:31,1201814,1177.000,-5304.000,6501.000,-217.000,-66.000,89.000,14.254,0.000,1
2026-01-31 00:11:31,1201854,1379.000,-5441.000,6767.000,563.000,30.000,-220.000,14.254,0.000,1
2026-01-31 00:11:31,1201894,1941.000,-3890.000,6796.000,1242.000,-169.000,-254.000,14.254,0.000,1
2026-01-31 00:11:31,1201934,2002.000,-3860.000,6912.000,1452.000,-145.000,-396.000,0.000,0.000,0
2026-01-31 00:11:31,1201974,1904.000,-3599.000,6839.000,1016.000,347.000,-377.000,0.000,0.000,0
2026-01-31 00:11:31,1202014,1089.000,-3459.000,7251.000,1505.000,874.000,-265.000,0.000,0.000,0
2026-01-31 00:11:31,1202054,978.000,-3432.000,7647.000,1169.000,935.000,-469.000,0.000,0.000,0
2026-01-31 00:11:31,1202094,820.000,-3576.000,7849.000,681.000,853.000,-315.000,0.000,0.000,0
2026-01-31 00:11:31,1202134,868.000,-3749.000,7875.000,360.000,562.000,-140.000,0.000,0.000,0
2026-01-31 00:11:31,1202174,372.000,-2551.000,7688.000,-30.000,309.000,38.000,0.000,0.000,0
2026-01-31 00:11:31,1202214,443.000,-2819.000,8044.000,106.000,47.000,104.000,0.000,0.000,0
2026-01-31 00:11:31,1202254,615.000,-3916.000,7987.000,-975.000,-180.000,403.000,0.000,0.000,0
2026-01-31 00:11:31,1202294,407.000,-4241.000,7842.000,-1210.000,-313.000,475.000,0.000,0.000,0
2026-01-31 00:11:31,1202334,678.000,-4329.000,7814.000,-1529.000,-478.000,523.000,0.000,0.000,0
2026-01-31 00:11:31,1202376,848.000,-4100.000,7437.000,-977.000,-502.000,322.000,0.000,0.000,0
2026-01-31 00:11:31,1202414,1105.000,-3820.000,7177.000,-444.000,-642.000,208.000,0.000,0.000,0
2026-01-31 00:11:31,1202454,898.000,-3945.000,6879.000,-432.000,-624.000,130.000,0.000,0.000,0
2026-01-31 00:11:31,1202494,995.000,-3484.000,7047.000,204.000,-337.000,-242.000,0.000,0.000,0
2026-01-31 00:11:31,1202534,1231.000,-3817.000,7088.000,491.000,96.000,-88.000,0.000,0.000,0
2026-01-31 00:11:31,1202574,1893.000,-3778.000,7092.000,1448.000,311.000,-33.000,0.000,0.000,0
2026-01-31 00:11:31,1202614,1345.000,-3191.000,7598.000,1403.000,214.000,-324.000,0.000,0.000,0
2026-01-31 00:11:31,1202654,1228.000,-3107.000,7897.000,385.000,5.000,-332.000,0.000,0.000,0
2026-01-31 00:11:31,1202694,1439.000,-2377.000,7668.000,320.000,244.000,-343.000,0.000,0.000,0
2026-01-31 00:11:31,1202734,1054.000,-3084.000,7257.000,196.000,400.000,-445.000,0.000,0.000,0
2026-01-31 00:11:31,1202774,938.000,-3133.000,7644.000,549.000,349.000,-405.000,0.000,0.000,0
2026-01-31 00:11:32,1202814,1486.000,-2979.000,8619.000,706.000,242.000,-143.000,15.026,0.000,1
2026-01-31 00:11:32,1202854,1745.000,-3539.000,8058.000,-220.000,410.000,224.000,15.026,0.000,1
2026-01-31 00:11:32,1202894,1618.000,-4267.000,7972.000,-13.000,323.000,303.000,15.026,0.000,1
2026-01-31 00:11:32,1202934,1800.000,-3662.000,8062.000,-85.000,-62.000,194.000,0.000,0.000,0
2026-01-31 00:11:32,1202974,1000.000,-3018.000,7991.000,-146.000,-557.000,435.000,0.000,0.000,0
2026-01-31 00:11:32,1203014,1501.000,-3625.000,7291.000,-1624.000,-748.000,415.000,0.000,0.000,0
2026-01-31 00:11:32,1203054,1621.000,-3228.000,7027.000,-163.000,-561.000,190.000,0.000,0.000,0
2026-01-31 00:11:32,1203094,1843.000,-5726.000,6362.000,-2250.000,151.000,477.000,0.000,0.000,0
2026-01-31 00:11:32,1203134,1897.000,-5229.000,6395.000,825.000,316.000,85.000,0.000,0.000,0
2026-01-31 00:11:32,1203174,658.000,-4603.000,6626.000,2326.000,956.000,78.000,0.000,0.000,0
2026-01-31 00:11:32,1203214,605.000,-5623.000,7054.000,4449.000,615.000,-35.000,0.000,0.000,0
2026-01-31 00:11:32,1203254,1816.000,-2255.000,8491.000,5229.000,399.000,-292.000,0.000,0.000,0
2026-01-31 00:11:32,1203294,1197.000,-3629.000,8238.000,1404.000,1453.000,710.000,0.000,0.000,0
2026-01-31 00:11:32,1203334,1725.000,-2017.000,7816.000,4347.000,2693.000,1247.000,0.000,0.000,0
2026-01-31 00:11:32,1203374,1885.000,-52.000,7883.000,3799.000,3300.000,939.000,0.000,0.000,0
2026-01-31 00:11:32,1203414,2361.000,-698.000,7444.000,773.000,2658.000,1031.000,0.000,0.000,0
2026-01-31 00:11:32,1203454,-94.000,-932.000,7796.000,-1238.000,2875.000,519.000,0.000,0.000,0
2026-01-31 00:11:32,1203494,1454.000,-1591.000,7065.000,-2562.000,1609.000,757.000,0.000,0.000,0
2026-01-31 00:11:32,1203534,-73.000,-1860.000,7258.000,-1053.000,1455.000,385.000,0.000,0.000,0
2026-01-31 00:11:32,1203574,-435.000,-1848.000,7472.000,-1430.000,540.000,852.000,0.000,0.000,0
2026-01-31 00:11:32,1203614,-9.000,-1941.000,6679.000,-2412.000,196.000,1603.000,0.000,0.000,0
2026-01-31 00:11:32,1203654,-1927.000,-2759.000,6624.000,144.000,-952.000,1308.000,0.000,0.000,0
2026-01-31 00:11:32,1203694,1109.000,-2022.000,7513.000,376.000,-2992.000,1369.000,0.000,0.000,0
2026-01-31 00:11:32,1203734,-1364.000,-1917.000,6571.000,-1039.000,-2975.000,983.000,0.000,0.000,0
2026-01-31 00:11:32,1203774,1434.000,-2049.000,6074.000,422.000,-4321.000,1711.000,0.000,0.000,0
2026-01-31 00:11:33,1203814,-1119.000,-2752.000,7385.000,712.000,-2807.000,1339.000,15.134,0.000,1
2026-01-31 00:11:33,1203854,811.000,-2016.000,6460.000,3210.000,-4338.000,1783.000,15.134,0.000,1
2026-01-31 00:11:33,1203894,612.000,-973.000,8722.000,3541.000,-3505.000,1918.000,15.134,0.000,1
2026-01-31 00:11:33,1203934,414.000,-1523.000,8301.000,2981.000,-3305.000,1937.000,0.000,0.000,0
2026-01-31 00:11:33,1203974,1469.000,-352.000,7862.000,4572.000,-2888.000,2354.000,0.000,0.000,0
2026-01-31 00:11:33,1204014,703.000,-671.000,10061.000,3546.000,-1823.000,1692.000,0.000,0.000,0
2026-01-31 00:11:33,1204054,1233.000,-488.000,8661.000,4620.000,-1237.000,2224.000,0.000,0.000,0
2026-01-31 00:11:33,1204096,673.000,665.000,8935.000,7687.000,-1890.000,1547.000,0.000,0.000,0
2026-01-31 00:11:33,1204136,745.000,3062.000,9026.000,7961.000,-950.000,663.000,0.000,0.000,0
2026-01-31 00:11:33,1204174,1113.000,681.000,8640.000,7892.000,-1505.000,-613.000,0.000,0.000,0
2026-01-31 00:11:33,1204214,1863.000,2086.000,10165.000,11970.000,-2407.000,-955.000,0.000,0.000,0
2026-01-31 00:11:33,1204254,3295.000,6711.000,11096.000,6564.000,-3557.000,-601.000,0.000,0.000,0
2026-01-31 00:11:33,1204294,2979.000,3460.000,9146.000,-4348.000,-2070.000,1229.000,0.000,0.000,0
2026-01-31 00:11:33,1204334,2901.000,2254.000,7211.000,-2771.000,-1390.000,-188.000,0.000,0.000,0
2026-01-31 00:11:33,1204377,2800.000,2834.000,6204.000,-1178.000,-1063.000,-112.000,0.000,0.000,0
2026-01-31 00:11:33,1204414,3404.000,1228.000,6402.000,-1909.000,-1161.000,746.000,0.000,0.000,0
2026-01-31 00:11:33,1204454,4578.000,2796.000,8254.000,474.000,-797.000,722.000,0.000,0.000,0
2026-01-31 00:11:33,1204494,3014.000,1920.000,7806.000,-535.000,985.000,466.000,0.000,0.000,0
2026-01-31 00:11:33,1204534,2501.000,1651.000,7369.000,308.000,746.000,454.000,0.000,0.000,0
2026-01-31 00:11:33,1204574,2414.000,2366.000,7174.000,626.000,144.000,251.000,0.000,0.000,0
2026-01-31 00:11:33,1204614,2787.000,2685.000,7086.000,513.000,-356.000,-391.000,0.000,0.000,0
2026-01-31 00:11:33,1204654,3449.000,2618.000,7167.000,759.000,-261.000,-815.000,0.000,0.000,0
2026-01-31 00:11:33,1204694,3423.000,2701.000,7013.000,972.000,12.000,-628.000,0.000,0.000,0
2026-01-31 00:11:33,1204734,3325.000,3263.000,7106.000,824.000,-57.000,-357.000,0.000,0.000,0
2026-01-31 00:11:33,1204774,3498.000,2887.000,7532.000,689.000,130.000,-202.000,0.000,0.000,0
2026-01-31 00:11:34,1204814,3637.000,3582.000,7841.000,1429.000,329.000,-173.000,15.370,0.000,1
2026-01-31 00:11:34,1204854,2922.000,3756.000,7187.000,554.000,307.000,215.000,15.370,0.000,1
2026-01-31 00:11:34,1204894,2928.000,2960.000,7101.000,-1054.000,-136.000,215.000,15.370,0.000,1
2026-01-31 00:11:34,1204934,3178.000,2444.000,7118.000,-921.000,-179.000,183.000,0.000,0.000,0
2026-01-31 00:11:34,1204974,3199.000,2354.000,7030.000,-214.000,120.000,171.000,0.000,0.000,0
2026-01-31 00:11:34,1205014,3001.000,2879.000,7287.000,412.000,133.000,133.000,0.000,0.000,0
2026-01-31 00:11:34,1205054,3091.000,3377.000,7338.000,-325.000,-151.000,314.000,0.000,0.000,0
2026-01-31 00:11:34,1205094,2755.000,2649.000,6953.000,-1081.000,-26.000,275.000,0.000,0.000,0
2026-01-31 00:11:34,1205134,2943.000,2046.000,7072.000,-703.000,-179.000,4.000,0.000,0.000,0
2026-01-31 00:11:34,1205174,3630.000,2470.000,7943.000,268.000,-92.000,-67.000,0.000,0.000,0
2026-01-31 00:11:34,1205214,3428.000,2924.000,7465.000,670.000,459.000,-22.000,0.000,0.000,0
2026-01-31 00:11:34,1205254,2943.000,2744.000,7289.000,278.000,-167.000,194.000,0.000,0.000,0
2026-01-31 00:11:34,1205294,3063.000,3046.000,7179.000,318.000,-351.000,-65.000,0.000,0.000,0
2026-01-31 00:11:34,1205334,3101.000,3023.000,6702.000,122.000,-369.000,-346.000,0.000,0.000,0
2026-01-31 00:11:34,1205374,3344.000,2752.000,6524.000,33.000,-451.000,-405.000,0.000,0.000,0
2026-01-31 00:11:34,1205414,3467.000,2676.000,6799.000,285.000,-243.000,-295.000,0.000,0.000,0
2026-01-31 00:11:34,1205454,3317.000,2775.000,6784.000,399.000,6.000,-102.000,0.000,0.000,0
2026-01-31 00:11:34,1205494,3249.000,3182.000,7095.000,680.000,228.000,-51.000,0.000,0.000,0
2026-01-31 00:11:34,1205534,3217.000,3318.000,7265.000,365.000,393.000,141.000,0.000,0.000,0
2026-01-31 00:11:34,1205574,3020.000,3073.000,7272.000,-191.000,365.000,252.000,0.000,0.000,0
2026-01-31 00:11:34,1205614,2915.000,2515.000,7148.000,-569.000,59.000,443.000,0.000,0.000,0
2026-01-31 00:11:34,1205654,3018.000,2542.000,7537.000,-91.000,120.000,356.000,0.000,0.000,0
2026-01-31 00:11:34,1205694,3018.000,3128.000,7500.000,136.000,319.000,222.000,0.000,0.000,0
2026-01-31 00:11:34,1205734,2738.000,3096.000,7132.000,-67.000,253.000,88.000,0.000,0.000,0
2026-01-31 00:11:34,1205774,3151.000,2941.000,7492.000,-217.000,-150.000,8.000,0.000,0.000,0
2026-01-31 00:11:35,1205814,3292.000,2736.000,7440.000,-239.000,-108.000,-123.000,15.339,0.000,1
2026-01-31 00:11:35,1205854,2992.000,2630.000,6924.000,-109.000,-104.000,-60.000,15.339,0.000,1
2026-01-31 00:11:35,1205894,3015.000,2636.000,7045.000,208.000,-323.000,-125.000,15.339,0.000,1
2026-01-31 00:11:35,1205934,3083.000,3107.000,7063.000,444.000,-264.000,-342.000,0.000,0.000,0
2026-01-31 00:11:35,1205974,3244.000,3199.000,6633.000,91.000,-300.000,-458.000,0.000,0.000,0
2026-01-31 00:11:35,1206014,3345.000,2707.000,6879.000,129.000,-253.000,-252.000,0.000,0.000,0
2026-01-31 00:11:35,1206054,3402.000,3122.000,7057.000,347.000,-15.000,-128.000,0.000,0.000,0
2026-01-31 00:11:35,1206094,2969.000,3113.000,6688.000,-75.000,191.000,-19.000,0.000,0.000,0
2026-01-31 00:11:35,1206134,3317.000,2805.000,7271.000,102.000,33.000,35.000,0.000,0.000,0
2026-01-31 00:11:35,1206174,3374.000,3493.000,7481.000,276.000,387.000,76.000,0.000,0.000,0
2026-01-31 00:11:35,1206214,2993.000,3262.000,7110.000,-522.000,455.000,313.000,0.000,0.000,0
2026-01-31 00:11:35,1206254,2878.000,2273.000,7183.000,-833.000,113.000,471.000,0.000,0.000,0
2026-01-31 00:11:35,1206294,3161.000,2406.000,7864.000,-156.000,84.000,359.000,0.000,0.000,0
2026-01-31 00:11:35,1206334,3063.000,3026.000,7761.000,31.000,399.000,239.000,0.000,0.000,0
2026-01-31 00:11:35,1206376,2677.000,2734.000,7084.000,-286.000,283.000,206.000,0.000,0.000,0
2026-01-31 00:11:35,1206414,2851.000,2844.000,7162.000,-12.000,-257.000,86.000,0.000,0.000,0
2026-01-31 00:11:35,1206454,2869.000,2644.000,7005.000,-229.000,-203.000,-117.000,0.000,0.000,0
2026-01-31 00:11:35,1206494,2928.000,2514.000,6817.000,-81.000,-306.000,-231.000,0.000,0.000,0
2026-01-31 00:11:35,1206534,3078.000,2706.000,6772.000,438.000,-265.000,-302.000,0.000,0.000,0
2026-01-31 00:11:35,1206574,2976.000,3332.000,6621.000,747.000,-11.000,-441.000,0.000,0.000,0
2026-01-31 00:11:35,1206614,3000.000,3396.000,6684.000,422.000,-78.000,-521.000,0.000,0.000,0
2026-01-31 00:11:35,1206654,3397.000,3157.000,7193.000,388.000,-25.000,-462.000,0.000,0.000,0
2026-01-31 00:11:35,1206694,3462.000,3508.000,7652.000,510.000,258.000,-204.000,0.000,0.000,0
2026-01-31 00:11:35,1206734,3086.000,3206.000,7442.000,-60.000,356.000,208.000,0.000,0.000,0
2026-01-31 00:11:35,1206774,2961.000,3606.000,7612.000,153.000,-56.000,332.000,0.000,0.000,0
2026-01-31 00:11:36,1206814,2872.000,3719.000,7251.000,-641.000,144.000,315.000,15.494,0.000,1
2026-01-31 00:11:36,1206854,2515.000,2296.000,6626.000,-1685.000,-109.000,539.000,15.494,0.000,1
2026-01-31 00:11:36,1206894,2817.000,1539.000,7368.000,-818.000,-450.000,451.000,15.494,0.000,1
2026-01-31 00:11:36,1206934,3408.000,2330.000,8232.000,726.000,-131.000,187.000,0.000,0.000,0
2026-01-31 00:11:36,1206974,2648.000,3541.000,6829.000,218.000,413.000,56.000,0.000,0.000,0
2026-01-31 00:11:36,1207014,2102.000,2606.000,5818.000,-1122.000,-418.000,-35.000,0.000,0.000,0
2026-01-31 00:11:36,1207054,2995.000,1787.000,6300.000,-956.000,-1288.000,-416.000,0.000,0.000,0
2026-01-31 00:11:36,1207094,3996.000,2219.000,7097.000,354.000,-683.000,-879.000,0.000,0.000,0
2026-01-31 00:11:36,1207134,3878.000,3105.000,7051.000,1157.000,277.000,-887.000,0.000,0.000,0
2026-01-31 00:11:36,1207174,3485.000,3459.000,7191.000,1224.000,396.000,-223.000,0.000,0.000,0
2026-01-31 00:11:36,1207214,3304.000,3950.000,7179.000,539.000,209.000,-93.000,0.000,0.000,0
2026-01-31 00:11:36,1207254,3278.000,3235.000,7035.000,-232.000,82.000,-27.000,0.000,0.000,0
2026-01-31 00:11:36,1207294,3360.000,3036.000,7346.000,158.000,247.000,117.000,0.000,0.000,0
2026-01-31 00:11:36,1207334,3119.000,3509.000,7548.000,485.000,557.000,296.000,0.000,0.000,0
2026-01-31 00:11:36,1207374,2952.000,3707.000,7738.000,397.000,661.000,370.000,0.000,0.000,0
2026-01-31 00:11:36,1207414,2678.000,3707.000,7232.000,-265.000,571.000,526.000,0.000,0.000,0
2026-01-31 00:11:36,1207454,2372.000,3173.000,6760.000,-944.000,110.000,521.000,0.000,0.000,0
2026-01-31 00:11:36,1207494,2756.000,2542.000,7066.000,-816.000,-252.000,198.000,0.000,0.000,0
2026-01-31 00:11:36,1207534,2920.000,2859.000,7437.000,-444.000,-92.000,33.000,0.000,0.000,0
2026-01-31 00:11:36,1207574,2871.000,2440.000,7153.000,-754.000,-183.000,97.000,0.000,0.000,0
2026-01-31 00:11:36,1207614,2887.000,1951.000,7198.000,-604.000,-334.000,-40.000,0.000,0.000,0
2026-01-31 00:11:36,1207654,3096.000,2203.000,7182.000,-298.000,-352.000,-93.000,0.000,0.000,0
2026-01-31 00:11:36,1207694,3018.000,2042.000,6972.000,-202.000,-246.000,-125.000,0.000,0.000,0
2026-01-31 00:11:36,1207734,3418.000,2105.000,7594.000,273.000,-247.000,-117.000,0.000,0.000,0
2026-01-31 00:11:36,1207774,3404.000,2740.000,7646.000,577.000,227.000,32.000,0.000,0.000,0
2026-01-31 00:11:37,1207814,2709.000,2675.000,7199.000,-37.000,309.000,334.000,15.298,0.000,1
2026-01-31 00:11:37,1207854,2737.000,2007.000,7501.000,-291.000,19.000,328.000,15.298,0.000,1
2026-01-31 00:11:37,1207894,2970.000,2697.000,7847.000,396.000,219.000,201.000,15.298,0.000,1
2026-01-31 00:11:37,1207934,2592.000,2943.000,7361.000,529.000,475.000,84.000,0.000,0.000,0
2026-01-31 00:11:37,1207974,2703.000,3045.000,7360.000,387.000,41.000,-83.000,0.000,0.000,0
2026-01-31 00:11:37,1208014,2987.000,3068.000,7331.000,184.000,-149.000,-227.000,0.000,0.000,0
2026-01-31 00:11:37,1208054,2848.000,2814.000,6976.000,-102.000,-138.000,-248.000,0.000,0.000,0
2026-01-31 00:11:37,1208094,2990.000,2528.000,7194.000,176.000,-306.000,-298.000,0.000,0.000,0
2026-01-31 00:11:37,1208136,3169.000,2998.000,7277.000,592.000,-137.000,-382.000,0.000,0.000,0
2026-01-31 00:11:37,1208175,2881.000,3310.000,6754.000,297.000,-54.000,-428.000,0.000,0.000,0
2026-01-31 00:11:37,1208214,2955.000,3008.000,6661.000,-10.000,-388.000,-430.000,0.000,0.000,0
2026-01-31 00:11:37,1208254,3312.000,3095.000,6946.000,47.000,-360.000,-351.000,0.000,0.000,0
2026-01-31 00:11:37,1208294,3307.000,2793.000,6823.000,-304.000,-48.000,-183.000,0.000,0.000,0
2026-01-31 00:11:37,1208334,3471.000,2808.000,7206.000,70.000,12.000,27.000,0.000,0.000,0
2026-01-31 00:11:37,1208376,3318.000,3236.000,7250.000,208.000,338.000,148.000,0.000,0.000,0
2026-01-31 00:11:37,1208414,3049.000,3105.000,7127.000,-309.000,265.000,295.000,0.000,0.000,0
2026-01-31 00:11:37,1208454,3188.000,2720.000,7413.000,-400.000,100.000,317.000,0.000,0.000,0
2026-01-31 00:11:37,1208494,3279.000,2706.000,7681.000,-159.000,339.000,302.000,0.000,0.000,0
2026-01-31 00:11:37,1208534,2985.000,2834.000,7508.000,-242.000,447.000,413.000,0.000,0.000,0
2026-01-31 00:11:37,1208574,2847.000,2506.000,7542.000,-398.000,215.000,473.000,0.000,0.000,0
2026-01-31 00:11:37,1208614,2899.000,2429.000,7698.000,-291.000,78.000,408.000,0.000,0.000,0
2026-01-31 00:11:37,1208654,2796.000,2211.000,7402.000,-332.000,139.000,267.000,0.000,0.000,0
2026-01-31 00:11:37,1208694,2727.000,1992.000,7394.000,-68.000,-46.000,223.000,0.000,0.000,0
2026-01-31 00:11:37,1208734,2687.000,2382.000,7438.000,189.000,-87.000,184.000,0.000,0.000,0
2026-01-31 00:11:37,1208774,2574.000,2554.000,7033.000,65.000,-75.000,-76.000,0.000,0.000,0
2026-01-31 00:11:38,1208814,2905.000,2392.000,6975.000,207.000,-317.000,-289.000,15.077,0.000,1
2026-01-31 00:11:38,1208854,3140.000,2793.000,7060.000,679.000,-185.000,-366.000,15.077,0.000,1
2026-01-31 00:11:38,1208894,2950.000,3061.000,6826.000,505.000,-54.000,-306.000,15.077,0.000,1
2026-01-31 00:11:38,1208934,2915.000,2633.000,6971.000,316.000,-178.000,-258.000,0.000,0.000,0
2026-01-31 00:11:38,1208974,3107.000,3142.000,7267.000,715.000,-125.000,-290.000,0.000,0.000,0
2026-01-31 00:11:38,1209014,2926.000,3495.000,6880.000,474.000,92.000,-394.000,0.000,0.000,0
2026-01-31 00:11:38,1209054,3173.000,3208.000,6943.000,85.000,-232.000,-418.000,0.000,0.000,0
2026-01-31 00:11:38,1209094,3447.000,3160.000,7394.000,125.000,-80.000,-277.000,0.000,0.000,0
2026-01-31 00:11:38,1209134,3335.000,3236.000,7410.000,113.000,86.000,-32.000,0.000,0.000,0
2026-01-31 00:11:38,1209174,3228.000,3302.000,7676.000,54.000,95.000,138.000,0.000,0.000,0
2026-01-31 00:11:38,1209214,3182.000,3496.000,7127.000,-356.000,122.000,166.000,0.000,0.000,0
2026-01-31 00:11:38,1209254,2639.000,2769.000,6372.000,-1249.000,-69.000,295.000,0.000,0.000,0
2026-01-31 00:11:38,1209294,3239.000,1827.000,7268.000,-792.000,-502.000,150.000,0.000,0.000,0
2026-01-31 00:11:38,1209334,3672.000,2829.000,7909.000,472.000,280.000,40.000,0.000,0.000,0
2026-01-31 00:11:38,1209374,2930.000,3155.000,7350.000,16.000,602.000,356.000,0.000,0.000,0
2026-01-31 00:11:38,1209414,2950.000,2518.000,7703.000,-480.000,193.000,529.000,0.000,0.000,0
2026-01-31 00:11:38,1209454,2879.000,2734.000,7462.000,-235.000,144.000,297.000,0.000,0.000,0
2026-01-31 00:11:38,1209494,2757.000,2776.000,7100.000,-108.000,0.000,68.000,0.000,0.000,0
2026-01-31 00:11:38,1209534,3151.000,2623.000,7504.000,275.000,-275.000,-126.000,0.000,0.000,0
2026-01-31 00:11:38,1209574,3288.000,3398.000,7536.000,520.000,25.000,-125.000,0.000,0.000,0
2026-01-31 00:11:38,1209614,2786.000,2802.000,6974.000,-105.000,119.000,-124.000,0.000,0.000,0
2026-01-31 00:11:38,1209654,3080.000,2681.000,7150.000,238.000,-294.000,-212.000,0.000,0.000,0
2026-01-31 00:11:38,1209694,3240.000,3397.000,7191.000,562.000,-146.000,-361.000,0.000,0.000,0
2026-01-31 00:11:38,1209734,3111.000,3337.000,6891.000,202.000,-74.000,-434.000,0.000,0.000,0
2026-01-31 00:11:38,1209774,3329.000,2929.000,7149.000,-6.000,-253.000,-305.000,0.000,0.000,0
2026-01-31 00:11:39,1209814,3455.000,3270.000,7211.000,83.000,80.000,-96.000,15.324,0.000,1
2026-01-31 00:11:39,1209854,3026.000,2907.000,6818.000,-489.000,36.000,90.000,15.324,0.000,1
2026-01-31 00:11:39,1209894,3228.000,2535.000,7008.000,-233.000,-202.000,87.000,15.324,0.000,1
2026-01-31 00:11:39,1209934,3197.000,2741.000,6895.000,74.000,105.000,-41.000,0.000,0.000,0
2026-01-31 00:11:39,1209974,3153.000,2918.000,6786.000,86.000,62.000,-37.000,0.000,0.000,0
2026-01-31 00:11:39,1210014,3162.000,2785.000,6771.000,-121.000,94.000,28.000,0.000,0.000,0
2026-01-31 00:11:39,1210054,2990.000,2589.000,6817.000,-159.000,170.000,133.000,0.000,0.000,0
2026-01-31 00:11:39,1210094,3032.000,2574.000,7152.000,-28.000,211.000,174.000,0.000,0.000,0
2026-01-31 00:11:39,1210134,3123.000,2872.000,7691.000,430.000,373.000,171.000,0.000,0.000,0
2026-01-31 00:11:39,1210174,2816.000,3531.000,7277.000,316.000,555.000,295.000,0.000,0.000,0
2026-01-31 00:11:39,1210218,2291.000,2542.000,7098.000,-780.000,67.000,473.000,0.000,0.000,0
2026-01-31 00:11:39,1210254,2791.000,2236.000,7886.000,-336.000,-127.000,292.000,0.000,0.000,0
2026-01-31 00:11:39,1210294,2908.000,2891.000,8008.000,146.000,237.000,186.000,0.000,0.000,0
2026-01-31 00:11:39,1210334,2583.000,2868.000,7492.000,-198.000,202.000,248.000,0.000,0.000,0
2026-01-31 00:11:39,1210376,2472.000,2343.000,7314.000,-564.000,-266.000,221.000,0.000,0.000,0
2026-01-31 00:11:39,1210415,2739.000,2163.000,7295.000,-596.000,-547.000,-93.000,0.000,0.000,0
2026-01-31 00:11:39,1210454,3019.000,2127.000,6869.000,-343.000,-691.000,-343.000,0.000,0.000,0
2026-01-31 00:11:39,1210494,3315.000,2161.000,7053.000,237.000,-705.000,-378.000,0.000,0.000,0
2026-01-31 00:11:39,1210534,3606.000,2802.000,7378.000,846.000,-321.000,-368.000,0.000,0.000,0
2026-01-31 00:11:39,1210574,2912.000,2685.000,6516.000,386.000,-196.000,-122.000,0.000,0.000,0
2026-01-31 00:11:39,1210614,3156.000,2385.000,6824.000,192.000,-570.000,-119.000,0.000,0.000,0
2026-01-31 00:11:39,1210654,3272.000,2881.000,6775.000,425.000,-321.000,-327.000,0.000,0.000,0
2026-01-31 00:11:39,1210694,3317.000,3094.000,6803.000,432.000,-184.000,-387.000,0.000,0.000,0
2026-01-31 00:11:39,1210734,3547.000,3154.000,6943.000,557.000,-55.000,-381.000,0.000,0.000,0
2026-01-31 00:11:39,1210774,3359.000,3467.000,6787.000,477.000,151.000,-155.000,0.000,0.000,0
2026-01-31 00:11:40,1210814,3166.000,3211.000,6926.000,-43.000,34.000,108.000,15.401,0.000,1
2026-01-31 00:11:40,1210854,3437.000,2767.000,7350.000,-61.000,11.000,9.000,15.401,0.000,1
2026-01-31 00:11:40,1210894,3506.000,3430.000,7450.000,214.000,253.000,-3.000,15.401,0.000,1
2026-01-31 00:11:40,1210934,3234.000,3132.000,7060.000,-295.000,247.000,196.000,0.000,0.000,0
2026-01-31 00:11:40,1210974,3207.000,2729.000,7425.000,-167.000,13.000,313.000,0.000,0.000,0
2026-01-31 00:11:40,1211014,3213.000,2947.000,7318.000,-264.000,79.000,166.000,0.000,0.000,0
2026-01-31 00:11:40,1211054,3251.000,2531.000,7361.000,-288.000,31.000,131.000,0.000,0.000,0
2026-01-31 00:11:40,1211094,3266.000,2851.000,7571.000,57.000,84.000,170.000,0.000,0.000,0
2026-01-31 00:11:40,1211134,3052.000,2852.000,7279.000,-142.000,163.000,208.000,0.000,0.000,0
2026-01-31 00:11:40,1211174,3025.000,2597.000,7207.000,-169.000,-13.000,125.000,0.000,0.000,0
2026-01-31 00:11:40,1211214,3260.000,3110.000,7326.000,275.000,-33.000,-49.000,0.000,0.000,0
2026-01-31 00:11:40,1211254,3090.000,3206.000,6923.000,109.000,91.000,-87.000,0.000,0.000,0
2026-01-31 00:11:40,1211294,3024.000,2680.000,6863.000,-158.000,-162.000,11.000,0.000,0.000,0
2026-01-31 00:11:40,1211334,3061.000,3108.000,6979.000,290.000,-80.000,-142.000,0.000,0.000,0
2026-01-31 00:11:40,1211374,3027.000,3229.000,6764.000,332.000,-36.000,-260.000,0.000,0.000,0
2026-01-31 00:11:40,1211414,3180.000,3222.000,6738.000,299.000,-160.000,-289.000,0.000,0.000,0
2026-01-31 00:11:40,1211454,3143.000,3267.000,6559.000,113.000,-153.000,-270.000,0.000,0.000,0
2026-01-31 00:11:40,1211494,3269.000,3050.000,6680.000,-53.000,-268.000,-213.000,0.000,0.000,0
2026-01-31 00:11:40,1211534,3589.000,3068.000,7111.000,175.000,-97.000,-136.000,0.000,0.000,0
2026-01-31 00:11:40,1211574,3489.000,3554.000,7160.000,335.000,231.000,-44.000,0.000,0.000,0
2026-01-31 00:11:40,1211614,3055.000,3274.000,6731.000,-321.000,175.000,160.000,0.000,0.000,0
2026-01-31 00:11:40,1211654,3336.000,2676.000,7069.000,-294.000,-149.000,104.000,0.000,0.000,0
2026-01-31 00:11:40,1211694,3541.000,3290.000,7146.000,50.000,65.000,59.000,0.000,0.000,0
2026-01-31 00:11:40,1211734,3252.000,2756.000,7063.000,-387.000,48.000,262.000,0.000,0.000,0
2026-01-31 00:11:40,1211774,3309.000,2573.000,7271.000,-123.000,118.000,242.000,0.000,0.000,0
2026-01-31 00:11:41,1211814,3087.000,3041.000,7093.000,31.000,239.000,183.000,16.085,0.000,1
2026-01-31 00:11:41,1211854,3046.000,2869.000,6835.000,-156.000,61.000,90.000,16.085,0.000,1
2026-01-31 00:11:41,1211894,3250.000,2927.000,7163.000,184.000,19.000,-50.000,16.085,0.000,1
2026-01-31 00:11:41,1211934,3347.000,3456.000,7089.000,330.000,177.000,-92.000,0.000,0.000,0
2026-01-31 00:11:41,1211974,3166.000,3185.000,7037.000,101.000,177.000,-32.000,0.000,0.000,0
2026-01-31 00:11:41,1212014,3271.000,3216.000,7153.000,328.000,74.000,-126.000,0.000,0.000,0
2026-01-31 00:11:41,1212054,3045.000,3491.000,6746.000,37.000,71.000,-55.000,0.000,0.000,0
2026-01-31 00:11:41,1212094,3369.000,2851.000,7157.000,-191.000,-150.000,-137.000,0.000,0.000,0
2026-01-31 00:11:41,1212134,3534.000,3598.000,7372.000,660.000,198.000,-294.000,0.000,0.000,0
2026-01-31 00:11:41,1212174,3141.000,3698.000,6654.000,-161.000,150.000,-12.000,0.000,0.000,0
2026-01-31 00:11:41,1212214,3040.000,2681.000,6658.000,-579.000,-229.000,116.000,0.000,0.000,0
2026-01-31 00:11:41,1212254,3308.000,3100.000,7222.000,151.000,-234.000,-115.000,0.000,0.000,0
2026-01-31 00:11:41,1212294,3497.000,3583.000,7233.000,11.000,-26.000,-34.000,0.000,0.000,0
2026-01-31 00:11:41,1212334,3212.000,2999.000,7038.000,-273.000,167.000,134.000,0.000,0.000,0
2026-01-31 00:11:41,1212377,3182.000,3123.000,7183.000,-34.000,179.000,288.000,0.000,0.000,0
2026-01-31 00:11:41,1212414,2950.000,3069.000,6823.000,-318.000,168.000,333.000,0.000,0.000,0
2026-01-31 00:11:41,1212454,3013.000,2698.000,7153.000,-356.000,-41.000,296.000,0.000,0.000,0
2026-01-31 00:11:41,1212494,3039.000,3219.000,7243.000,103.000,226.000,37.000,0.000,0.000,0
2026-01-31 00:11:41,1212534,2941.000,2962.000,6724.000,-325.000,-105.000,6.000,0.000,0.000,0
2026-01-31 00:11:41,1212574,3370.000,2663.000,6971.000,-30.000,-354.000,-147.000,0.000,0.000,0
2026-01-31 00:11:41,1212614,3443.000,3376.000,7061.000,306.000,-127.000,-206.000,0.000,0.000,0
2026-01-31 00:11:41,1212654,3304.000,3168.000,6724.000,-37.000,-101.000,-143.000,0.000,0.000,0
2026-01-31 00:11:41,1212694,3396.000,2855.000,6954.000,174.000,-74.000,-115.000,0.000,0.000,0
2026-01-31 00:11:41,1212734,3454.000,3367.000,7074.000,415.000,82.000,-190.000,0.000,0.000,0
2026-01-31 00:11:41,1212774,3343.000,3415.000,6777.000,-42.000,74.000,-153.000,0.000,0.000,0
2026-01-31 00:11:42,1212814,3361.000,2795.000,6954.000,12.000,-68.000,-27.000,16.029,0.000,1
2026-01-31 00:11:42,1212854,3202.000,3723.000,7267.000,531.000,144.000,28.000,16.029,0.000,1
2026-01-31 00:11:42,1212894,3114.000,3166.000,6951.000,-437.000,57.000,168.000,16.029,0.000,1
2026-01-31 00:11:42,1212934,2998.000,2781.000,6588.000,-204.000,-31.000,68.000,0.000,0.000,0
2026-01-31 00:11:42,1212974,2970.000,3146.000,6613.000,71.000,-103.000,24.000,0.000,0.000,0
2026-01-31 00:11:42,1213014,3213.000,2928.000,6923.000,27.000,-45.000,-107.000,0.000,0.000,0
2026-01-31 00:11:42,1213054,3434.000,3300.000,7267.000,529.000,216.000,-182.000,0.000,0.000,0
2026-01-31 00:11:42,1213094,3164.000,4068.000,6918.000,401.000,353.000,-3.000,0.000,0.000,0
2026-01-31 00:11:42,1213134,2974.000,3166.000,6805.000,-401.000,33.000,143.000,0.000,0.000,0
2026-01-31 00:11:42,1213174,3286.000,2930.000,7323.000,79.000,-84.000,2.000,0.000,0.000,0
2026-01-31 00:11:42,1213214,3229.000,3904.000,7058.000,385.000,87.000,-98.000,0.000,0.000,0
2026-01-31 00:11:42,1213254,3183.000,3086.000,6638.000,-300.000,-287.000,-94.000,0.000,0.000,0
2026-01-31 00:11:42,1213294,3402.000,3119.000,7053.000,57.000,-126.000,-60.000,0.000,0.000,0
2026-01-31 00:11:42,1213334,3157.000,3479.000,6897.000,70.000,165.000,33.000,0.000,0.000,0
2026-01-31 00:11:42,1213374,3166.000,3093.000,6954.000,-76.000,24.000,57.000,0.000,0.000,0
2026-01-31 00:11:42,1213414,3326.000,3584.000,7175.000,139.000,26.000,-27.000,0.000,0.000,0
2026-01-31 00:11:42,1213454,3180.000,3418.000,6674.000,-334.000,57.000,36.000,0.000,0.000,0
2026-01-31 00:11:42,1213494,3154.000,2765.000,6923.000,-396.000,-111.000,207.000,0.000,0.000,0
2026-01-31 00:11:42,1213534,3187.000,3022.000,7332.000,313.000,119.000,110.000,0.000,0.000,0
2026-01-31 00:11:42,1213574,3125.000,3768.000,7291.000,309.000,323.000,53.000,0.000,0.000,0
2026-01-31 00:11:42,1213614,3168.000,3348.000,7054.000,-185.000,-34.000,40.000,0.000,0.000,0
2026-01-31 00:11:42,1213654,3085.000,3163.000,6886.000,-324.000,-126.000,114.000,0.000,0.000,0
2026-01-31 00:11:42,1213694,3130.000,2847.000,6834.000,-187.000,-188.000,-39.000,0.000,0.000,0
2026-01-31 00:11:42,1213734,3189.000,3132.000,6719.000,208.000,-164.000,-186.000,0.000,0.000,0
2026-01-31 00:11:42,1213774,3158.000,3616.000,6471.000,159.000,-168.000,-199.000,0.000,0.000,0
2026-01-31 00:11:43,1213814,3096.000,3085.000,6597.000,-129.000,-166.000,-37.000,16.348,0.000,1
2026-01-31 00:11:43,1213854,3397.000,3200.000,7240.000,208.000,17.000,-10.000,16.348,0.000,1
2026-01-31 00:11:43,1213894,3320.000,3897.000,7293.000,298.000,363.000,-36.000,16.348,0.000,1
2026-01-31 00:11:43,1213934,3079.000,3293.000,6645.000,-611.000,181.000,144.000,0.000,0.000,0
2026-01-31 00:11:43,1213974,3273.000,2582.000,6953.000,-435.000,-198.000,146.000,0.000,0.000,0
2026-01-31 00:11:43,1214014,3290.000,3326.000,7235.000,193.000,219.000,44.000,0.000,0.000,0
2026-01-31 00:11:43,1214054,2776.000,3251.000,6847.000,-114.000,19.000,192.000,0.000,0.000,0
2026-01-31 00:11:43,1214094,3370.000,3080.000,7371.000,-23.000,-121.000,-91.000,0.000,0.000,0
2026-01-31 00:11:43,1214136,3550.000,3373.000,7106.000,-35.000,205.000,-189.000,0.000,0.000,0
2026-01-31 00:11:43,1214174,3348.000,2876.000,6608.000,-222.000,11.000,-105.000,0.000,0.000,0
2026-01-31 00:11:43,1214214,3312.000,3177.000,7378.000,632.000,-106.000,95.000,0.000,0.000,0
2026-01-31 00:11:43,1214254,3189.000,4622.000,7385.000,677.000,242.000,-130.000,0.000,0.000,0
2026-01-31 00:11:43,1214294,2883.000,3544.000,6471.000,-812.000,186.000,73.000,0.000,0.000,0
2026-01-31 00:11:43,1214334,3694.000,2196.000,7503.000,-230.000,-232.000,86.000,0.000,0.000,0
2026-01-31 00:11:43,1214376,2899.000,4144.000,7224.000,794.000,394.000,146.000,0.000,0.000,0
2026-01-31 00:11:43,1214414,2374.000,2708.000,6202.000,-1289.000,-294.000,299.000,0.000,0.000,0
2026-01-31 00:11:43,1214454,2632.000,2055.000,6225.000,-1123.000,-774.000,151.000,0.000,0.000,0
2026-01-31 00:11:43,1214494,2993.000,2088.000,6248.000,-291.000,-652.000,-122.000,0.000,0.000,0
2026-01-31 00:11:43,1214534,3277.000,2986.000,6269.000,503.000,-247.000,-405.000,0.000,0.000,0
2026-01-31 00:11:43,1214574,2984.000,3060.000,6109.000,219.000,24.000,-370.000,0.000,0.000,0
2026-01-31 00:11:43,1214614,3032.000,2938.000,5834.000,-128.000,-272.000,-189.000,0.000,0.000,0
2026-01-31 00:11:43,1214654,3554.000,2633.000,6731.000,-117.000,-180.000,-211.000,0.000,0.000,0
2026-01-31 00:11:43,1214694,3982.000,2787.000,7771.000,508.000,355.000,42.000,0.000,0.000,0
2026-01-31 00:11:43,1214734,3627.000,3535.000,8188.000,1054.000,1080.000,319.000,0.000,0.000,0
2026-01-31 00:11:43,1214774,2701.000,4028.000,7466.000,116.000,691.000,866.000,0.000,0.000,0
2026-01-31 00:11:44,1214814,2280.000,2822.000,6816.000,-1220.000,-89.000,528.000,16.106,0.000,1
2026-01-31 00:11:44,1214854,2791.000,1840.000,7032.000,-933.000,-724.000,48.000,16.106,0.000,1
2026-01-31 00:11:44,1214894,3521.000,3026.000,7555.000,757.000,-292.000,-478.000,16.106,0.000,1
2026-01-31 00:11:44,1214934,3640.000,3839.000,7766.000,1124.000,175.000,-464.000,0.000,0.000,0
2026-01-31 00:11:44,1214974,3429.000,4120.000,7479.000,506.000,309.000,-225.000,0.000,0.000,0
2026-01-31 00:11:44,1215014,3095.000,3222.000,7138.000,-491.000,-145.000,72.000,0.000,0.000,0
2026-01-31 00:11:44,1215054,3333.000,2847.000,6984.000,-289.000,-486.000,-30.000,0.000,0.000,0
2026-01-31 00:11:44,1215094,3320.000,3143.000,6929.000,100.000,-300.000,-116.000,0.000,0.000,0
2026-01-31 00:11:44,1215134,3401.000,3249.000,6805.000,259.000,-108.000,-198.000,0.000,0.000,0
2026-01-31 00:11:44,1215174,2998.000,3258.000,6378.000,48.000,-71.000,61.000,0.000,0.000,0
2026-01-31 00:11:44,1215214,2963.000,3114.000,6336.000,-56.000,-174.000,67.000,0.000,0.000,0
2026-01-31 00:11:44,1215254,3161.000,3153.000,6771.000,93.000,-53.000,-9.000,0.000,0.000,0
2026-01-31 00:11:44,1215294,3216.000,3303.000,6899.000,206.000,234.000,8.000,0.000,0.000,0
2026-01-31 00:11:44,1215334,3044.000,3319.000,6982.000,-16.000,241.000,216.000,0.000,0.000,0
2026-01-31 00:11:44,1215374,3014.000,3081.000,7212.000,-272.000,131.000,237.000,0.000,0.000,0
2026-01-31 00:11:44,1215414,3055.000,3176.000,6954.000,-297.000,48.000,59.000,0.000,0.000,0
2026-01-31 00:11:44,1215454,3024.000,2972.000,6505.000,-501.000,-194.000,77.000,0.000,0.000,0
2026-01-31 00:11:44,1215494,3316.000,2440.000,6869.000,-204.000,-324.000,-128.000,0.000,0.000,0
2026-01-31 00:11:44,1215534,3649.000,3359.000,7183.000,232.000,-236.000,-345.000,0.000,0.000,0
2026-01-31 00:11:44,1215574,3336.000,3180.000,6523.000,-151.000,5.000,-204.000,0.000,0.000,0
2026-01-31 00:11:44,1215614,3455.000,2892.000,6902.000,108.000,-120.000,-53.000,0.000,0.000,0
2026-01-31 00:11:44,1215654,3276.000,3618.000,6896.000,541.000,215.000,-25.000,0.000,0.000,0
2026-01-31 00:11:44,1215694,3044.000,3702.000,6780.000,267.000,249.000,-29.000,0.000,0.000,0
2026-01-31 00:11:44,1215734,3397.000,3625.000,7266.000,144.000,197.000,26.000,0.000,0.000,0
2026-01-31 00:11:44,1215774,3172.000,3810.000,7381.000,72.000,494.000,217.000,0.000,0.000,0
2026-01-31 00:11:45,1215814,2752.000,3339.000,7095.000,-291.000,431.000,316.000,16.975,0.000,1
2026-01-31 00:11:45,1215854,2806.000,3358.000,7331.000,-54.000,149.000,205.000,16.975,0.000,1
2026-01-31 00:11:45,1215894,2879.000,3685.000,7219.000,74.000,200.000,18.000,16.975,0.000,1
2026-01-31 00:11:45,1215934,2849.000,3307.000,7206.000,-395.000,-36.000,29.000,0.000,0.000,0
2026-01-31 00:11:45,1215974,2999.000,2794.000,7191.000,-519.000,-175.000,46.000,0.000,0.000,0
2026-01-31 00:11:45,1216014,2961.000,2944.000,6968.000,-180.000,-143.000,-50.000,0.000,0.000,0
2026-01-31 00:11:45,1216054,2919.000,2953.000,6706.000,-271.000,-229.000,-167.000,0.000,0.000,0
2026-01-31 00:11:45,1216094,3093.000,2693.000,6679.000,-313.000,-344.000,-171.000,0.000,0.000,0
2026-01-31 00:11:45,1216136,3044.000,2678.000,6398.000,-92.000,-232.000,-106.000,0.000,0.000,0
2026-01-31 00:11:45,1216175,3063.000,3001.000,6621.000,356.000,-142.000,-99.000,0.000,0.000,0
2026-01-31 00:11:45,1216214,3262.000,3241.000,7016.000,404.000,81.000,-85.000,0.000,0.000,0
2026-01-31 00:11:45,1216254,2897.000,3223.000,6737.000,72.000,173.000,152.000,0.000,0.000,0
2026-01-31 00:11:45,1216294,2782.000,3309.000,6776.000,272.000,-113.000,149.000,0.000,0.000,0
2026-01-31 00:11:45,1216334,2922.000,3515.000,6731.000,225.000,-35.000,-75.000,0.000,0.000,0
2026-01-31 00:11:45,1216376,2910.000,3525.000,6769.000,-37.000,1.000,-72.000,0.000,0.000,0
2026-01-31 00:11:45,1216414,2997.000,3076.000,6901.000,-172.000,-26.000,-57.000,0.000,0.000,0
2026-01-31 00:11:45,1216454,3218.000,3290.000,7274.000,112.000,84.000,-107.000,0.000,0.000,0
2026-01-31 00:11:45,1216494,3352.000,3751.000,7429.000,190.000,167.000,-232.000,0.000,0.000,0
2026-01-31 00:11:45,1216534,3415.000,3474.000,7248.000,-331.000,22.000,-189.000,0.000,0.000,0
2026-01-31 00:11:45,1216574,3527.000,3225.000,7335.000,-406.000,-135.000,-54.000,0.000,0.000,0
2026-01-31 00:11:45,1216614,3405.000,2851.000,7401.000,-400.000,-65.000,113.000,0.000,0.000,0
2026-01-31 00:11:45,1216654,3479.000,3025.000,7701.000,52.000,68.000,78.000,0.000,0.000,0
2026-01-31 00:11:45,1216694,3003.000,3327.000,7128.000,-76.000,339.000,315.000,0.000,0.000,0
2026-01-31 00:11:45,1216734,2678.000,3033.000,7063.000,-249.000,30.000,436.000,0.000,0.000,0
2026-01-31 00:11:45,1216774,2977.000,3077.000,7571.000,57.000,72.000,202.000,0.000,0.000,0
2026-01-31 00:11:46,1216814,2962.000,3499.000,7412.000,56.000,316.000,21.000,16.939,0.000,1
2026-01-31 00:11:46,1216854,2707.000,3191.000,6872.000,-207.000,136.000,22.000,16.939,0.000,1
2026-01-31 00:11:46,1216894,2813.000,2945.000,6891.000,-76.000,-227.000,-55.000,16.939,0.000,1
2026-01-31 00:11:46,1216934,3249.000,3259.000,7440.000,190.000,-213.000,-162.000,0.000,0.000,0
2026-01-31 00:11:46,1216974,3204.000,3529.000,7218.000,162.000,104.000,-164.000,0.000,0.000,0
2026-01-31 00:11:46,1217014,2852.000,3124.000,6832.000,-219.000,-69.000,-77.000,0.000,0.000,0
2026-01-31 00:11:46,1217054,3135.000,3210.000,6832.000,-43.000,-280.000,-259.000,0.000,0.000,0
2026-01-31 00:11:46,1217094,3141.000,3250.000,6426.000,-124.000,-247.000,-300.000,0.000,0.000,0
2026-01-31 00:11:46,1217134,3275.000,2888.000,6761.000,-148.000,-252.000,-82.000,0.000,0.000,0
2026-01-31 00:11:46,1217174,3296.000,3065.000,7294.000,391.000,213.000,43.000,0.000,0.000,0
2026-01-31 00:11:46,1217214,3111.000,3719.000,7450.000,307.000,414.000,132.000,0.000,0.000,0
2026-01-31 00:11:46,1217254,3002.000,3275.000,7041.000,-430.000,239.000,183.000,0.000,0.000,0
2026-01-31 00:11:46,1217294,2957.000,2610.000,6936.000,-557.000,-142.000,189.000,0.000,0.000,0
2026-01-31 00:11:46,1217334,3036.000,2498.000,6938.000,-297.000,-210.000,118.000,0.000,0.000,0
2026-01-31 00:11:46,1217374,2858.000,2788.000,6778.000,66.000,-60.000,-14.000,0.000,0.000,0
2026-01-31 00:11:46,1217414,2844.000,2953.000,6825.000,138.000,-34.000,-49.000,0.000,0.000,0
2026-01-31 00:11:46,1217454,2873.000,2922.000,6748.000,31.000,11.000,-87.000,0.000,0.000,0
2026-01-31 00:11:46,1217494,2991.000,2804.000,6792.000,18.000,3.000,-58.000,0.000,0.000,0
2026-01-31 00:11:46,1217534,2944.000,3056.000,6798.000,204.000,76.000,-61.000,0.000,0.000,0
2026-01-31 00:11:46,1217574,2963.000,3282.000,6766.000,296.000,92.000,-109.000,0.000,0.000,0
2026-01-31 00:11:46,1217614,3088.000,3414.000,7094.000,421.000,114.000,-122.000,0.000,0.000,0
2026-01-31 00:11:46,1217654,3128.000,3701.000,7415.000,489.000,281.000,-105.000,0.000,0.000,0
2026-01-31 00:11:46,1217694,3042.000,3765.000,7664.000,351.000,290.000,-66.000,0.000,0.000,0
2026-01-31 00:11:46,1217734,3196.000,3919.000,7794.000,154.000,187.000,-85.000,0.000,0.000,0
2026-01-31 00:11:46,1217774,3220.000,3794.000,7545.000,-366.000,40.000,22.000,0.000,0.000,0
2026-01-31 00:11:47,1217814,3190.000,3199.000,7675.000,-284.000,-153.000,146.000,16.944,0.000,1
2026-01-31 00:11:47,1217854,3054.000,3250.000,7401.000,-240.000,-93.000,55.000,16.944,0.000,1
2026-01-31 00:11:47,1217894,2926.000,2870.000,6830.000,-490.000,-250.000,55.000,16.944,0.000,1
2026-01-31 00:11:47,1217934,2988.000,2773.000,6684.000,-284.000,-480.000,-72.000,0.000,0.000,0
2026-01-31 00:11:47,1217974,3200.000,2723.000,6741.000,-83.000,-382.000,-160.000,0.000,0.000,0
2026-01-31 00:11:47,1218014,3135.000,2754.000,6643.000,209.000,-99.000,-131.000,0.000,0.000,0
2026-01-31 00:11:47,1218054,2877.000,3113.000,6370.000,225.000,-58.000,-46.000,0.000,0.000,0
2026-01-31 00:11:47,1218094,3078.000,2981.000,6639.000,47.000,-135.000,-113.000,0.000,0.000,0
2026-01-31 00:11:47,1218136,3371.000,3280.000,7002.000,269.000,172.000,-130.000,0.000,0.000,0
2026-01-31 00:11:47,1218174,3199.000,3249.000,6927.000,57.000,368.000,30.000,0.000,0.000,0
2026-01-31 00:11:47,1218214,3169.000,3117.000,7290.000,176.000,248.000,175.000,0.000,0.000,0
2026-01-31 00:11:47,1218254,2816.000,3651.000,6900.000,219.000,229.000,37.000,0.000,0.000,0
2026-01-31 00:11:47,1218294,2844.000,3280.000,6535.000,-251.000,-117.000,-135.000,0.000,0.000,0
2026-01-31 00:11:47,1218334,3147.000,3003.000,6947.000,32.000,-205.000,-146.000,0.000,0.000,0
2026-01-31 00:11:47,1218376,3213.000,3169.000,7331.000,319.000,208.000,-65.000,0.000,0.000,0
2026-01-31 00:11:47,1218414,2970.000,3684.000,7456.000,416.000,381.000,-4.000,0.000,0.000,0
2026-01-31 00:11:47,1218454,2981.000,3626.000,7256.000,-135.000,204.000,52.000,0.000,0.000,0
2026-01-31 00:11:47,1218494,2889.000,3282.000,7082.000,-350.000,21.000,182.000,0.000,0.000,0
2026-01-31 00:11:47,1218534,2870.000,2988.000,7017.000,-410.000,-156.000,147.000,0.000,0.000,0
2026-01-31 00:11:47,1218574,3067.000,3352.000,7416.000,86.000,-159.000,49.000,0.000,0.000,0
2026-01-31 00:11:47,1218614,2596.000,3262.000,6687.000,-261.000,-77.000,90.000,0.000,0.000,0
2026-01-31 00:11:47,1218654,2705.000,2825.000,6780.000,-298.000,-446.000,43.000,0.000,0.000,0
2026-01-31 00:11:47,1218694,3228.000,3330.000,7331.000,120.000,-280.000,-101.000,0.000,0.000,0
2026-01-31 00:11:47,1218734,3346.000,3267.000,7283.000,-24.000,33.000,-36.000,0.000,0.000,0
2026-01-31 00:11:47,1218774,3130.000,3221.000,7068.000,-214.000,-42.000,134.000,0.000,0.000,0
2026-01-31 00:11:48,1218814,3081.000,2772.000,7036.000,-401.000,-317.000,155.000,16.728,0.000,1
2026-01-31 00:11:48,1218854,3365.000,2782.000,7151.000,-115.000,-345.000,18.000,16.728,0.000,1
2026-01-31 00:11:48,1218894,3239.000,3147.000,6786.000,110.000,-285.000,-107.000,16.728,0.000,1
2026-01-31 00:11:48,1218934,3237.000,2948.000,6418.000,-123.000,-498.000,-215.000,0.000,0.000,0
2026-01-31 00:11:48,1218974,3633.000,3072.000,6730.000,185.000,-445.000,-284.000,0.000,0.000,0
2026-01-31 00:11:48,1219014,3831.000,3194.000,7173.000,146.000,-39.000,-179.000,0.000,0.000,0
2026-01-31 00:11:48,1219054,3955.000,2742.000,7238.000,-57.000,235.000,38.000,0.000,0.000,0
2026-01-31 00:11:48,1219094,3783.000,2890.000,7628.000,481.000,370.000,127.000,0.000,0.000,0
2026-01-31 00:11:48,1219134,3535.000,3805.000,7285.000,317.000,308.000,237.000,0.000,0.000,0
2026-01-31 00:11:48,1219174,2871.000,2687.000,6467.000,-931.000,-77.000,356.000,0.000,0.000,0
2026-01-31 00:11:48,1219214,3125.000,1869.000,6729.000,-805.000,-585.000,138.000,0.000,0.000,0
2026-01-31 00:11:48,1219254,3862.000,2608.000,7128.000,427.000,-56.000,-353.000,0.000,0.000,0
2026-01-31 00:11:48,1219294,3605.000,3261.000,6701.000,556.000,368.000,-226.000,0.000,0.000,0
2026-01-31 00:11:48,1219334,3177.000,3196.000,6986.000,351.000,188.000,203.000,0.000,0.000,0
2026-01-31 00:11:48,1219374,3160.000,3456.000,6900.000,3.000,170.000,82.000,0.000,0.000,0
2026-01-31 00:11:48,1219414,3350.000,2623.000,6956.000,-136.000,163.000,52.000,0.000,0.000,0
2026-01-31 00:11:48,1219454,3397.000,3272.000,7313.000,483.000,255.000,96.000,0.000,0.000,0
2026-01-31 00:11:48,1219494,3125.000,3690.000,7015.000,497.000,257.000,16.000,0.000,0.000,0
2026-01-31 00:11:48,1219534,3119.000,3545.000,6637.000,-159.000,-58.000,-44.000,0.000,0.000,0
2026-01-31 00:11:48,1219574,3101.000,2712.000,6769.000,-223.000,-202.000,-33.000,0.000,0.000,0
2026-01-31 00:11:48,1219614,3393.000,3147.000,7139.000,313.000,3.000,-152.000,0.000,0.000,0
2026-01-31 00:11:48,1219654,3310.000,3553.000,6991.000,181.000,166.000,-92.000,0.000,0.000,0
2026-01-31 00:11:48,1219694,3298.000,3337.000,7096.000,43.000,141.000,88.000,0.000,0.000,0
2026-01-31 00:11:48,1219734,3219.000,3374.000,7209.000,-483.000,-52.000,295.000,0.000,0.000,0
2026-01-31 00:11:48,1219774,3168.000,2598.000,7088.000,-785.000,-90.000,347.000,0.000,0.000,0
2026-01-31 00:11:49,1219814,2929.000,2694.000,6896.000,-335.000,-93.000,308.000,16.265,0.000,1
2026-01-31 00:11:49,1219854,2825.000,2929.000,6784.000,-22.000,-111.000,95.000,16.265,0.000,1
2026-01-31 00:11:49,1219894,3279.000,3351.000,7117.000,326.000,-13.000,-151.000,16.265,0.000,1
2026-01-31 00:11:49,1219934,3241.000,3391.000,7054.000,185.000,260.000,-78.000,0.000,0.000,0
2026-01-31 00:11:49,1219974,3242.000,3038.000,7133.000,24.000,75.000,-34.000,0.000,0.000,0
2026-01-31 00:11:49,1220014,3351.000,3190.000,6989.000,124.000,-28.000,-120.000,0.000,0.000,0
2026-01-31 00:11:49,1220054,3015.000,3157.000,6534.000,21.000,-155.000,-124.000,0.000,0.000,0
2026-01-31 00:11:49,1220094,3520.000,2961.000,7121.000,81.000,-394.000,-199.000,0.000,0.000,0
2026-01-31 00:11:49,1220136,3565.000,3043.000,7368.000,267.000,165.000,-161.000,0.000,0.000,0
2026-01-31 00:11:49,1220175,3081.000,3193.000,6728.000,48.000,156.000,103.000,0.000,0.000,0
2026-01-31 00:11:49,1220214,2978.000,3182.000,6633.000,-137.000,-159.000,134.000,0.000,0.000,0
2026-01-31 00:11:49,1220254,3188.000,3091.000,6883.000,12.000,-77.000,-67.000,0.000,0.000,0
2026-01-31 00:11:49,1220294,3086.000,3285.000,6934.000,-19.000,181.000,-97.000,0.000,0.000,0
2026-01-31 00:11:49,1220334,3172.000,2870.000,7011.000,-349.000,54.000,6.000,0.000,0.000,0
2026-01-31 00:11:49,1220377,3182.000,2740.000,7361.000,-61.000,82.000,52.000,0.000,0.000,0
2026-01-31 00:11:49,1220414,3277.000,3365.000,7427.000,134.000,168.000,-2.000,0.000,0.000,0
2026-01-31 00:11:49,1220454,3032.000,2969.000,6829.000,-381.000,57.000,-28.000,0.000,0.000,0
2026-01-31 00:11:49,1220494,3018.000,2685.000,6660.000,-427.000,-122.000,-130.000,0.000,0.000,0
2026-01-31 00:11:49,1220534,3464.000,2535.000,6894.000,46.000,-151.000,-257.000,0.000,0.000,0
2026-01-31 00:11:49,1220574,3241.000,2913.000,6853.000,381.000,174.000,-89.000,0.000,0.000,0
2026-01-31 00:11:49,1220614,3396.000,3035.000,7367.000,405.000,328.000,58.000,0.000,0.000,0
2026-01-31 00:11:49,1220654,3114.000,3203.000,7663.000,411.000,681.000,252.000,0.000,0.000,0
2026-01-31 00:11:49,1220694,2801.000,3095.000,7275.000,-97.000,494.000,409.000,0.000,0.000,0
2026-01-31 00:11:49,1220734,2801.000,2899.000,7702.000,9.000,187.000,469.000,0.000,0.000,0
2026-01-31 00:11:49,1220774,2827.000,3403.000,7747.000,289.000,301.000,281.000,0.000,0.000,0
2026-01-31 00:11:50,1220814,2443.000,3318.000,7258.000,-109.000,237.000,230.000,16.126,0.000,1
2026-01-31 00:11:50,1220854,3074.000,3142.000,7608.000,-145.000,-184.000,26.000,16.126,0.000,1
2026-01-31 00:11:50,1220894,3022.000,3465.000,7356.000,172.000,-49.000,-108.000,16.126,0.000,1
2026-01-31 00:11:50,1220934,2966.000,3073.000,7043.000,-269.000,-278.000,-82.000,0.000,0.000,0
2026-01-31 00:11:50,1220974,3167.000,2745.000,7129.000,-168.000,-529.000,-139.000,0.000,0.000,0
2026-01-31 00:11:50,1221014,3313.000,3190.000,7129.000,291.000,-371.000,-289.000,0.000,0.000,0
2026-01-31 00:11:50,1221054,3345.000,3541.000,6984.000,166.000,-249.000,-332.000,0.000,0.000,0
2026-01-31 00:11:50,1221094,3345.000,2941.000,6734.000,-363.000,-368.000,-270.000,0.000,0.000,0
2026-01-31 00:11:50,1221134,3607.000,2662.000,6914.000,-224.000,-371.000,-171.000,0.000,0.000,0
2026-01-31 00:11:50,1221174,3593.000,2870.000,6804.000,5.000,-86.000,-68.000,0.000,0.000,0
2026-01-31 00:11:50,1221214,3485.000,2840.000,6812.000,-42.000,125.000,74.000,0.000,0.000,0
2026-01-31 00:11:50,1221254,3386.000,3158.000,7427.000,271.000,433.000,315.000,0.000,0.000,0
2026-01-31 00:11:50,1221294,3083.000,3354.000,7418.000,130.000,547.000,301.000,0.000,0.000,0
2026-01-31 00:11:50,1221334,3000.000,3064.000,6931.000,-373.000,247.000,197.000,0.000,0.000,0
2026-01-31 00:11:50,1221374,2871.000,2790.000,6595.000,-402.000,-102.000,151.000,0.000,0.000,0
2026-01-31 00:11:50,1221414,3043.000,2581.000,6766.000,-29.000,-276.000,-78.000,0.000,0.000,0
2026-01-31 00:11:50,1221454,3466.000,3139.000,7380.000,630.000,19.000,-256.000,0.000,0.000,0
2026-01-31 00:11:50,1221494,3224.000,3767.000,7174.000,634.000,404.000,-201.000,0.000,0.000,0
2026-01-31 00:11:50,1221534,2820.000,3216.000,6533.000,-224.000,12.000,-11.000,0.000,0.000,0
2026-01-31 00:11:50,1221574,3133.000,2798.000,6588.000,-276.000,-415.000,-119.000,0.000,0.000,0
2026-01-31 00:11:50,1221614,3346.000,3053.000,6963.000,235.000,-110.000,-212.000,0.000,0.000,0
2026-01-31 00:11:50,1221654,3081.000,3435.000,7036.000,467.000,344.000,7.000,0.000,0.000,0
2026-01-31 00:11:50,1221694,2910.000,3372.000,6990.000,138.000,203.000,127.000,0.000,0.000,0
2026-01-31 00:11:50,1221734,2985.000,3309.000,6960.000,-168.000,132.000,86.000,0.000,0.000,0
2026-01-31 00:11:50,1221774,3044.000,2930.000,7116.000,-173.000,92.000,118.000,0.000,0.000,0
2026-01-31 00:11:51,1221814,3058.000,3168.000,7279.000,28.000,147.000,106.000,16.157,0.000,1
2026-01-31 00:11:51,1221854,2953.000,3264.000,7328.000,88.000,153.000,126.000,16.157,0.000,1
2026-01-31 00:11:51,1221894,3065.000,3494.000,7296.000,-17.000,19.000,42.000,16.157,0.000,1
2026-01-31 00:11:51,1221934,3240.000,3079.000,7085.000,-299.000,-107.000,-96.000,0.000,0.000,0
2026-01-31 00:11:51,1221974,3222.000,3237.000,6902.000,-73.000,-188.000,-80.000,0.000,0.000,0
2026-01-31 00:11:51,1222014,3303.000,2898.000,7059.000,43.000,-236.000,-152.000,0.000,0.000,0
2026-01-31 00:11:51,1222054,3458.000,3441.000,6855.000,341.000,-46.000,-317.000,0.000,0.000,0
2026-01-31 00:11:51,1222094,3264.000,3589.000,6663.000,73.000,-24.000,-167.000,0.000,0.000,0
2026-01-31 00:11:51,1222134,3342.000,2971.000,6997.000,-172.000,2.000,94.000,0.000,0.000,0
2026-01-31 00:11:51,1222174,3348.000,3124.000,7507.000,336.000,340.000,112.000,0.000,0.000,0
2026-01-31 00:11:51,1222214,3171.000,3764.000,7322.000,337.000,498.000,198.000,0.000,0.000,0
2026-01-31 00:11:51,1222254,2615.000,3357.000,6899.000,-303.000,223.000,376.000,0.000,0.000,0
2026-01-31 00:11:51,1222294,2911.000,2883.000,7148.000,-386.000,-235.000,142.000,0.000,0.000,0
2026-01-31 00:11:51,1222334,3313.000,3220.000,7458.000,-2.000,-18.000,-51.000,0.000,0.000,0
2026-01-31 00:11:51,1222374,3028.000,3183.000,6747.000,-267.000,149.000,-65.000,0.000,0.000,0
2026-01-31 00:11:51,1222414,3146.000,2494.000,6868.000,-193.000,-266.000,-112.000,0.000,0.000,0
2026-01-31 00:11:51,1222454,3369.000,3168.000,7142.000,286.000,-108.000,-153.000,0.000,0.000,0
2026-01-31 00:11:51,1222494,3155.000,3157.000,6997.000,42.000,82.000,-80.000,0.000,0.000,0
2026-01-31 00:11:51,1222534,3199.000,2851.000,7205.000,11.000,35.000,31.000,0.000,0.000,0
2026-01-31 00:11:51,1222574,3102.000,3197.000,7180.000,87.000,199.000,96.000,0.000,0.000,0
2026-01-31 00:11:51,1222614,3084.000,3076.000,7268.000,-32.000,194.000,96.000,0.000,0.000,0
2026-01-31 00:11:51,1222654,3021.000,3204.000,7330.000,-67.000,214.000,202.000,0.000,0.000,0
2026-01-31 00:11:51,1222694,2812.000,3056.000,7569.000,63.000,277.000,359.000,0.000,0.000,0
2026-01-31 00:11:51,1222734,3034.000,3443.000,8132.000,508.000,336.000,206.000,0.000,0.000,0
2026-01-31 00:11:51,1222774,2948.000,3721.000,7617.000,-124.000,308.000,159.000,0.000,0.000,0
2026-01-31 00:11:52,1222814,2706.000,2989.000,7274.000,-436.000,-221.000,178.000,17.731,0.000,1
2026-01-31 00:11:52,1222854,2950.000,2979.000,7499.000,16.000,-517.000,-92.000,17.731,0.000,1
2026-01-31 00:11:52,1222894,3241.000,3419.000,7272.000,113.000,-441.000,-283.000,17.731,0.000,1
2026-01-31 00:11:52,1222934,3055.000,3163.000,6863.000,25.000,-401.000,-223.000,0.000,0.000,0
2026-01-31 00:11:52,1222974,3190.000,3305.000,6806.000,251.000,-514.000,-224.000,0.000,0.000,0
2026-01-31 00:11:52,1223014,3335.000,3291.000,6797.000,189.000,-355.000,-257.000,0.000,0.000,0
2026-01-31 00:11:52,1223054,3268.000,3216.000,6741.000,178.000,-237.000,-157.000,0.000,0.000,0
2026-01-31 00:11:52,1223094,3377.000,3317.000,6775.000,84.000,-320.000,-4.000,0.000,0.000,0
2026-01-31 00:11:52,1223134,3632.000,3195.000,7129.000,38.000,-67.000,3.000,0.000,0.000,0
2026-01-31 00:11:52,1223174,3030.000,3060.000,6505.000,-342.000,192.000,221.000,0.000,0.000,0
2026-01-31 00:11:52,1223214,3042.000,2586.000,6754.000,-440.000,-196.000,353.000,0.000,0.000,0
2026-01-31 00:11:52,1223254,3311.000,2810.000,7272.000,192.000,92.000,172.000,0.000,0.000,0
2026-01-31 00:11:52,1223294,3009.000,3159.000,6901.000,79.000,292.000,187.000,0.000,0.000,0
2026-01-31 00:11:52,1223334,2714.000,2729.000,6431.000,-396.000,-47.000,230.000,0.000,0.000,0
2026-01-31 00:11:52,1223374,2742.000,2460.000,6325.000,-490.000,-307.000,45.000,0.000,0.000,0
2026-01-31 00:11:52,1223414,2954.000,2392.000,6327.000,-304.000,-337.000,-63.000,0.000,0.000,0
2026-01-31 00:11:52,1223454,2961.000,2461.000,6198.000,73.000,-215.000,-130.000,0.000,0.000,0
2026-01-31 00:11:52,1223494,3217.000,2835.000,6678.000,735.000,-51.000,-242.000,0.000,0.000,0
2026-01-31 00:11:52,1223534,3293.000,3728.000,6718.000,1008.000,125.000,-269.000,0.000,0.000,0
2026-01-31 00:11:52,1223574,2719.000,3037.000,6050.000,-364.000,-151.000,-91.000,0.000,0.000,0
2026-01-31 00:11:52,1223614,3612.000,3166.000,7161.000,195.000,-269.000,-271.000,0.000,0.000,0
2026-01-31 00:11:52,1223654,3848.000,3878.000,7476.000,581.000,490.000,-354.000,0.000,0.000,0
2026-01-31 00:11:52,1223694,3266.000,4038.000,7094.000,271.000,642.000,-48.000,0.000,0.000,0
2026-01-31 00:11:52,1223734,3453.000,3656.000,7963.000,306.000,348.000,283.000,0.000,0.000,0
2026-01-31 00:11:52,1223774,3136.000,4158.000,7894.000,140.000,488.000,523.000,0.000,0.000,0
2026-01-31 00:11:53,1223814,2651.000,3569.000,7667.000,-445.000,313.000,404.000,17.875,0.000,1
2026-01-31 00:11:53,1223854,3082.000,3051.000,7575.000,-555.000,-131.000,177.000,17.875,0.000,1
2026-01-31 00:11:53,1223894,2640.000,3103.000,6827.000,-623.000,-168.000,178.000,17.875,0.000,1
2026-01-31 00:11:53,1223934,2943.000,2748.000,6845.000,-173.000,-647.000,-105.000,0.000,0.000,0
2026-01-31 00:11:53,1223974,3301.000,3148.000,6930.000,194.000,-226.000,-335.000,0.000,0.000,0
2026-01-31 00:11:53,1224014,3177.000,3255.000,6477.000,-150.000,-78.000,-204.000,0.000,0.000,0
2026-01-31 00:11:53,1224054,3211.000,2509.000,6486.000,-352.000,-248.000,-123.000,0.000,0.000,0
2026-01-31 00:11:53,1224094,3454.000,2745.000,6718.000,148.000,-200.000,-271.000,0.000,0.000,0
2026-01-31 00:11:53,1224134,3429.000,3246.000,6645.000,278.000,60.000,-253.000,0.000,0.000,0
2026-01-31 00:11:53,1224174,3338.000,3063.000,6664.000,211.000,119.000,-105.000,0.000,0.000,0
2026-01-31 00:11:53,1224214,3352.000,3064.000,7166.000,424.000,312.000,32.000,0.000,0.000,0
2026-01-31 00:11:53,1224254,3118.000,3624.000,7029.000,504.000,547.000,151.000,0.000,0.000,0
2026-01-31 00:11:53,1224294,2602.000,3360.000,6547.000,41.000,203.000,216.000,0.000,0.000,0
2026-01-31 00:11:53,1224334,3016.000,3199.000,7107.000,168.000,136.000,72.000,0.000,0.000,0
2026-01-31 00:11:53,1224377,2815.000,3630.000,7196.000,336.000,404.000,115.000,0.000,0.000,0
2026-01-31 00:11:53,1224415,2519.000,3618.000,7078.000,161.000,384.000,140.000,0.000,0.000,0
2026-01-31 00:11:53,1224454,2648.000,3816.000,7064.000,-10.000,86.000,41.000,0.000,0.000,0
2026-01-31 00:11:53,1224494,2707.000,3612.000,6892.000,-287.000,-82.000,-67.000,0.000,0.000,0
2026-01-31 00:11:53,1224534,2950.000,3135.000,7100.000,-377.000,-227.000,-144.000,0.000,0.000,0
2026-01-31 00:11:53,1224574,3203.000,3056.000,7470.000,-198.000,-217.000,-141.000,0.000,0.000,0
2026-01-31 00:11:53,1224614,3213.000,3428.000,7379.000,-43.000,-59.000,-85.000,0.000,0.000,0
2026-01-31 00:11:53,1224654,3047.000,3204.000,7063.000,-240.000,-103.000,-21.000,0.000,0.000,0
2026-01-31 00:11:53,1224694,3031.000,3111.000,7003.000,-101.000,-173.000,63.000,0.000,0.000,0
2026-01-31 00:11:53,1224734,3078.000,3116.000,7138.000,-29.000,-64.000,35.000,0.000,0.000,0
2026-01-31 00:11:53,1224774,3091.000,3179.000,7036.000,88.000,93.000,9.000,0.000,0.000,0
2026-01-31 00:11:54,1224814,2979.000,3556.000,7052.000,192.000,143.000,127.000,17.407,0.000,1
2026-01-31 00:11:54,1224854,2897.000,3587.000,7119.000,73.000,134.000,113.000,17.407,0.000,1
2026-01-31 00:11:54,1224894,2989.000,3430.000,7254.000,-74.000,87.000,89.000,17.407,0.000,1
2026-01-31 00:11:54,1224934,2982.000,3348.000,7294.000,-61.000,38.000,14.000,0.000,0.000,0
2026-01-31 00:11:54,1224974,2890.000,3260.000,6966.000,-123.000,-81.000,-11.000,0.000,0.000,0
2026-01-31 00:11:54,1225014,2852.000,3315.000,6626.000,-122.000,-353.000,-177.000,0.000,0.000,0
2026-01-31 00:11:54,1225054,3323.000,3109.000,7032.000,-20.000,-418.000,-269.000,0.000,0.000,0
2026-01-31 00:11:54,1225094,3174.000,3343.000,6869.000,206.000,50.000,-178.000,0.000,0.000,0
2026-01-31 00:11:54,1225134,2974.000,3323.000,6706.000,-41.000,-2.000,-37.000,0.000,0.000,0
2026-01-31 00:11:54,1225174,3154.000,3124.000,6780.000,-70.000,-6.000,20.000,0.000,0.000,0
2026-01-31 00:11:54,1225214,3016.000,3230.000,7045.000,58.000,175.000,140.000,0.000,0.000,0
2026-01-31 00:11:54,1225254,3071.000,3265.000,7371.000,0.000,284.000,163.000,0.000,0.000,0
2026-01-31 00:11:54,1225294,2969.000,3518.000,7306.000,17.000,385.000,158.000,0.000,0.000,0
2026-01-31 00:11:54,1225334,2762.000,3448.000,7076.000,-236.000,221.000,197.000,0.000,0.000,0
2026-01-31 00:11:54,1225374,2835.000,3157.000,7115.000,-372.000,-39.000,124.000,0.000,0.000,0
2026-01-31 00:11:54,1225414,3001.000,2797.000,7430.000,-263.000,-23.000,67.000,0.000,0.000,0
2026-01-31 00:11:54,1225454,2997.000,3295.000,7534.000,112.000,104.000,6.000,0.000,0.000,0
2026-01-31 00:11:54,1225494,2895.000,3040.000,7140.000,-329.000,-20.000,-71.000,0.000,0.000,0
2026-01-31 00:11:54,1225534,2868.000,2856.000,6850.000,-452.000,-265.000,-30.000,0.000,0.000,0
2026-01-31 00:11:54,1225574,2993.000,2289.000,6857.000,-557.000,-312.000,-57.000,0.000,0.000,0
2026-01-31 00:11:54,1225614,3312.000,2547.000,7346.000,214.000,-103.000,-154.000,0.000,0.000,0
2026-01-31 00:11:54,1225654,3150.000,3130.000,7361.000,429.000,328.000,78.000,0.000,0.000,0
2026-01-31 00:11:54,1225694,2646.000,2918.000,7176.000,106.000,347.000,360.000,0.000,0.000,0
2026-01-31 00:11:54,1225734,2616.000,3020.000,7175.000,-51.000,196.000,301.000,0.000,0.000,0
2026-01-31 00:11:54,1225774,2695.000,2583.000,7159.000,-203.000,193.000,144.000,0.000,0.000,0
2026-01-31 00:11:55,1225814,2655.000,2689.000,7342.000,54.000,55.000,166.000,17.119,0.000,1
2026-01-31 00:11:55,1225854,2692.000,2752.000,7700.000,110.000,86.000,91.000,17.119,0.000,1
2026-01-31 00:11:55,1225894,2685.000,3084.000,7770.000,148.000,208.000,67.000,17.119,0.000,1
2026-01-31 00:11:55,1225934,2576.000,2935.000,7458.000,-239.000,74.000,75.000,0.000,0.000,0
2026-01-31 00:11:55,1225974,2713.000,2458.000,7429.000,-394.000,-205.000,-16.000,0.000,0.000,0
2026-01-31 00:11:55,1226014,2978.000,2428.000,7541.000,-103.000,-242.000,-74.000,0.000,0.000,0
2026-01-31 00:11:55,1226054,2847.000,2777.000,7436.000,106.000,-109.000,-59.000,0.000,0.000,0
2026-01-31 00:11:55,1226094,2666.000,2689.000,7247.000,-23.000,-124.000,-15.000,0.000,0.000,0
2026-01-31 00:11:55,1226134,2833.000,2576.000,7363.000,19.000,-144.000,-25.000,0.000,0.000,0
2026-01-31 00:11:55,1226174,2979.000,2813.000,7425.000,82.000,-24.000,-35.000,0.000,0.000,0
2026-01-31 00:11:55,1226214,2858.000,2636.000,7328.000,21.000,-14.000,-27.000,0.000,0.000,0
2026-01-31 00:11:55,1226254,2869.000,3020.000,7448.000,226.000,-7.000,-17.000,0.000,0.000,0
2026-01-31 00:11:55,1226294,2781.000,3042.000,7201.000,14.000,-18.000,-67.000,0.000,0.000,0
2026-01-31 00:11:55,1226334,2939.000,2752.000,7338.000,83.000,-165.000,-124.000,0.000,0.000,0
2026-01-31 00:11:55,1226375,3093.000,3215.000,7519.000,341.000,-83.000,-72.000,0.000,0.000,0
2026-01-31 00:11:55,1226414,2818.000,3204.000,7317.000,137.000,24.000,-75.000,0.000,0.000,0
2026-01-31 00:11:55,1226454,2881.000,2972.000,6907.000,-114.000,-246.000,-227.000,0.000,0.000,0
2026-01-31 00:11:55,1226494,3026.000,2954.000,6727.000,-2.000,-441.000,-243.000,0.000,0.000,0
2026-01-31 00:11:55,1226534,3132.000,2950.000,6820.000,249.000,-392.000,-326.000,0.000,0.000,0
2026-01-31 00:11:55,1226574,3341.000,3398.000,7060.000,298.000,-231.000,-382.000,0.000,0.000,0
2026-01-31 00:11:55,1226614,3334.000,3515.000,6995.000,323.000,28.000,-172.000,0.000,0.000,0
2026-01-31 00:11:55,1226654,2992.000,3519.000,6673.000,-26.000,24.000,-4.000,0.000,0.000,0
2026-01-31 00:11:55,1226694,2996.000,3099.000,6672.000,-340.000,-339.000,113.000,0.000,0.000,0
2026-01-31 00:11:55,1226734,3286.000,3063.000,6988.000,49.000,-227.000,-1.000,0.000,0.000,0
2026-01-31 00:11:55,1226774,3276.000,3800.000,6797.000,465.000,69.000,-131.000,0.000,0.000,0
2026-01-31 00:11:56,1226814,3169.000,3816.000,6688.000,21.000,81.000,-37.000,16.605,0.000,1
2026-01-31 00:11:56,1226854,3174.000,3275.000,6897.000,-118.000,-60.000,85.000,16.605,0.000,1
2026-01-31 00:11:56,1226894,3277.000,3392.000,6950.000,35.000,30.000,-36.000,16.605,0.000,1
2026-01-31 00:11:56,1226934,3307.000,3411.000,6860.000,83.000,-76.000,-135.000,0.000,0.000,0
2026-01-31 00:11:56,1226974,3322.000,3672.000,6616.000,145.000,-151.000,-190.000,0.000,0.000,0
2026-01-31 00:11:56,1227014,3294.000,3456.000,6315.000,64.000,-220.000,-254.000,0.000,0.000,0
2026-01-31 00:11:56,1227054,3478.000,3460.000,6428.000,277.000,-287.000,-264.000,0.000,0.000,0
2026-01-31 00:11:56,1227094,3516.000,3950.000,6425.000,560.000,-114.000,-293.000,0.000,0.000,0
2026-01-31 00:11:56,1227134,3242.000,4109.000,6230.000,431.000,14.000,-182.000,0.000,0.000,0
2026-01-31 00:11:56,1227174,3290.000,4000.000,6549.000,287.000,34.000,22.000,0.000,0.000,0
2026-01-31 00:11:56,1227214,3251.000,4124.000,6861.000,399.000,349.000,60.000,0.000,0.000,0
2026-01-31 00:11:56,1227254,3231.000,4498.000,6905.000,201.000,418.000,146.000,0.000,0.000,0
2026-01-31 00:11:56,1227294,3192.000,4220.000,6726.000,-294.000,306.000,268.000,0.000,0.000,0
2026-01-31 00:11:56,1227334,3094.000,3738.000,6704.000,-481.000,115.000,368.000,0.000,0.000,0
2026-01-31 00:11:56,1227374,3245.000,3687.000,6801.000,-218.000,-127.000,24.000,0.000,0.000,0
2026-01-31 00:11:56,1227414,3375.000,3829.000,6596.000,-207.000,-200.000,-96.000,0.000,0.000,0
2026-01-31 00:11:56,1227454,3227.000,3486.000,6368.000,-367.000,-287.000,-85.000,0.000,0.000,0
2026-01-31 00:11:56,1227494,3492.000,3381.000,6533.000,-148.000,-353.000,-177.000,0.000,0.000,0
2026-01-31 00:11:56,1227534,3636.000,3605.000,6577.000,165.000,-123.000,-265.000,0.000,0.000,0
2026-01-31 00:11:56,1227574,3504.000,3917.000,6275.000,166.000,20.000,-180.000,0.000,0.000,0
2026-01-31 00:11:56,1227614,3303.000,3721.000,6199.000,-61.000,-51.000,3.000,0.000,0.000,0
2026-01-31 00:11:56,1227654,3386.000,3554.000,6616.000,139.000,63.000,4.000,0.000,0.000,0
2026-01-31 00:11:56,1227694,3503.000,4159.000,6947.000,502.000,421.000,-40.000,0.000,0.000,0
2026-01-31 00:11:56,1227734,3249.000,4394.000,6708.000,406.000,531.000,18.000,0.000,0.000,0
2026-01-31 00:11:56,1227774,3020.000,3763.000,6858.000,-143.000,224.000,326.000,0.000,0.000,0
2026-01-31 00:11:57,1227814,3079.000,4096.000,7075.000,222.000,280.000,139.000,17.027,0.000,1
2026-01-31 00:11:57,1227854,3059.000,4381.000,6735.000,-177.000,198.000,15.000,17.027,0.000,1
2026-01-31 00:11:57,1227894,3011.000,3563.000,6672.000,-390.000,-25.000,102.000,17.027,0.000,1
2026-01-31 00:11:57,1227934,3254.000,3939.000,7085.000,106.000,-149.000,65.000,0.000,0.000,0
2026-01-31 00:11:57,1227974,3293.000,4143.000,6965.000,-186.000,71.000,-140.000,0.000,0.000,0
2026-01-31 00:11:57,1228014,3324.000,3810.000,6850.000,-194.000,-82.000,-49.000,0.000,0.000,0
2026-01-31 00:11:57,1228054,3106.000,3821.000,6397.000,-283.000,-150.000,59.000,0.000,0.000,0
2026-01-31 00:11:57,1228094,3148.000,3449.000,6646.000,-311.000,-374.000,50.000,0.000,0.000,0
2026-01-31 00:11:57,1228136,3396.000,3904.000,6703.000,385.000,132.000,-162.000,0.000,0.000,0
2026-01-31 00:11:57,1228176,3234.000,4178.000,6612.000,246.000,77.000,57.000,0.000,0.000,0
2026-01-31 00:11:57,1228214,3120.000,3801.000,6490.000,-309.000,39.000,65.000,0.000,0.000,0
2026-01-31 00:11:57,1228254,3187.000,3254.000,6699.000,-146.000,-81.000,130.000,0.000,0.000,0
2026-01-31 00:11:57,1228294,3444.000,4142.000,7103.000,379.000,66.000,59.000,0.000,0.000,0
2026-01-31 00:11:57,1228334,3214.000,4168.000,6907.000,-93.000,223.000,-40.000,0.000,0.000,0
2026-01-31 00:11:57,1228374,3256.000,3887.000,6595.000,-258.000,-104.000,-36.000,0.000,0.000,0
2026-01-31 00:11:57,1228414,3274.000,3710.000,6258.000,-449.000,-270.000,60.000,0.000,0.000,0
2026-01-31 00:11:57,1228454,3343.000,3016.000,6684.000,-122.000,-197.000,-8.000,0.000,0.000,0
2026-01-31 00:11:57,1228494,3676.000,4538.000,7163.000,559.000,344.000,-281.000,0.000,0.000,0
2026-01-31 00:11:57,1228534,3158.000,3891.000,6357.000,-325.000,209.000,162.000,0.000,0.000,0
2026-01-31 00:11:57,1228574,2928.000,3230.000,6276.000,-469.000,-239.000,299.000,0.000,0.000,0
2026-01-31 00:11:57,1228614,3047.000,3283.000,6588.000,-95.000,-299.000,145.000,0.000,0.000,0
2026-01-31 00:11:57,1228654,3359.000,4016.000,6909.000,651.000,137.000,-125.000,0.000,0.000,0
2026-01-31 00:11:57,1228694,3069.000,4583.000,6587.000,440.000,462.000,-105.000,0.000,0.000,0
2026-01-31 00:11:57,1228734,2916.000,3954.000,6328.000,-223.000,17.000,46.000,0.000,0.000,0
2026-01-31 00:11:57,1228774,3233.000,3585.000,6453.000,-424.000,-147.000,-78.000,0.000,0.000,0
2026-01-31 00:11:58,1228814,3014.000,3503.000,6252.000,53.000,-5.000,76.000,17.037,0.000,1
2026-01-31 00:11:58,1228854,3161.000,3922.000,7907.000,467.000,56.000,155.000,17.037,0.000,1
2026-01-31 00:11:58,1228894,3625.000,4901.000,8229.000,313.000,656.000,68.000,17.037,0.000,1
2026-01-31 00:11:58,1228934,2942.000,4236.000,6593.000,-1098.000,269.000,464.000,0.000,0.000,0
2026-01-31 00:11:58,1228974,2715.000,2456.000,5626.000,-2091.000,-913.000,365.000,0.000,0.000,0
2026-01-31 00:11:58,1229014,2983.000,2298.000,5769.000,-996.000,-1339.000,0.000,0.000,0.000,0
2026-01-31 00:11:58,1229054,3408.000,3156.000,6097.000,78.000,-979.000,-563.000,0.000,0.000,0
2026-01-31 00:11:58,1229094,3782.000,3268.000,6361.000,652.000,-131.000,-795.000,0.000,0.000,0
2026-01-31 00:11:58,1229134,3884.000,3658.000,6509.000,989.000,234.000,-448.000,0.000,0.000,0
2026-01-31 00:11:58,1229174,3627.000,4105.000,6545.000,712.000,328.000,48.000,0.000,0.000,0
2026-01-31 00:11:58,1229214,3293.000,3942.000,6545.000,-157.000,87.000,305.000,0.000,0.000,0
2026-01-31 00:11:58,1229254,3333.000,3041.000,6769.000,-45.000,106.000,127.000,0.000,0.000,0
2026-01-31 00:11:58,1229294,3273.000,3792.000,6441.000,319.000,115.000,140.000,0.000,0.000,0
2026-01-31 00:11:58,1229334,2966.000,4063.000,6344.000,118.000,-83.000,138.000,0.000,0.000,0
2026-01-31 00:11:58,1229374,3349.000,3870.000,6626.000,-134.000,-123.000,-27.000,0.000,0.000,0
2026-01-31 00:11:58,1229414,3469.000,3762.000,6516.000,-132.000,213.000,-6.000,0.000,0.000,0
2026-01-31 00:11:58,1229454,3516.000,3792.000,6978.000,266.000,370.000,35.000,0.000,0.000,0
2026-01-31 00:11:58,1229494,3541.000,4200.000,7535.000,494.000,498.000,71.000,0.000,0.000,0
2026-01-31 00:11:58,1229534,3352.000,4295.000,7401.000,-124.000,474.000,224.000,0.000,0.000,0
2026-01-31 00:11:58,1229574,3055.000,3546.000,6961.000,-554.000,120.000,286.000,0.000,0.000,0
2026-01-31 00:11:58,1229614,3227.000,3570.000,6903.000,-240.000,-232.000,145.000,0.000,0.000,0
2026-01-31 00:11:58,1229654,3245.000,3718.000,6615.000,-93.000,-208.000,-65.000,0.000,0.000,0
2026-01-31 00:11:58,1229694,3187.000,3566.000,6406.000,-117.000,-218.000,10.000,0.000,0.000,0
2026-01-31 00:11:58,1229734,3471.000,3489.000,6806.000,106.000,-136.000,-62.000,0.000,0.000,0
2026-01-31 00:11:58,1229774,3615.000,3836.000,6858.000,220.000,136.000,-121.000,0.000,0.000,0
2026-01-31 00:11:59,1229814,3319.000,3473.000,6439.000,-217.000,19.000,-22.000,16.353,0.000,1
2026-01-31 00:11:59,1229854,3345.000,3234.000,6413.000,-176.000,-299.000,-24.000,16.353,0.000,1
2026-01-31 00:11:59,1229894,3492.000,3326.000,6400.000,-22.000,-313.000,-189.000,16.353,0.000,1
2026-01-31 00:11:59,1229934,3556.000,3487.000,6457.000,198.000,-213.000,-242.000,0.000,0.000,0
2026-01-31 00:11:59,1229974,3715.000,3693.000,6561.000,216.000,-46.000,-203.000,0.000,0.000,0
2026-01-31 00:11:59,1230014,3734.000,3494.000,6760.000,34.000,152.000,107.000,0.000,0.000,0
2026-01-31 00:11:59,1230054,3735.000,3694.000,7059.000,180.000,253.000,178.000,0.000,0.000,0
2026-01-31 00:11:59,1230094,3542.000,3730.000,6880.000,-10.000,298.000,232.000,0.000,0.000,0
2026-01-31 00:11:59,1230134,3263.000,3232.000,6487.000,-331.000,-26.000,267.000,0.000,0.000,0
2026-01-31 00:11:59,1230174,3428.000,3399.000,6810.000,207.000,-245.000,73.000,0.000,0.000,0
2026-01-31 00:11:59,1230214,3783.000,4027.000,6858.000,159.000,-78.000,-152.000,0.000,0.000,0
2026-01-31 00:11:59,1230254,3563.000,3546.000,6376.000,-382.000,70.000,18.000,0.000,0.000,0
2026-01-31 00:11:59,1230294,3654.000,2873.000,6532.000,-297.000,-166.000,104.000,0.000,0.000,0
2026-01-31 00:11:59,1230334,3984.000,3309.000,7225.000,456.000,-41.000,43.000,0.000,0.000,0
2026-01-31 00:11:59,1230376,3815.000,3966.000,6560.000,345.000,171.000,-23.000,0.000,0.000,0
2026-01-31 00:11:59,1230414,3436.000,3007.000,6329.000,-542.000,-424.000,73.000,0.000,0.000,0
2026-01-31 00:11:59,1230454,3870.000,2911.000,6296.000,-311.000,-513.000,-61.000,0.000,0.000,0
2026-01-31 00:11:59,1230494,3847.000,3209.000,5963.000,52.000,-278.000,-199.000,0.000,0.000,0
2026-01-31 00:11:59,1230534,3907.000,3179.000,6050.000,304.000,-191.000,-240.000,0.000,0.000,0
2026-01-31 00:11:59,1230574,4220.000,3529.000,6750.000,599.000,10.000,-180.000,0.000,0.000,0
2026-01-31 00:11:59,1230614,4278.000,4066.000,6882.000,403.000,389.000,24.000,0.000,0.000,0
2026-01-31 00:11:59,1230654,4016.000,3599.000,6813.000,-292.000,431.000,372.000,0.000,0.000,0
2026-01-31 00:11:59,1230694,3931.000,3201.000,6991.000,-198.000,282.000,442.000,0.000,0.000,0
2026-01-31 00:11:59,1230734,3718.000,3510.000,6918.000,33.000,175.000,399.000,0.000,0.000,0
2026-01-31 00:11:59,1230774,3620.000,3410.000,6427.000,-186.000,-190.000,161.000,0.000,0.000,0
2026-01-31 00:12:00,1230814,3813.000,3064.000,6361.000,-264.000,-248.000,15.000,16.085,0.000,1
2026-01-31 00:12:00,1230854,3945.000,3204.000,6456.000,160.000,-104.000,-31.000,16.085,0.000,1
2026-01-31 00:12:00,1230894,3882.000,3438.000,6471.000,273.000,49.000,-71.000,16.085,0.000,1
2026-01-31 00:12:00,1230934,3910.000,3559.000,6634.000,178.000,19.000,-11.000,0.000,0.000,0
2026-01-31 00:12:00,1230974,4108.000,3490.000,6822.000,48.000,86.000,-11.000,0.000,0.000,0
2026-01-31 00:12:00,1231014,3969.000,3450.000,6611.000,14.000,199.000,145.000,0.000,0.000,0
2026-01-31 00:12:00,1231054,3924.000,3320.000,6469.000,-98.000,33.000,220.000,0.000,0.000,0
2026-01-31 00:12:00,1231094,3831.000,3250.000,6690.000,107.000,42.000,237.000,0.000,0.000,0
2026-01-31 00:12:00,1231134,3784.000,3787.000,6800.000,401.000,138.000,188.000,0.000,0.000,0
2026-01-31 00:12:00,1231174,3655.000,3311.000,6065.000,-248.000,-45.000,36.000,0.000,0.000,0
2026-01-31 00:12:00,1231214,3811.000,2998.000,6026.000,-93.000,-251.000,-63.000,0.000,0.000,0
2026-01-31 00:12:00,1231254,3853.000,3442.000,6119.000,320.000,-132.000,-130.000,0.000,0.000,0
2026-01-31 00:12:00,1231294,3861.000,3722.000,6196.000,405.000,-5.000,-159.000,0.000,0.000,0
2026-01-31 00:12:00,1231334,3951.000,3957.000,6552.000,371.000,190.000,-92.000,0.000,0.000,0
2026-01-31 00:12:00,1231374,4184.000,3918.000,6844.000,236.000,381.000,-47.000,0.000,0.000,0
2026-01-31 00:12:00,1231414,4082.000,3821.000,6704.000,40.000,461.000,255.000,0.000,0.000,0
2026-01-31 00:12:00,1231454,3673.000,3604.000,6577.000,-27.000,238.000,525.000,0.000,0.000,0
2026-01-31 00:12:00,1231494,3450.000,3985.000,6886.000,249.000,41.000,450.000,0.000,0.000,0
2026-01-31 00:12:00,1231534,3892.000,3914.000,6954.000,-100.000,237.000,129.000,0.000,0.000,0
2026-01-31 00:12:00,1231574,3757.000,3390.000,6232.000,-555.000,94.000,165.000,0.000,0.000,0
2026-01-31 00:12:00,1231614,3685.000,2948.000,6034.000,-534.000,-238.000,97.000,0.000,0.000,0
2026-01-31 00:12:00,1231654,3920.000,3154.000,6493.000,317.000,-310.000,-79.000,0.000,0.000,0
2026-01-31 00:12:00,1231694,3512.000,4132.000,6237.000,634.000,43.000,-44.000,0.000,0.000,0
2026-01-31 00:12:00,1231734,3357.000,3517.000,5938.000,-49.000,-99.000,-37.000,0.000,0.000,0
2026-01-31 00:12:00,1231774,3750.000,3378.000,6116.000,97.000,-31.000,-111.000,0.000,0.000,0
2026-01-31 00:12:01,1231814,3720.000,3618.000,5931.000,139.000,227.000,-88.000,15.129,0.000,1
2026-01-31 00:12:01,1231854,3685.000,3455.000,6114.000,232.000,181.000,58.000,15.129,0.000,1
2026-01-31 00:12:01,1231894,3634.000,3997.000,6679.000,672.000,359.000,29.000,15.129,0.000,1
2026-01-31 00:12:01,1231934,3361.000,4341.000,6539.000,357.000,422.000,100.000,0.000,0.000,0
2026-01-31 00:12:01,1231974,3236.000,4314.000,6466.000,68.000,246.000,137.000,0.000,0.000,0
2026-01-31 00:12:01,1232014,3251.000,4433.000,6529.000,107.000,210.000,123.000,0.000,0.000,0
2026-01-31 00:12:01,1232054,3461.000,4432.000,6813.000,-204.000,314.000,123.000,0.000,0.000,0
2026-01-31 00:12:01,1232094,3435.000,3628.000,7197.000,-296.000,487.000,348.000,0.000,0.000,0
2026-01-31 00:12:01,1232136,3559.000,3983.000,7832.000,282.000,394.000,436.000,0.000,0.000,0
2026-01-31 00:12:01,1232176,3398.000,4911.000,7685.000,494.000,338.000,374.000,0.000,0.000,0
2026-01-31 00:12:01,1232214,3073.000,4584.000,6839.000,-504.000,-222.000,303.000,0.000,0.000,0
2026-01-31 00:12:01,1232254,2917.000,3712.000,5906.000,-1512.000,-825.000,191.000,0.000,0.000,0
2026-01-31 00:12:01,1232294,3261.000,2309.000,5870.000,-1538.000,-1053.000,-152.000,0.000,0.000,0
2026-01-31 00:12:01,1232334,4047.000,3285.000,6741.000,1000.000,-249.000,-585.000,0.000,0.000,0
2026-01-31 00:12:01,1232376,4186.000,4641.000,7008.000,1601.000,502.000,-640.000,0.000,0.000,0
2026-01-31 00:12:01,1232414,3531.000,4805.000,6225.000,266.000,385.000,-45.000,0.000,0.000,0
2026-01-31 00:12:01,1232454,3313.000,3719.000,6119.000,-866.000,-377.000,298.000,0.000,0.000,0
2026-01-31 00:12:01,1232494,3393.000,2915.000,6143.000,-792.000,-400.000,167.000,0.000,0.000,0
2026-01-31 00:12:01,1232534,3436.000,3312.000,6044.000,345.000,-22.000,-200.000,0.000,0.000,0
2026-01-31 00:12:01,1232574,3435.000,4084.000,6270.000,1022.000,181.000,-301.000,0.000,0.000,0
2026-01-31 00:12:01,1232614,3516.000,4454.000,6471.000,647.000,297.000,-210.000,0.000,0.000,0
2026-01-31 00:12:01,1232654,3129.000,4485.000,6224.000,102.000,368.000,101.000,0.000,0.000,0
2026-01-31 00:12:01,1232694,3193.000,3722.000,6598.000,-260.000,222.000,205.000,0.000,0.000,0
2026-01-31 00:12:01,1232734,3355.000,4206.000,7112.000,432.000,495.000,109.000,0.000,0.000,0
2026-01-31 00:12:01,1232774,3172.000,4883.000,7189.000,341.000,660.000,207.000,0.000,0.000,0
2026-01-31 00:12:02,1232814,3169.000,4244.000,7217.000,-596.000,394.000,170.000,14.691,0.000,1
2026-01-31 00:12:02,1232854,2971.000,3265.000,6203.000,-931.000,-18.000,110.000,14.691,0.000,1
2026-01-31 00:12:02,1232894,2658.000,3422.000,5596.000,-548.000,-638.000,-102.000,14.691,0.000,1
2026-01-31 00:12:02,1232934,3107.000,3284.000,6049.000,146.000,-892.000,-321.000,0.000,0.000,0
2026-01-31 00:12:02,1232974,3357.000,4510.000,6482.000,1450.000,-121.000,-653.000,0.000,0.000,0
2026-01-31 00:12:02,1233014,3245.000,5391.000,6317.000,578.000,421.000,-549.000,0.000,0.000,0
2026-01-31 00:12:02,1233054,3964.000,3654.000,6931.000,-439.000,183.000,-385.000,0.000,0.000,0
2026-01-31 00:12:02,1233094,3545.000,4417.000,6198.000,160.000,5.000,-97.000,0.000,0.000,0
2026-01-31 00:12:02,1233134,3299.000,4148.000,6579.000,203.000,-295.000,-43.000,0.000,0.000,0
2026-01-31 00:12:02,1233174,3450.000,4809.000,7422.000,690.000,206.000,-14.000,0.000,0.000,0
2026-01-31 00:12:02,1233214,2884.000,4732.000,6351.000,-510.000,508.000,88.000,0.000,0.000,0
2026-01-31 00:12:02,1233254,2837.000,3452.000,5548.000,-1176.000,-39.000,148.000,0.000,0.000,0
