datetime_local,uptime_ms,acc_x,acc_y,acc_z,gyro_x,gyro_y,gyro_z,speed_mps,turn_rate_deg_s,gps_valid
2026-01-30 21:56:09,1503884,-1259.000,-4673.000,7270.000,-154.000,-51.000,-249.000,NA,0.000,0
2026-01-30 21:56:09,1503924,-1963.000,-4658.000,7025.000,-14.000,112.000,6.000,NA,0.000,0
2026-01-30 21:56:09,1503964,-2084.000,-4273.000,7151.000,202.000,-45.000,349.000,NA,0.000,0
2026-01-30 21:56:09,1504004,-1928.000,-4296.000,6970.000,-2.000,-26.000,295.000,NA,0.000,0
2026-01-30 21:56:09,1504044,-2089.000,-4426.000,6999.000,82.000,57.000,168.000,NA,0.000,0
2026-01-30 21:56:09,1504084,-2172.000,-4048.000,7085.000,174.000,38.000,15.000,NA,0.000,0
2026-01-30 21:56:09,1504124,-2022.000,-4179.000,7143.000,-101.000,-13.000,-35.000,NA,0.000,0
2026-01-30 21:56:09,1504167,-1800.000,-4428.000,7232.000,81.000,56.000,-113.000,NA,0.000,0
2026-01-30 21:56:09,1504212,-1865.000,-4300.000,7219.000,44.000,48.000,-117.000,NA,0.000,0
2026-01-30 21:56:09,1504244,-1772.000,-4298.000,7214.000,25.000,26.000,-94.000,NA,0.000,0
2026-01-30 21:56:10,1504284,-1558.000,-3895.000,7353.000,121.000,-24.000,-101.000,NA,0.000,0
2026-01-30 21:56:10,1504324,-1527.000,-3907.000,7622.000,8.000,117.000,-34.000,NA,0.000,0
2026-01-30 21:56:10,1504364,-1529.000,-3545.000,7628.000,271.000,182.000,56.000,NA,0.000,0
2026-01-30 21:56:10,1504404,-1564.000,-3303.000,7504.000,257.000,176.000,37.000,NA,0.000,0
2026-01-30 21:56:10,1504444,-1664.000,-3418.000,7623.000,149.000,214.000,31.000,NA,0.000,0
2026-01-30 21:56:10,1504484,-1872.000,-3458.000,7549.000,226.000,148.000,12.000,NA,0.000,0
2026-01-30 21:56:10,1504524,-1760.000,-3335.000,7605.000,141.000,214.000,-190.000,NA,0.000,0
2026-01-30 21:56:10,1504564,-1739.000,-3676.000,7810.000,-62.000,109.000,-104.000,NA,0.000,0
2026-01-30 21:56:10,1504604,-1616.000,-3483.000,7664.000,147.000,-35.000,-76.000,NA,0.000,0
2026-01-30 21:56:10,1504644,-1337.000,-3258.000,7633.000,104.000,-83.000,-108.000,NA,0.000,0
2026-01-30 21:56:10,1504684,-1215.000,-3137.000,7587.000,126.000,-62.000,-7.000,NA,0.000,0
2026-01-30 21:56:10,1504724,-1393.000,-2772.000,7785.000,-302.000,-107.000,212.000,NA,0.000,0
2026-01-30 21:56:10,1504764,-1780.000,-4063.000,7876.000,-526.000,-185.000,203.000,NA,0.000,0
2026-01-30 21:56:10,1504804,-1804.000,-3314.000,7615.000,648.000,51.000,218.000,NA,0.000,0
2026-01-30 21:56:10,1504844,-1340.000,-3063.000,7424.000,-24.000,-187.000,55.000,NA,0.000,0
2026-01-30 21:56:10,1504884,-1563.000,-3428.000,7341.000,-59.000,-139.000,32.000,NA,0.000,0
2026-01-30 21:56:10,1504924,-1477.000,-3291.000,7984.000,-6.000,-211.000,78.000,NA,0.000,0
2026-01-30 21:56:10,1504964,-1651.000,-3807.000,7791.000,-26.000,-178.000,157.000,NA,0.000,0
2026-01-30 21:56:10,1505004,-1535.000,-3577.000,7231.000,160.000,-369.000,116.000,NA,0.000,0
2026-01-30 21:56:10,1505044,-1401.000,-3581.000,7606.000,-71.000,-497.000,-9.000,NA,0.000,0
2026-01-30 21:56:10,1505084,-1207.000,-3642.000,7770.000,-168.000,-345.000,-21.000,NA,0.000,0
2026-01-30 21:56:10,1505124,-1158.000,-3813.000,7383.000,-54.000,-223.000,-1.000,NA,0.000,0
2026-01-30 21:56:10,1505164,-1189.000,-3834.000,7456.000,60.000,-198.000,87.000,NA,0.000,0
2026-01-30 21:56:10,1505204,-1439.000,-3860.000,7641.000,-67.000,-91.000,88.000,NA,0.000,0
2026-01-30 21:56:10,1505244,-1505.000,-3585.000,7599.000,32.000,-102.000,34.000,NA,0.000,0
2026-01-30 21:56:11,1505284,-1518.000,-3520.000,7327.000,74.000,-92.000,57.000,NA,0.000,0
2026-01-30 21:56:11,1505324,-1578.000,-3862.000,7317.000,-25.000,-62.000,150.000,NA,0.000,0
2026-01-30 21:56:11,1505364,-1756.000,-4210.000,7417.000,-30.000,-98.000,185.000,NA,0.000,0
2026-01-30 21:56:11,1505404,-1881.000,-4259.000,7203.000,87.000,-248.000,76.000,NA,0.000,0
2026-01-30 21:56:11,1505444,-1801.000,-4065.000,7272.000,5.000,-346.000,11.000,NA,0.000,0
2026-01-30 21:56:11,1505484,-1657.000,-4097.000,7276.000,-47.000,-313.000,-4.000,NA,0.000,0
2026-01-30 21:56:11,1505524,-1513.000,-4188.000,7344.000,-43.000,-215.000,18.000,NA,0.000,0
2026-01-30 21:56:11,1505564,-1558.000,-4378.000,7329.000,-54.000,-52.000,68.000,NA,0.000,0
2026-01-30 21:56:11,1505604,-1749.000,-4326.000,7131.000,73.000,8.000,65.000,NA,0.000,0
2026-01-30 21:56:11,1505644,-1843.000,-4205.000,7115.000,43.000,-26.000,-19.000,NA,0.000,0
2026-01-30 21:56:11,1505686,-1803.000,-4179.000,7282.000,-81.000,-3.000,-2.000,NA,0.000,0
2026-01-30 21:56:11,1505725,-1739.000,-4390.000,7215.000,-10.000,33.000,46.000,NA,0.000,0
2026-01-30 21:56:11,1505764,-1750.000,-4322.000,7132.000,18.000,-17.000,-2.000,NA,0.000,0
2026-01-30 21:56:11,1505804,-1785.000,-4226.000,7094.000,34.000,-33.000,-40.000,NA,0.000,0
2026-01-30 21:56:11,1505844,-1611.000,-4209.000,7062.000,-34.000,-68.000,-59.000,NA,0.000,0
2026-01-30 21:56:11,1505886,-1609.000,-4452.000,7166.000,-95.000,60.000,66.000,NA,0.000,0
2026-01-30 21:56:11,1505924,-1758.000,-4567.000,7147.000,92.000,84.000,85.000,NA,0.000,0
2026-01-30 21:56:11,1505964,-1737.000,-4369.000,7081.000,83.000,-57.000,-16.000,NA,0.000,0
2026-01-30 21:56:11,1506004,-1597.000,-4402.000,7106.000,-26.000,-38.000,-33.000,NA,0.000,0
2026-01-30 21:56:11,1506044,-1631.000,-4464.000,7218.000,23.000,126.000,45.000,NA,0.000,0
2026-01-30 21:56:11,1506084,-1770.000,-4374.000,7174.000,122.000,101.000,55.000,NA,0.000,0
2026-01-30 21:56:11,1506124,-1850.000,-4320.000,7198.000,2.000,-32.000,39.000,NA,0.000,0
2026-01-30 21:56:11,1506164,-1848.000,-4457.000,7248.000,-22.000,70.000,130.000,NA,0.000,0
2026-01-30 21:56:11,1506204,-1842.000,-4478.000,7224.000,33.000,59.000,83.000,NA,0.000,0
2026-01-30 21:56:11,1506244,-1800.000,-4449.000,7370.000,33.000,13.000,0.000,NA,0.000,0
2026-01-30 21:56:12,1506284,-1616.000,-4430.000,7260.000,58.000,-9.000,-33.000,NA,0.000,0
2026-01-30 21:56:12,1506324,-1518.000,-4383.000,7198.000,111.000,37.000,-16.000,NA,0.000,0
2026-01-30 21:56:12,1506364,-1490.000,-4322.000,7049.000,72.000,13.000,-13.000,NA,0.000,0
2026-01-30 21:56:12,1506404,-1512.000,-4165.000,7050.000,13.000,-8.000,-9.000,NA,0.000,0
2026-01-30 21:56:12,1506444,-1616.000,-4232.000,7070.000,-100.000,41.000,92.000,NA,0.000,0
2026-01-30 21:56:12,1506484,-1768.000,-4264.000,7115.000,-94.000,132.000,185.000,NA,0.000,0
2026-01-30 21:56:12,1506524,-1976.000,-4461.000,7334.000,-94.000,183.000,230.000,NA,0.000,0
2026-01-30 21:56:12,1506564,-2150.000,-4034.000,6783.000,249.000,-92.000,0.000,NA,0.000,0
2026-01-30 21:56:12,1506604,-1972.000,-3932.000,6780.000,-18.000,-244.000,-127.000,NA,0.000,0
2026-01-30 21:56:12,1506644,-2010.000,-4340.000,7428.000,-195.000,21.000,69.000,NA,0.000,0
2026-01-30 21:56:12,1506684,-2036.000,-4319.000,7221.000,116.000,170.000,108.000,NA,0.000,0
2026-01-30 21:56:12,1506724,-1973.000,-4233.000,7173.000,97.000,51.000,-64.000,NA,0.000,0
2026-01-30 21:56:12,1506764,-1826.000,-4399.000,7541.000,-54.000,-14.000,-80.000,NA,0.000,0
2026-01-30 21:56:12,1506804,-1570.000,-4374.000,7185.000,178.000,-13.000,-116.000,NA,0.000,0
2026-01-30 21:56:12,1506844,-1360.000,-4300.000,6945.000,133.000,-17.000,-199.000,NA,0.000,0
2026-01-30 21:56:12,1506884,-1456.000,-4210.000,7288.000,-16.000,70.000,-139.000,NA,0.000,0
2026-01-30 21:56:12,1506924,-1555.000,-4314.000,7417.000,-65.000,190.000,140.000,NA,0.000,0
2026-01-30 21:56:12,1506964,-1748.000,-4392.000,7334.000,-45.000,172.000,184.000,NA,0.000,0
2026-01-30 21:56:12,1507004,-2043.000,-4281.000,7356.000,21.000,53.000,157.000,NA,0.000,0
2026-01-30 21:56:12,1507044,-2048.000,-3984.000,7237.000,78.000,-49.000,99.000,NA,0.000,0
2026-01-30 21:56:12,1507084,-2047.000,-3838.000,7004.000,123.000,-44.000,45.000,NA,0.000,0
2026-01-30 21:56:12,1507124,-2065.000,-3795.000,7070.000,54.000,50.000,77.000,NA,0.000,0
2026-01-30 21:56:12,1507164,-2090.000,-3766.000,6910.000,117.000,71.000,36.000,NA,0.000,0
2026-01-30 21:56:12,1507204,-1890.000,-3397.000,6999.000,-22.000,-23.000,-126.000,NA,0.000,0
2026-01-30 21:56:12,1507244,-1748.000,-3793.000,7684.000,-357.000,151.000,-87.000,NA,0.000,0
2026-01-30 21:56:13,1507284,-1848.000,-4291.000,7445.000,-76.000,338.000,74.000,NA,0.000,0
2026-01-30 21:56:13,1507324,-2047.000,-4505.000,7453.000,75.000,9.000,-108.000,NA,0.000,0
2026-01-30 21:56:13,1507364,-1766.000,-4215.000,7415.000,40.000,-176.000,-236.000,NA,0.000,0
2026-01-30 21:56:13,1507404,-1444.000,-4007.000,7234.000,34.000,-144.000,-260.000,NA,0.000,0
2026-01-30 21:56:13,1507444,-1387.000,-4258.000,7326.000,-70.000,-53.000,-86.000,NA,0.000,0
2026-01-30 21:56:13,1507484,-1652.000,-4354.000,7413.000,20.000,-10.000,114.000,NA,0.000,0
2026-01-30 21:56:13,1507524,-1794.000,-3947.000,6988.000,153.000,-155.000,96.000,NA,0.000,0
2026-01-30 21:56:13,1507564,-1777.000,-3863.000,6966.000,-10.000,-219.000,66.000,NA,0.000,0
2026-01-30 21:56:13,1507604,-1759.000,-3995.000,7178.000,-109.000,-63.000,67.000,NA,0.000,0
2026-01-30 21:56:13,1507644,-1859.000,-4060.000,7158.000,61.000,86.000,6.000,NA,0.000,0
2026-01-30 21:56:13,1507686,-1792.000,-4063.000,7363.000,-45.000,68.000,-46.000,NA,0.000,0
2026-01-30 21:56:13,1507725,-1871.000,-4350.000,7561.000,91.000,155.000,79.000,NA,0.000,0
2026-01-30 21:56:13,1507764,-2232.000,-4036.000,7410.000,161.000,-19.000,54.000,NA,0.000,0
2026-01-30 21:56:13,1507804,-2434.000,-3471.000,7122.000,325.000,-92.000,133.000,NA,0.000,0
2026-01-30 21:56:13,1507844,-2395.000,-3292.000,6812.000,241.000,-161.000,67.000,NA,0.000,0
2026-01-30 21:56:13,1507886,-1820.000,-3340.000,7415.000,-192.000,-83.000,-67.000,NA,0.000,0
2026-01-30 21:56:13,1507924,-1717.000,-4494.000,8074.000,-356.000,216.000,-92.000,NA,0.000,0
2026-01-30 21:56:13,1507964,-1820.000,-4690.000,7712.000,329.000,71.000,-354.000,NA,0.000,0
2026-01-30 21:56:13,1508004,-1296.000,-3785.000,7309.000,576.000,-398.000,-733.000,NA,0.000,0
2026-01-30 21:56:13,1508044,-1015.000,-3588.000,7238.000,181.000,-409.000,-665.000,NA,0.000,0
2026-01-30 21:56:13,1508084,-727.000,-3919.000,6980.000,2.000,-92.000,-31.000,NA,0.000,0
2026-01-30 21:56:13,1508124,-1293.000,-3981.000,6946.000,-10.000,11.000,168.000,NA,0.000,0
2026-01-30 21:56:13,1508164,-1672.000,-3815.000,7751.000,-129.000,-13.000,286.000,NA,0.000,0
2026-01-30 21:56:13,1508204,-1834.000,-3633.000,7000.000,41.000,-98.000,248.000,NA,0.000,0
2026-01-30 21:56:13,1508244,-1726.000,-3288.000,6894.000,-63.000,-314.000,48.000,NA,0.000,0
2026-01-30 21:56:14,1508284,-1840.000,-3703.000,7815.000,-487.000,-65.000,200.000,NA,0.000,0
2026-01-30 21:56:14,1508324,-2237.000,-3857.000,7596.000,98.000,286.000,318.000,NA,0.000,0
2026-01-30 21:56:14,1508364,-2218.000,-3684.000,7357.000,330.000,81.000,16.000,NA,0.000,0
2026-01-30 21:56:14,1508404,-1992.000,-3499.000,7725.000,102.000,-96.000,-319.000,NA,0.000,0
2026-01-30 21:56:14,1508444,-1292.000,-3815.000,7887.000,122.000,15.000,-341.000,NA,0.000,0
2026-01-30 21:56:14,1508484,-1035.000,-3683.000,7924.000,185.000,91.000,-327.000,NA,0.000,0
2026-01-30 21:56:14,1508524,-979.000,-3506.000,7553.000,285.000,94.000,-312.000,NA,0.000,0
2026-01-30 21:56:14,1508564,-1012.000,-2984.000,7158.000,298.000,-47.000,-306.000,NA,0.000,0
2026-01-30 21:56:14,1508604,-844.000,-3038.000,7360.000,-210.000,-180.000,-84.000,NA,0.000,0
2026-01-30 21:56:14,1508644,-1017.000,-3648.000,8270.000,-501.000,259.000,395.000,NA,0.000,0
2026-01-30 21:56:14,1508684,-1531.000,-3730.000,7631.000,230.000,385.000,463.000,NA,0.000,0
2026-01-30 21:56:14,1508724,-1834.000,-2828.000,7386.000,341.000,-47.000,1.000,NA,0.000,0
2026-01-30 21:56:14,1508764,-1444.000,-2630.000,7959.000,-224.000,-173.000,-195.000,NA,0.000,0
2026-01-30 21:56:14,1508804,-1090.000,-2901.000,7844.000,-151.000,76.000,-19.000,NA,0.000,0
2026-01-30 21:56:14,1508844,-1465.000,-3361.000,8045.000,-12.000,382.000,111.000,NA,0.000,0
2026-01-30 21:56:14,1508884,-1869.000,-3170.000,7930.000,245.000,193.000,86.000,NA,0.000,0
2026-01-30 21:56:14,1508924,-1597.000,-2903.000,7693.000,44.000,-88.000,-23.000,NA,0.000,0
2026-01-30 21:56:14,1508964,-1231.000,-2998.000,7780.000,-140.000,-73.000,-82.000,NA,0.000,0
2026-01-30 21:56:14,1509004,-1203.000,-3137.000,7995.000,-154.000,188.000,28.000,NA,0.000,0
2026-01-30 21:56:14,1509044,-1227.000,-3015.000,7534.000,78.000,182.000,48.000,NA,0.000,0
2026-01-30 21:56:14,1509084,-1193.000,-2951.000,7454.000,-114.000,-50.000,-26.000,NA,0.000,0
2026-01-30 21:56:14,1509124,-1271.000,-3122.000,7725.000,-155.000,-57.000,-40.000,NA,0.000,0
2026-01-30 21:56:14,1509164,-1249.000,-3636.000,8029.000,-491.000,149.000,160.000,NA,0.000,0
2026-01-30 21:56:14,1509204,-1734.000,-3689.000,7504.000,228.000,70.000,168.000,NA,0.000,0
2026-01-30 21:56:14,1509244,-1823.000,-3566.000,7710.000,-149.000,-242.000,54.000,NA,0.000,0
2026-01-30 21:56:15,1509284,-1801.000,-3757.000,8249.000,-137.000,-100.000,165.000,NA,0.000,0
2026-01-30 21:56:15,1509324,-1820.000,-3556.000,7339.000,195.000,-38.000,253.000,NA,0.000,0
2026-01-30 21:56:15,1509364,-1901.000,-3342.000,7183.000,255.000,-90.000,156.000,NA,0.000,0
2026-01-30 21:56:15,1509404,-1953.000,-2906.000,6936.000,287.000,-216.000,-23.000,NA,0.000,0
2026-01-30 21:56:15,1509444,-1534.000,-2989.000,7527.000,-250.000,-135.000,-119.000,NA,0.000,0
2026-01-30 21:56:15,1509484,-1462.000,-3934.000,8218.000,-369.000,308.000,21.000,NA,0.000,0
2026-01-30 21:56:15,1509524,-1468.000,-3850.000,7788.000,343.000,353.000,-9.000,NA,0.000,0
2026-01-30 21:56:15,1509564,-1479.000,-3725.000,7756.000,298.000,101.000,-191.000,NA,0.000,0
2026-01-30 21:56:15,1509604,-1355.000,-3573.000,7799.000,29.000,-103.000,-135.000,NA,0.000,0
2026-01-30 21:56:15,1509646,-1421.000,-3380.000,7364.000,83.000,20.000,57.000,NA,0.000,0
2026-01-30 21:56:15,1509685,-1759.000,-3443.000,7310.000,-95.000,41.000,193.000,NA,0.000,0
2026-01-30 21:56:15,1509724,-1982.000,-3362.000,7778.000,-68.000,34.000,270.000,NA,0.000,0
2026-01-30 21:56:15,1509764,-1812.000,-3331.000,7366.000,63.000,-77.000,133.000,NA,0.000,0
2026-01-30 21:56:15,1509804,-1545.000,-3435.000,7464.000,-27.000,-90.000,-106.000,NA,0.000,0
2026-01-30 21:56:15,1509844,-1547.000,-3662.000,7490.000,30.000,-4.000,-104.000,NA,0.000,0
2026-01-30 21:56:15,1509886,-1534.000,-3540.000,7428.000,160.000,-31.000,-97.000,NA,0.000,0
2026-01-30 21:56:15,1509924,-1552.000,-3535.000,7455.000,-2.000,-81.000,-23.000,NA,0.000,0
2026-01-30 21:56:15,1509964,-1660.000,-3433.000,7386.000,-9.000,-9.000,108.000,NA,0.000,0
2026-01-30 21:56:15,1510004,-1697.000,-3421.000,7536.000,-20.000,27.000,80.000,NA,0.000,0
2026-01-30 21:56:15,1510044,-1778.000,-3460.000,7626.000,-26.000,58.000,41.000,NA,0.000,0
2026-01-30 21:56:15,1510084,-1777.000,-3509.000,7492.000,31.000,45.000,33.000,NA,0.000,0
2026-01-30 21:56:15,1510124,-1806.000,-3660.000,7802.000,-1.000,74.000,26.000,NA,0.000,0
2026-01-30 21:56:15,1510164,-1785.000,-3523.000,7593.000,127.000,8.000,-42.000,NA,0.000,0
2026-01-30 21:56:15,1510204,-1595.000,-3432.000,7432.000,97.000,-98.000,-110.000,NA,0.000,0
2026-01-30 21:56:15,1510244,-1438.000,-3518.000,7491.000,-9.000,-51.000,-105.000,NA,0.000,0
2026-01-30 21:56:16,1510284,-1307.000,-3621.000,7482.000,-12.000,11.000,-32.000,NA,0.000,0
2026-01-30 21:56:16,1510324,-1435.000,-3506.000,7534.000,57.000,35.000,49.000,NA,0.000,0
2026-01-30 21:56:16,1510364,-1753.000,-3121.000,7393.000,16.000,-72.000,54.000,NA,0.000,0
2026-01-30 21:56:16,1510404,-1782.000,-3169.000,7585.000,-46.000,13.000,139.000,NA,0.000,0
2026-01-30 21:56:16,1510444,-1856.000,-3274.000,7538.000,-12.000,93.000,157.000,NA,0.000,0
2026-01-30 21:56:16,1510484,-1961.000,-3392.000,7809.000,-4.000,106.000,72.000,NA,0.000,0
2026-01-30 21:56:16,1510524,-1966.000,-3319.000,7983.000,44.000,88.000,-53.000,NA,0.000,0
2026-01-30 21:56:16,1510564,-1633.000,-3120.000,8083.000,122.000,26.000,-222.000,NA,0.000,0
2026-01-30 21:56:16,1510604,-1320.000,-2887.000,7681.000,197.000,19.000,-308.000,NA,0.000,0
2026-01-30 21:56:16,1510644,-1170.000,-2997.000,7835.000,-23.000,45.000,-305.000,NA,0.000,0
2026-01-30 21:56:16,1510684,-1126.000,-3096.000,8093.000,-128.000,169.000,-186.000,NA,0.000,0
2026-01-30 21:56:16,1510724,-1176.000,-2940.000,7799.000,6.000,189.000,-1.000,NA,0.000,0
2026-01-30 21:56:16,1510764,-1391.000,-3015.000,7717.000,-34.000,121.000,48.000,NA,0.000,0
2026-01-30 21:56:16,1510804,-1562.000,-2957.000,7596.000,-51.000,-9.000,96.000,NA,0.000,0
2026-01-30 21:56:16,1510844,-1671.000,-3261.000,7704.000,-236.000,-28.000,189.000,NA,0.000,0
2026-01-30 21:56:16,1510884,-1864.000,-3329.000,7472.000,-131.000,-44.000,208.000,NA,0.000,0
2026-01-30 21:56:16,1510924,-1910.000,-3188.000,7447.000,-25.000,-168.000,123.000,NA,0.000,0
2026-01-30 21:56:16,1510964,-1780.000,-3195.000,7654.000,-119.000,-241.000,38.000,NA,0.000,0
2026-01-30 21:56:16,1511004,-1560.000,-3405.000,7702.000,-94.000,-184.000,1.000,NA,0.000,0
2026-01-30 21:56:16,1511044,-1552.000,-3590.000,7569.000,12.000,-132.000,-8.000,NA,0.000,0
2026-01-30 21:56:16,1511084,-1608.000,-3762.000,7926.000,-58.000,-129.000,-2.000,NA,0.000,0
2026-01-30 21:56:16,1511124,-1597.000,-3487.000,7812.000,61.000,-160.000,-75.000,NA,0.000,0
2026-01-30 21:56:16,1511164,-1577.000,-3418.000,7676.000,68.000,-119.000,-62.000,NA,0.000,0
2026-01-30 21:56:16,1511204,-1761.000,-3539.000,7613.000,80.000,-61.000,60.000,NA,0.000,0
2026-01-30 21:56:16,1511244,-1929.000,-3488.000,7699.000,-16.000,-31.000,41.000,NA,0.000,0
2026-01-30 21:56:17,1511284,-1780.000,-3345.000,7651.000,36.000,-32.000,-33.000,NA,0.000,0
2026-01-30 21:56:17,1511324,-1675.000,-3374.000,7418.000,93.000,-64.000,-81.000,NA,0.000,0
2026-01-30 21:56:17,1511364,-1487.000,-3576.000,7595.000,8.000,-61.000,-97.000,NA,0.000,0
2026-01-30 21:56:17,1511404,-1445.000,-3595.000,7316.000,98.000,-56.000,-136.000,NA,0.000,0
2026-01-30 21:56:17,1511444,-1304.000,-3518.000,7372.000,-1.000,-84.000,-129.000,NA,0.000,0
2026-01-30 21:56:17,1511484,-1348.000,-3647.000,7562.000,-90.000,-32.000,64.000,NA,0.000,0
2026-01-30 21:56:17,1511524,-1519.000,-3707.000,7601.000,-14.000,31.000,135.000,NA,0.000,0
2026-01-30 21:56:17,1511564,-1757.000,-3474.000,7375.000,28.000,-54.000,131.000,NA,0.000,0
2026-01-30 21:56:17,1511604,-1841.000,-3504.000,7458.000,-100.000,-121.000,131.000,NA,0.000,0
2026-01-30 21:56:17,1511644,-1885.000,-3466.000,7723.000,-69.000,-23.000,156.000,NA,0.000,0
2026-01-30 21:56:17,1511686,-1982.000,-3639.000,7599.000,-42.000,82.000,144.000,NA,0.000,0
2026-01-30 21:56:17,1511725,-2050.000,-3522.000,7422.000,139.000,0.000,6.000,NA,0.000,0
2026-01-30 21:56:17,1511764,-1804.000,-3406.000,7609.000,94.000,-160.000,-148.000,NA,0.000,0
2026-01-30 21:56:17,1511804,-1531.000,-3531.000,7757.000,10.000,-96.000,-151.000,NA,0.000,0
2026-01-30 21:56:17,1511844,-1448.000,-3666.000,7560.000,113.000,9.000,-109.000,NA,0.000,0
2026-01-30 21:56:17,1511886,-1408.000,-3324.000,7577.000,64.000,-18.000,-141.000,NA,0.000,0
2026-01-30 21:56:17,1511924,-1311.000,-3373.000,7794.000,-59.000,22.000,-55.000,NA,0.000,0
2026-01-30 21:56:17,1511964,-1269.000,-3310.000,7667.000,19.000,125.000,35.000,NA,0.000,0
2026-01-30 21:56:17,1512004,-1484.000,-3363.000,7643.000,-24.000,148.000,88.000,NA,0.000,0
2026-01-30 21:56:17,1512044,-1668.000,-3470.000,7942.000,-80.000,160.000,134.000,NA,0.000,0
2026-01-30 21:56:17,1512084,-1751.000,-3310.000,7707.000,44.000,111.000,89.000,NA,0.000,0
2026-01-30 21:56:17,1512124,-1602.000,-3042.000,7892.000,-44.000,94.000,-30.000,NA,0.000,0
2026-01-30 21:56:17,1512164,-1488.000,-2780.000,7178.000,299.000,12.000,-76.000,NA,0.000,0
2026-01-30 21:56:17,1512204,-1489.000,-2519.000,7204.000,68.000,-155.000,-96.000,NA,0.000,0
2026-01-30 21:56:17,1512244,-1563.000,-2683.000,8665.000,-238.000,128.000,21.000,NA,0.000,0
2026-01-30 21:56:18,1512284,-1435.000,-2681.000,7728.000,180.000,432.000,44.000,NA,0.000,0
2026-01-30 21:56:18,1512324,-1795.000,-2875.000,7389.000,124.000,177.000,-78.000,NA,0.000,0
2026-01-30 21:56:18,1512364,-1608.000,-2789.000,8282.000,-174.000,-95.000,-131.000,NA,0.000,0
2026-01-30 21:56:18,1512404,-1354.000,-3068.000,8123.000,-77.000,-66.000,-80.000,NA,0.000,0
2026-01-30 21:56:18,1512444,-1242.000,-3441.000,8157.000,-78.000,69.000,-45.000,NA,0.000,0
2026-01-30 21:56:18,1512484,-1325.000,-2888.000,7807.000,415.000,-56.000,-184.000,NA,0.000,0
2026-01-30 21:56:18,1512524,-1078.000,-2596.000,7993.000,95.000,-208.000,-299.000,NA,0.000,0
2026-01-30 21:56:18,1512564,-829.000,-2641.000,8240.000,-73.000,-55.000,-238.000,NA,0.000,0
2026-01-30 21:56:18,1512604,-780.000,-2680.000,8137.000,-33.000,158.000,-46.000,NA,0.000,0
2026-01-30 21:56:18,1512644,-1279.000,-2769.000,7823.000,84.000,277.000,160.000,NA,0.000,0
2026-01-30 21:56:18,1512684,-1349.000,-2113.000,7090.000,439.000,-74.000,58.000,NA,0.000,0
2026-01-30 21:56:18,1512724,-1419.000,-1870.000,7343.000,-150.000,-190.000,30.000,NA,0.000,0
2026-01-30 21:56:18,1512764,-1565.000,-2097.000,8756.000,-706.000,417.000,327.000,NA,0.000,0
2026-01-30 21:56:18,1512804,-1933.000,-3244.000,9260.000,-907.000,973.000,833.000,NA,0.000,0
2026-01-30 21:56:18,1512844,-2466.000,-3410.000,7755.000,730.000,382.000,655.000,NA,0.000,0
2026-01-30 21:56:18,1512884,-2258.000,-2354.000,7315.000,910.000,-630.000,-305.000,NA,0.000,0
2026-01-30 21:56:18,1512924,-1277.000,-2067.000,8398.000,-401.000,-706.000,-830.000,NA,0.000,0
2026-01-30 21:56:18,1512964,-862.000,-3239.000,7649.000,-609.000,-74.000,-361.000,NA,0.000,0
2026-01-30 21:56:18,1513004,-1396.000,-3167.000,7003.000,250.000,186.000,244.000,NA,0.000,0
2026-01-30 21:56:18,1513044,-1745.000,-2989.000,7952.000,-74.000,-118.000,206.000,NA,0.000,0
2026-01-30 21:56:18,1513084,-1473.000,-3334.000,8369.000,-435.000,-188.000,183.000,NA,0.000,0
2026-01-30 21:56:18,1513124,-1183.000,-3697.000,7615.000,-91.000,-211.000,53.000,NA,0.000,0
2026-01-30 21:56:18,1513164,-1367.000,-3662.000,7823.000,-93.000,-268.000,-45.000,NA,0.000,0
2026-01-30 21:56:18,1513204,-1727.000,-3668.000,7733.000,-4.000,-261.000,87.000,NA,0.000,0
2026-01-30 21:56:18,1513244,-1922.000,-3450.000,7443.000,111.000,-211.000,273.000,NA,0.000,0
2026-01-30 21:56:19,1513284,-2123.000,-3204.000,7304.000,117.000,-124.000,389.000,NA,0.000,0
2026-01-30 21:56:19,1513324,-2348.000,-2890.000,7490.000,193.000,-8.000,338.000,NA,0.000,0
2026-01-30 21:56:19,1513364,-2404.000,-2901.000,7884.000,-58.000,103.000,217.000,NA,0.000,0
2026-01-30 21:56:19,1513404,-2009.000,-3696.000,7445.000,101.000,76.000,-79.000,NA,0.000,0
2026-01-30 21:56:19,1513444,-1766.000,-3477.000,7255.000,141.000,-113.000,-418.000,NA,0.000,0
2026-01-30 21:56:19,1513484,-1427.000,-3457.000,7860.000,-100.000,-80.000,-422.000,NA,0.000,0
2026-01-30 21:56:19,1513524,-1273.000,-3821.000,7607.000,59.000,138.000,-156.000,NA,0.000,0
2026-01-30 21:56:19,1513564,-1313.000,-3879.000,7273.000,268.000,67.000,-60.000,NA,0.000,0
2026-01-30 21:56:19,1513604,-1535.000,-3771.000,7316.000,56.000,-108.000,-71.000,NA,0.000,0
2026-01-30 21:56:19,1513646,-1704.000,-3981.000,7436.000,-191.000,-132.000,79.000,NA,0.000,0
2026-01-30 21:56:19,1513685,-1745.000,-3909.000,7328.000,-150.000,-80.000,256.000,NA,0.000,0
2026-01-30 21:56:19,1513724,-1920.000,-3938.000,7375.000,-155.000,-58.000,295.000,NA,0.000,0
2026-01-30 21:56:19,1513764,-2185.000,-3774.000,7379.000,-68.000,-89.000,238.000,NA,0.000,0
2026-01-30 21:56:19,1513804,-2199.000,-3487.000,7192.000,128.000,-188.000,60.000,NA,0.000,0
2026-01-30 21:56:19,1513844,-2173.000,-3542.000,7095.000,-12.000,-194.000,-5.000,NA,0.000,0
2026-01-30 21:56:19,1513886,-2153.000,-3926.000,7359.000,-141.000,-39.000,22.000,NA,0.000,0
2026-01-30 21:56:19,1513924,-2119.000,-3904.000,7414.000,60.000,23.000,-12.000,NA,0.000,0
2026-01-30 21:56:19,1513964,-1978.000,-3830.000,7398.000,69.000,-27.000,-152.000,NA,0.000,0
2026-01-30 21:56:19,1514004,-1773.000,-3820.000,7421.000,118.000,-93.000,-241.000,NA,0.000,0
2026-01-30 21:56:19,1514044,-1559.000,-3895.000,7356.000,43.000,-126.000,-273.000,NA,0.000,0
2026-01-30 21:56:19,1514084,-1464.000,-3888.000,7376.000,27.000,-122.000,-237.000,NA,0.000,0
2026-01-30 21:56:19,1514124,-1525.000,-3853.000,7382.000,-42.000,-100.000,-149.000,NA,0.000,0
2026-01-30 21:56:19,1514164,-1726.000,-4099.000,7824.000,-120.000,92.000,167.000,NA,0.000,0
2026-01-30 21:56:19,1514204,-1861.000,-3853.000,7308.000,127.000,13.000,99.000,NA,0.000,0
2026-01-30 21:56:19,1514244,-1831.000,-3541.000,7270.000,28.000,-227.000,-90.000,NA,0.000,0
2026-01-30 21:56:20,1514284,-1641.000,-3760.000,7727.000,-244.000,-154.000,-49.000,NA,0.000,0
2026-01-30 21:56:20,1514324,-1510.000,-3849.000,7611.000,37.000,129.000,33.000,NA,0.000,0
2026-01-30 21:56:20,1514364,-1614.000,-3452.000,7566.000,123.000,100.000,-84.000,NA,0.000,0
2026-01-30 21:56:20,1514404,-1642.000,-3503.000,7925.000,10.000,65.000,-67.000,NA,0.000,0
2026-01-30 21:56:20,1514444,-1504.000,-2940.000,7212.000,252.000,-1.000,-92.000,NA,0.000,0
2026-01-30 21:56:20,1514484,-1212.000,-3012.000,7356.000,-83.000,-67.000,-100.000,NA,0.000,0
2026-01-30 21:56:20,1514524,-1450.000,-3693.000,7716.000,-216.000,124.000,31.000,NA,0.000,0
2026-01-30 21:56:20,1514564,-1839.000,-3350.000,7613.000,102.000,78.000,146.000,NA,0.000,0
2026-01-30 21:56:20,1514604,-1868.000,-2988.000,7563.000,14.000,-100.000,57.000,NA,0.000,0
2026-01-30 21:56:20,1514644,-1697.000,-2887.000,7692.000,9.000,-73.000,8.000,NA,0.000,0
2026-01-30 21:56:20,1514684,-1619.000,-3001.000,7855.000,-48.000,-72.000,16.000,NA,0.000,0
2026-01-30 21:56:20,1514724,-1704.000,-3363.000,8057.000,-35.000,9.000,-4.000,NA,0.000,0
2026-01-30 21:56:20,1514764,-1559.000,-3297.000,7721.000,156.000,-90.000,-150.000,NA,0.000,0
2026-01-30 21:56:20,1514804,-1268.000,-3281.000,7608.000,25.000,-187.000,-255.000,NA,0.000,0
2026-01-30 21:56:20,1514844,-1204.000,-3552.000,7796.000,-93.000,-83.000,-195.000,NA,0.000,0
2026-01-30 21:56:20,1514884,-1179.000,-3664.000,7929.000,-69.000,28.000,-60.000,NA,0.000,0
2026-01-30 21:56:20,1514924,-1293.000,-3487.000,7949.000,-78.000,23.000,65.000,NA,0.000,0
2026-01-30 21:56:20,1514964,-1274.000,-3484.000,7610.000,92.000,-18.000,177.000,NA,0.000,0
2026-01-30 21:56:20,1515004,-1428.000,-3387.000,7048.000,6.000,-183.000,88.000,NA,0.000,0
2026-01-30 21:56:20,1515044,-1486.000,-3505.000,7657.000,-347.000,-128.000,105.000,NA,0.000,0
2026-01-30 21:56:20,1515084,-1680.000,-3439.000,7616.000,-54.000,216.000,295.000,NA,0.000,0
2026-01-30 21:56:20,1515124,-1745.000,-3358.000,7208.000,132.000,240.000,328.000,NA,0.000,0
2026-01-30 21:56:20,1515164,-1968.000,-3908.000,7640.000,-269.000,170.000,252.000,NA,0.000,0
2026-01-30 21:56:20,1515204,-2152.000,-4154.000,7319.000,63.000,129.000,282.000,NA,0.000,0
2026-01-30 21:56:20,1515244,-2084.000,-3490.000,6109.000,405.000,-280.000,-38.000,NA,0.000,0
2026-01-30 21:56:21,1515284,-1977.000,-3495.000,7777.000,-350.000,-433.000,-126.000,NA,0.000,0
2026-01-30 21:56:21,1515324,-2037.000,-4563.000,7890.000,-169.000,333.000,393.000,NA,0.000,0
2026-01-30 21:56:21,1515364,-2260.000,-4239.000,6758.000,479.000,48.000,77.000,NA,0.000,0
2026-01-30 21:56:21,1515404,-2380.000,-4304.000,7288.000,-24.000,-300.000,-100.000,NA,0.000,0
2026-01-30 21:56:21,1515444,-2251.000,-4083.000,7683.000,35.000,-288.000,19.000,NA,0.000,0
2026-01-30 21:56:21,1515484,-1708.000,-3980.000,7173.000,113.000,-185.000,-27.000,NA,0.000,0
2026-01-30 21:56:21,1515524,-1680.000,-4145.000,7268.000,12.000,-91.000,-198.000,NA,0.000,0
2026-01-30 21:56:21,1515564,-1774.000,-4251.000,7557.000,20.000,-58.000,-174.000,NA,0.000,0
2026-01-30 21:56:21,1515604,-1553.000,-4074.000,7512.000,208.000,-38.000,-137.000,NA,0.000,0
2026-01-30 21:56:21,1515644,-1230.000,-4156.000,7618.000,14.000,40.000,-152.000,NA,0.000,0
2026-01-30 21:56:21,1515686,-1531.000,-4583.000,7836.000,83.000,346.000,75.000,NA,0.000,0
2026-01-30 21:56:21,1515725,-1713.000,-3529.000,6967.000,459.000,74.000,-67.000,NA,0.000,0
2026-01-30 21:56:21,1515764,-1598.000,-3413.000,6604.000,24.000,-198.000,-202.000,NA,0.000,0
2026-01-30 21:56:21,1515804,-1615.000,-3532.000,7113.000,-427.000,-98.000,72.000,NA,0.000,0
2026-01-30 21:56:21,1515844,-1950.000,-3772.000,7275.000,-423.000,348.000,584.000,NA,0.000,0
2026-01-30 21:56:21,1515886,-2518.000,-4143.000,7053.000,-159.000,509.000,783.000,NA,0.000,0
2026-01-30 21:56:21,1515924,-2954.000,-3195.000,7117.000,510.000,164.000,444.000,NA,0.000,0
2026-01-30 21:56:21,1515964,-3209.000,-3643.000,7366.000,-11.000,42.000,172.000,NA,0.000,0
2026-01-30 21:56:21,1516004,-2492.000,-3652.000,7157.000,14.000,-166.000,-182.000,NA,0.000,0
2026-01-30 21:56:21,1516044,-2081.000,-4032.000,7417.000,-174.000,-141.000,-427.000,NA,0.000,0
2026-01-30 21:56:21,1516084,-2074.000,-4247.000,7101.000,250.000,-61.000,-478.000,NA,0.000,0
2026-01-30 21:56:21,1516124,-1613.000,-3833.000,7334.000,166.000,-79.000,-433.000,NA,0.000,0
2026-01-30 21:56:21,1516164,-1440.000,-4306.000,7900.000,-105.000,107.000,-203.000,NA,0.000,0
2026-01-30 21:56:21,1516204,-1545.000,-4497.000,7344.000,264.000,99.000,-76.000,NA,0.000,0
2026-01-30 21:56:21,1516244,-1661.000,-4230.000,7482.000,122.000,2.000,-58.000,NA,0.000,0
2026-01-30 21:56:22,1516284,-1848.000,-4359.000,7505.000,-6.000,19.000,61.000,NA,0.000,0
2026-01-30 21:56:22,1516324,-2039.000,-3881.000,6946.000,149.000,-114.000,64.000,NA,0.000,0
2026-01-30 21:56:22,1516364,-2065.000,-3720.000,7238.000,-98.000,-136.000,121.000,NA,0.000,0
2026-01-30 21:56:22,1516404,-2328.000,-3978.000,7252.000,-154.000,100.000,225.000,NA,0.000,0
2026-01-30 21:56:22,1516444,-2311.000,-3738.000,7012.000,105.000,36.000,61.000,NA,0.000,0
2026-01-30 21:56:22,1516484,-2325.000,-3897.000,7152.000,-48.000,5.000,-62.000,NA,0.000,0
2026-01-30 21:56:22,1516524,-2274.000,-4133.000,7243.000,8.000,32.000,-73.000,NA,0.000,0
2026-01-30 21:56:22,1516564,-2190.000,-4142.000,6999.000,101.000,3.000,-127.000,NA,0.000,0
2026-01-30 21:56:22,1516604,-2096.000,-4113.000,7434.000,-11.000,2.000,-128.000,NA,0.000,0
2026-01-30 21:56:22,1516644,-2044.000,-4192.000,7267.000,59.000,21.000,-89.000,NA,0.000,0
2026-01-30 21:56:22,1516684,-1779.000,-4041.000,6935.000,153.000,-86.000,-132.000,NA,0.000,0
2026-01-30 21:56:22,1516724,-1734.000,-4369.000,7309.000,-123.000,-75.000,-104.000,NA,0.000,0
2026-01-30 21:56:22,1516764,-1606.000,-4237.000,7437.000,41.000,13.000,-134.000,NA,0.000,0
2026-01-30 21:56:22,1516804,-1610.000,-4056.000,6951.000,129.000,-57.000,-189.000,NA,0.000,0
2026-01-30 21:56:22,1516844,-1870.000,-4280.000,7473.000,-218.000,-17.000,54.000,NA,0.000,0
2026-01-30 21:56:22,1516884,-2191.000,-4337.000,7250.000,-81.000,22.000,240.000,NA,0.000,0
2026-01-30 21:56:22,1516924,-2337.000,-4133.000,7244.000,-41.000,-63.000,205.000,NA,0.000,0
2026-01-30 21:56:22,1516964,-2344.000,-3893.000,7090.000,-18.000,-177.000,127.000,NA,0.000,0
2026-01-30 21:56:22,1517004,-2238.000,-4206.000,7233.000,-212.000,-165.000,110.000,NA,0.000,0
2026-01-30 21:56:22,1517044,-1973.000,-4258.000,7571.000,-5.000,-65.000,-16.000,NA,0.000,0
2026-01-30 21:56:22,1517084,-1845.000,-4316.000,7223.000,123.000,-103.000,-192.000,NA,0.000,0
2026-01-30 21:56:22,1517124,-1597.000,-3923.000,7027.000,279.000,-246.000,-355.000,NA,0.000,0
2026-01-30 21:56:22,1517164,-1345.000,-3690.000,7292.000,-24.000,-273.000,-350.000,NA,0.000,0
2026-01-30 21:56:22,1517204,-1209.000,-5012.000,7903.000,-97.000,345.000,95.000,NA,0.000,0
2026-01-30 21:56:22,1517244,-1509.000,-4041.000,7006.000,428.000,24.000,-130.000,NA,0.000,0
2026-01-30 21:56:23,1517284,-1735.000,-3644.000,7589.000,-17.000,-277.000,-31.000,NA,0.000,0
2026-01-30 21:56:23,1517324,-1806.000,-3729.000,7879.000,-275.000,-107.000,335.000,NA,0.000,0
2026-01-30 21:56:23,1517364,-1527.000,-3517.000,7415.000,-61.000,102.000,402.000,NA,0.000,0
2026-01-30 21:56:23,1517404,-1713.000,-3025.000,6958.000,234.000,-11.000,141.000,NA,0.000,0
2026-01-30 21:56:23,1517444,-1654.000,-2646.000,7699.000,-113.000,-4.000,-46.000,NA,0.000,0
2026-01-30 21:56:23,1517484,-1295.000,-3251.000,8366.000,-189.000,327.000,4.000,NA,0.000,0
2026-01-30 21:56:23,1517524,-1279.000,-3707.000,7522.000,219.000,407.000,-39.000,NA,0.000,0
2026-01-30 21:56:23,1517564,-1546.000,-3547.000,7713.000,285.000,215.000,-168.000,NA,0.000,0
2026-01-30 21:56:23,1517604,-1613.000,-3063.000,7617.000,77.000,-80.000,-54.000,NA,0.000,0
2026-01-30 21:56:23,1517646,-1317.000,-3068.000,7658.000,-107.000,3.000,150.000,NA,0.000,0
2026-01-30 21:56:23,1517685,-1489.000,-3076.000,7750.000,-98.000,130.000,192.000,NA,0.000,0
2026-01-30 21:56:23,1517724,-1581.000,-2640.000,7833.000,135.000,38.000,114.000,NA,0.000,0
2026-01-30 21:56:23,1517764,-1442.000,-2850.000,8018.000,-62.000,36.000,49.000,NA,0.000,0
2026-01-30 21:56:23,1517804,-1301.000,-2816.000,7538.000,146.000,34.000,-128.000,NA,0.000,0
2026-01-30 21:56:23,1517844,-1251.000,-2883.000,8140.000,-138.000,56.000,-169.000,NA,0.000,0
2026-01-30 21:56:23,1517886,-1392.000,-3314.000,8136.000,3.000,232.000,40.000,NA,0.000,0
2026-01-30 21:56:23,1517924,-1525.000,-2931.000,7404.000,418.000,59.000,86.000,NA,0.000,0
2026-01-30 21:56:23,1517964,-1515.000,-3008.000,7521.000,17.000,-122.000,147.000,NA,0.000,0
2026-01-30 21:56:23,1518004,-1581.000,-3218.000,7589.000,-168.000,29.000,209.000,NA,0.000,0
2026-01-30 21:56:23,1518044,-1684.000,-3122.000,7493.000,-130.000,43.000,194.000,NA,0.000,0
2026-01-30 21:56:23,1518084,-1797.000,-3266.000,7706.000,-161.000,-6.000,138.000,NA,0.000,0
2026-01-30 21:56:23,1518124,-1902.000,-3287.000,7972.000,-35.000,-30.000,121.000,NA,0.000,0
2026-01-30 21:56:23,1518164,-1870.000,-3398.000,7719.000,-44.000,-61.000,107.000,NA,0.000,0
2026-01-30 21:56:23,1518204,-1913.000,-3490.000,7512.000,65.000,-61.000,74.000,NA,0.000,0
2026-01-30 21:56:23,1518244,-2086.000,-3329.000,7383.000,31.000,-110.000,47.000,NA,0.000,0
2026-01-30 21:56:24,1518284,-1860.000,-2867.000,7467.000,11.000,-119.000,-53.000,NA,0.000,0
2026-01-30 21:56:24,1518324,-1611.000,-3278.000,7736.000,-246.000,96.000,36.000,NA,0.000,0
2026-01-30 21:56:24,1518364,-1711.000,-3843.000,7420.000,41.000,139.000,23.000,NA,0.000,0
2026-01-30 21:56:24,1518404,-1791.000,-3959.000,7627.000,-50.000,-43.000,-103.000,NA,0.000,0
2026-01-30 21:56:24,1518444,-1790.000,-3876.000,7444.000,-36.000,-132.000,-96.000,NA,0.000,0
2026-01-30 21:56:24,1518484,-1708.000,-3718.000,7360.000,-65.000,-149.000,-32.000,NA,0.000,0
2026-01-30 21:56:24,1518524,-1816.000,-3755.000,7306.000,-126.000,-121.000,124.000,NA,0.000,0
2026-01-30 21:56:24,1518564,-2042.000,-3681.000,7309.000,-85.000,-79.000,281.000,NA,0.000,0
2026-01-30 21:56:24,1518604,-2059.000,-3890.000,7173.000,-74.000,-149.000,301.000,NA,0.000,0
2026-01-30 21:56:24,1518644,-2064.000,-4154.000,7394.000,-101.000,-245.000,213.000,NA,0.000,0
2026-01-30 21:56:24,1518684,-1925.000,-4232.000,7764.000,-31.000,-267.000,73.000,NA,0.000,0
2026-01-30 21:56:24,1518724,-1613.000,-4028.000,7337.000,132.000,-294.000,-149.000,NA,0.000,0
2026-01-30 21:56:24,1518764,-1484.000,-4096.000,7449.000,53.000,-263.000,-114.000,NA,0.000,0
2026-01-30 21:56:24,1518804,-1402.000,-4243.000,7448.000,10.000,-141.000,-1.000,NA,0.000,0
2026-01-30 21:56:24,1518844,-1403.000,-4163.000,7247.000,92.000,-117.000,49.000,NA,0.000,0
2026-01-30 21:56:24,1518884,-1342.000,-4024.000,7262.000,-96.000,-139.000,45.000,NA,0.000,0
2026-01-30 21:56:24,1518924,-1320.000,-4174.000,7555.000,-218.000,-11.000,144.000,NA,0.000,0
2026-01-30 21:56:24,1518964,-1425.000,-4002.000,7105.000,-57.000,44.000,173.000,NA,0.000,0
2026-01-30 21:56:24,1519004,-1566.000,-3994.000,6995.000,-167.000,-68.000,122.000,NA,0.000,0
2026-01-30 21:56:24,1519044,-1732.000,-4106.000,7309.000,-330.000,-28.000,246.000,NA,0.000,0
2026-01-30 21:56:24,1519084,-1824.000,-4365.000,7591.000,-310.000,219.000,393.000,NA,0.000,0
2026-01-30 21:56:24,1519124,-2107.000,-4354.000,7341.000,71.000,271.000,238.000,NA,0.000,0
2026-01-30 21:56:24,1519164,-2190.000,-3869.000,7112.000,83.000,-98.000,-2.000,NA,0.000,0
2026-01-30 21:56:24,1519204,-2007.000,-4005.000,7255.000,-149.000,-176.000,10.000,NA,0.000,0
2026-01-30 21:56:24,1519244,-1958.000,-4153.000,7213.000,-81.000,-34.000,148.000,NA,0.000,0
2026-01-30 21:56:25,1519284,-2245.000,-4308.000,7192.000,9.000,4.000,223.000,NA,0.000,0
2026-01-30 21:56:25,1519324,-2540.000,-4198.000,7661.000,70.000,-23.000,217.000,NA,0.000,0
2026-01-30 21:56:25,1519364,-2496.000,-4080.000,7378.000,309.000,-81.000,110.000,NA,0.000,0
2026-01-30 21:56:25,1519404,-2143.000,-3644.000,7068.000,308.000,-222.000,-129.000,NA,0.000,0
2026-01-30 21:56:25,1519444,-1831.000,-3626.000,7304.000,114.000,-149.000,-248.000,NA,0.000,0
2026-01-30 21:56:25,1519484,-1616.000,-4247.000,7474.000,107.000,105.000,-255.000,NA,0.000,0
2026-01-30 21:56:25,1519524,-1544.000,-4319.000,7501.000,163.000,86.000,-294.000,NA,0.000,0
2026-01-30 21:56:25,1519564,-1547.000,-3759.000,7085.000,352.000,-120.000,-313.000,NA,0.000,0
2026-01-30 21:56:25,1519604,-1613.000,-3598.000,6641.000,149.000,-326.000,-204.000,NA,0.000,0
2026-01-30 21:56:25,1519644,-1694.000,-3423.000,6281.000,54.000,-430.000,-35.000,NA,0.000,0
2026-01-30 21:56:25,1519685,-1848.000,-3396.000,6891.000,-387.000,-285.000,299.000,NA,0.000,0
2026-01-30 21:56:25,1519724,-2371.000,-4413.000,7801.000,-594.000,333.000,743.000,NA,0.000,0
2026-01-30 21:56:25,1519765,-2697.000,-4451.000,7004.000,297.000,344.000,547.000,NA,0.000,0
2026-01-30 21:56:25,1519804,-2601.000,-4110.000,7250.000,177.000,-278.000,-149.000,NA,0.000,0
2026-01-30 21:56:25,1519844,-2130.000,-3926.000,7710.000,96.000,-499.000,-469.000,NA,0.000,0
2026-01-30 21:56:25,1519887,-1532.000,-4217.000,7089.000,282.000,-182.000,-286.000,NA,0.000,0
2026-01-30 21:56:25,1519925,-1693.000,-4145.000,7063.000,284.000,-124.000,-207.000,NA,0.000,0
2026-01-30 21:56:25,1519964,-1896.000,-3733.000,6989.000,363.000,-202.000,-110.000,NA,0.000,0
2026-01-30 21:56:25,1520004,-1519.000,-3728.000,6837.000,107.000,-287.000,-43.000,NA,0.000,0
2026-01-30 21:56:25,1520044,-1334.000,-3977.000,6958.000,-15.000,-10.000,53.000,NA,0.000,0
2026-01-30 21:56:25,1520084,-1591.000,-3919.000,7128.000,110.000,146.000,23.000,NA,0.000,0
2026-01-30 21:56:25,1520124,-1831.000,-3931.000,7413.000,15.000,15.000,-47.000,NA,0.000,0
2026-01-30 21:56:25,1520164,-1850.000,-3785.000,7276.000,-5.000,-92.000,-24.000,NA,0.000,0
2026-01-30 21:56:25,1520204,-1814.000,-3826.000,7164.000,-45.000,-71.000,-3.000,NA,0.000,0
2026-01-30 21:56:25,1520244,-1959.000,-4061.000,7491.000,-131.000,103.000,56.000,NA,0.000,0
2026-01-30 21:56:26,1520284,-2080.000,-3959.000,7286.000,-17.000,123.000,48.000,NA,0.000,0
2026-01-30 21:56:26,1520324,-1995.000,-3978.000,7436.000,-149.000,-31.000,13.000,NA,0.000,0
2026-01-30 21:56:26,1520364,-1949.000,-3893.000,7110.000,28.000,-78.000,-46.000,NA,0.000,0
2026-01-30 21:56:26,1520404,-1597.000,-3755.000,6861.000,-97.000,-97.000,-145.000,NA,0.000,0
2026-01-30 21:56:26,1520444,-1590.000,-4396.000,7951.000,-449.000,185.000,40.000,NA,0.000,0
2026-01-30 21:56:26,1520484,-2006.000,-4534.000,7817.000,34.000,361.000,142.000,NA,0.000,0
2026-01-30 21:56:26,1520524,-2032.000,-3710.000,7273.000,159.000,11.000,-43.000,NA,0.000,0
2026-01-30 21:56:26,1520564,-1873.000,-4104.000,7761.000,-359.000,-133.000,24.000,NA,0.000,0
2026-01-30 21:56:26,1520604,-1938.000,-4526.000,7780.000,-177.000,69.000,201.000,NA,0.000,0
2026-01-30 21:56:26,1520644,-2026.000,-3885.000,7029.000,147.000,5.000,-84.000,NA,0.000,0
2026-01-30 21:56:26,1520684,-2028.000,-3672.000,7035.000,-13.000,-105.000,-118.000,NA,0.000,0
2026-01-30 21:56:26,1520724,-1601.000,-4074.000,7648.000,-246.000,97.000,31.000,NA,0.000,0
2026-01-30 21:56:26,1520764,-1745.000,-4524.000,7688.000,-13.000,409.000,143.000,NA,0.000,0
2026-01-30 21:56:26,1520804,-2071.000,-3999.000,7315.000,291.000,235.000,-52.000,NA,0.000,0
2026-01-30 21:56:26,1520844,-2138.000,-3872.000,7248.000,53.000,-64.000,-103.000,NA,0.000,0
2026-01-30 21:56:26,1520884,-2090.000,-3997.000,7249.000,31.000,-68.000,93.000,NA,0.000,0
2026-01-30 21:56:26,1520924,-2116.000,-3629.000,6751.000,248.000,-62.000,83.000,NA,0.000,0
2026-01-30 21:56:26,1520964,-2248.000,-3653.000,7177.000,-94.000,121.000,121.000,NA,0.000,0
2026-01-30 21:56:26,1521004,-2315.000,-3790.000,7061.000,80.000,253.000,124.000,NA,0.000,0
2026-01-30 21:56:26,1521044,-2102.000,-3509.000,7059.000,171.000,-155.000,-232.000,NA,0.000,0
2026-01-30 21:56:26,1521084,-2063.000,-3672.000,7375.000,28.000,-98.000,-156.000,NA,0.000,0
2026-01-30 21:56:26,1521124,-1993.000,-4034.000,7711.000,24.000,132.000,30.000,NA,0.000,0
2026-01-30 21:56:26,1521164,-2037.000,-3703.000,6953.000,428.000,99.000,-69.000,NA,0.000,0
2026-01-30 21:56:26,1521204,-1890.000,-3234.000,6488.000,186.000,-208.000,-257.000,NA,0.000,0
2026-01-30 21:56:26,1521244,-1633.000,-3639.000,7254.000,-311.000,-75.000,-83.000,NA,0.000,0
2026-01-30 21:56:27,1521284,-1615.000,-4244.000,7279.000,-109.000,225.000,84.000,NA,0.000,0
2026-01-30 21:56:27,1521324,-1777.000,-4020.000,7148.000,127.000,96.000,-18.000,NA,0.000,0
2026-01-30 21:56:27,1521364,-2018.000,-3539.000,7324.000,59.000,-153.000,-136.000,NA,0.000,0
2026-01-30 21:56:27,1521404,-1666.000,-3685.000,7798.000,-280.000,47.000,76.000,NA,0.000,0
2026-01-30 21:56:27,1521444,-1879.000,-4481.000,8061.000,-277.000,433.000,304.000,NA,0.000,0
2026-01-30 21:56:27,1521484,-2358.000,-4001.000,7171.000,378.000,210.000,-23.000,NA,0.000,0
2026-01-30 21:56:27,1521524,-2149.000,-3414.000,7122.000,80.000,-291.000,-311.000,NA,0.000,0
2026-01-30 21:56:27,1521564,-1686.000,-3603.000,7081.000,-186.000,-202.000,-154.000,NA,0.000,0
2026-01-30 21:56:27,1521604,-1511.000,-3483.000,6797.000,12.000,89.000,-50.000,NA,0.000,0
2026-01-30 21:56:27,1521644,-1938.000,-3909.000,7847.000,-451.000,354.000,181.000,NA,0.000,0
2026-01-30 21:56:27,1521686,-2470.000,-4689.000,8461.000,-314.000,664.000,438.000,NA,0.000,0
2026-01-30 21:56:27,1521725,-2594.000,-4161.000,7373.000,475.000,193.000,147.000,NA,0.000,0
2026-01-30 21:56:27,1521764,-2254.000,-3406.000,7313.000,218.000,-461.000,-301.000,NA,0.000,0
2026-01-30 21:56:27,1521804,-1890.000,-3492.000,7511.000,-106.000,-193.000,-229.000,NA,0.000,0
2026-01-30 21:56:27,1521844,-2006.000,-3380.000,7149.000,-3.000,148.000,-33.000,NA,0.000,0
2026-01-30 21:56:27,1521886,-2467.000,-3898.000,7735.000,-303.000,410.000,194.000,NA,0.000,0
2026-01-30 21:56:27,1521924,-2645.000,-4078.000,7880.000,-14.000,383.000,196.000,NA,0.000,0
2026-01-30 21:56:27,1521964,-2279.000,-3835.000,7171.000,263.000,-31.000,-101.000,NA,0.000,0
2026-01-30 21:56:27,1522004,-1998.000,-3484.000,6459.000,247.000,-354.000,-455.000,NA,0.000,0
2026-01-30 21:56:27,1522044,-1955.000,-3749.000,7191.000,-170.000,-324.000,-337.000,NA,0.000,0
2026-01-30 21:56:27,1522084,-1962.000,-4381.000,8139.000,-355.000,185.000,122.000,NA,0.000,0
2026-01-30 21:56:27,1522124,-2219.000,-4311.000,7502.000,314.000,285.000,218.000,NA,0.000,0
2026-01-30 21:56:27,1522164,-2282.000,-3289.000,7563.000,107.000,-325.000,-152.000,NA,0.000,0
2026-01-30 21:56:27,1522204,-1819.000,-3751.000,7921.000,4.000,-128.000,-94.000,NA,0.000,0
2026-01-30 21:56:27,1522244,-1515.000,-3348.000,6456.000,400.000,-68.000,-320.000,NA,0.000,0
2026-01-30 21:56:28,1522284,-1433.000,-2871.000,6404.000,-9.000,-231.000,-565.000,NA,0.000,0
2026-01-30 21:56:28,1522324,-1428.000,-3300.000,7495.000,-582.000,169.000,-229.000,NA,0.000,0
2026-01-30 21:56:28,1522364,-1574.000,-4383.000,8066.000,-625.000,760.000,326.000,NA,0.000,0
2026-01-30 21:56:28,1522404,-2132.000,-4312.000,7497.000,57.000,563.000,278.000,NA,0.000,0
2026-01-30 21:56:28,1522444,-2628.000,-3818.000,7873.000,-1.000,-162.000,-58.000,NA,0.000,0
2026-01-30 21:56:28,1522484,-2742.000,-4321.000,8648.000,-476.000,-166.000,178.000,NA,0.000,0
2026-01-30 21:56:28,1522524,-2312.000,-4037.000,6551.000,363.000,-124.000,148.000,NA,0.000,0
2026-01-30 21:56:28,1522564,-2600.000,-3816.000,7781.000,-51.000,-536.000,-215.000,NA,0.000,0
2026-01-30 21:56:28,1522604,-2533.000,-3807.000,7603.000,430.000,-312.000,-143.000,NA,0.000,0
2026-01-30 21:56:28,1522644,-1916.000,-2649.000,6153.000,1070.000,-469.000,-386.000,NA,0.000,0
2026-01-30 21:56:28,1522684,-1353.000,-2386.000,7402.000,-170.000,-342.000,-392.000,NA,0.000,0
2026-01-30 21:56:28,1522724,-1925.000,-3583.000,8438.000,-415.000,576.000,57.000,NA,0.000,0
2026-01-30 21:56:28,1522764,-1911.000,-3048.000,6575.000,898.000,533.000,79.000,NA,0.000,0
2026-01-30 21:56:28,1522804,-1575.000,-2162.000,6504.000,598.000,-86.000,-637.000,NA,0.000,0
2026-01-30 21:56:28,1522844,-1116.000,-1752.000,7590.000,-658.000,-289.000,-845.000,NA,0.000,0
2026-01-30 21:56:28,1522884,-846.000,-2829.000,9010.000,-1371.000,653.000,-269.000,NA,0.000,0
2026-01-30 21:56:28,1522924,-1956.000,-4576.000,7576.000,260.000,1010.000,576.000,NA,0.000,0
2026-01-30 21:56:28,1522964,-2869.000,-3366.000,8651.000,211.000,110.000,76.000,NA,0.000,0
2026-01-30 21:56:28,1523004,-2504.000,-2884.000,8998.000,-443.000,-339.000,-196.000,NA,0.000,0
2026-01-30 21:56:28,1523044,-1619.000,-3195.000,8030.000,-262.000,-116.000,-88.000,NA,0.000,0
2026-01-30 21:56:28,1523084,-1590.000,-3664.000,7850.000,-130.000,21.000,-81.000,NA,0.000,0
2026-01-30 21:56:28,1523124,-2295.000,-3320.000,8260.000,77.000,3.000,-54.000,NA,0.000,0
2026-01-30 21:56:28,1523164,-2049.000,-2923.000,7655.000,305.000,-69.000,-18.000,NA,0.000,0
2026-01-30 21:56:28,1523204,-1620.000,-2863.000,6978.000,196.000,-215.000,-108.000,NA,0.000,0
2026-01-30 21:56:28,1523244,-1606.000,-3108.000,7416.000,-154.000,-230.000,-122.000,NA,0.000,0
2026-01-30 21:56:29,1523284,-1817.000,-3703.000,8041.000,-355.000,35.000,132.000,NA,0.000,0
2026-01-30 21:56:29,1523324,-1840.000,-3230.000,7182.000,364.000,-135.000,-62.000,NA,0.000,0
2026-01-30 21:56:29,1523364,-1503.000,-3006.000,7346.000,126.000,-356.000,-249.000,NA,0.000,0
2026-01-30 21:56:29,1523404,-1379.000,-3279.000,7417.000,-8.000,-241.000,-137.000,NA,0.000,0
2026-01-30 21:56:29,1523444,-1298.000,-3614.000,7800.000,-58.000,118.000,23.000,NA,0.000,0
2026-01-30 21:56:29,1523484,-1648.000,-3422.000,7075.000,284.000,102.000,-13.000,NA,0.000,0
2026-01-30 21:56:29,1523524,-1671.000,-3010.000,7126.000,140.000,-185.000,-73.000,NA,0.000,0
2026-01-30 21:56:29,1523564,-1658.000,-3503.000,7430.000,-222.000,-77.000,125.000,NA,0.000,0
2026-01-30 21:56:29,1523604,-1712.000,-3739.000,7508.000,-80.000,263.000,268.000,NA,0.000,0
2026-01-30 21:56:29,1523646,-2097.000,-3807.000,7315.000,32.000,303.000,242.000,NA,0.000,0
2026-01-30 21:56:29,1523685,-2274.000,-3342.000,7172.000,29.000,-134.000,14.000,NA,0.000,0
2026-01-30 21:56:29,1523724,-1844.000,-3424.000,7546.000,-133.000,-131.000,-26.000,NA,0.000,0
2026-01-30 21:56:29,1523764,-1854.000,-3895.000,7419.000,-133.000,40.000,5.000,NA,0.000,0
2026-01-30 21:56:29,1523804,-2188.000,-3910.000,7601.000,-25.000,35.000,79.000,NA,0.000,0
2026-01-30 21:56:29,1523844,-2322.000,-3772.000,7616.000,103.000,-58.000,97.000,NA,0.000,0
2026-01-30 21:56:29,1523886,-1941.000,-3640.000,7295.000,238.000,-213.000,-42.000,NA,0.000,0
2026-01-30 21:56:29,1523924,-1467.000,-3761.000,7453.000,111.000,-195.000,-179.000,NA,0.000,0
2026-01-30 21:56:29,1523964,-1422.000,-3866.000,7255.000,267.000,-92.000,-265.000,NA,0.000,0
2026-01-30 21:56:29,1524004,-1342.000,-3615.000,7339.000,224.000,-62.000,-255.000,NA,0.000,0
2026-01-30 21:56:29,1524044,-1248.000,-3489.000,7342.000,209.000,-17.000,-150.000,NA,0.000,0
2026-01-30 21:56:29,1524084,-1244.000,-2794.000,7169.000,167.000,6.000,-22.000,NA,0.000,0
2026-01-30 21:56:29,1524124,-1349.000,-2603.000,7321.000,-14.000,146.000,60.000,NA,0.000,0
2026-01-30 21:56:29,1524164,-1554.000,-2681.000,7798.000,-208.000,374.000,229.000,NA,0.000,0
2026-01-30 21:56:29,1524204,-1814.000,-3080.000,7861.000,-200.000,554.000,317.000,NA,0.000,0
2026-01-30 21:56:29,1524244,-1912.000,-3113.000,7727.000,-10.000,445.000,97.000,NA,0.000,0
2026-01-30 21:56:30,1524284,-1807.000,-3038.000,8083.000,-275.000,235.000,-213.000,NA,0.000,0
2026-01-30 21:56:30,1524324,-1622.000,-3241.000,8434.000,-286.000,279.000,-294.000,NA,0.000,0
2026-01-30 21:56:30,1524364,-1648.000,-2949.000,7913.000,51.000,370.000,-62.000,NA,0.000,0
2026-01-30 21:56:30,1524404,-1928.000,-3286.000,8222.000,-281.000,363.000,154.000,NA,0.000,0
2026-01-30 21:56:30,1524444,-2235.000,-2949.000,8475.000,-37.000,140.000,185.000,NA,0.000,0
2026-01-30 21:56:30,1524484,-2027.000,-2961.000,8402.000,-61.000,-38.000,80.000,NA,0.000,0
2026-01-30 21:56:30,1524524,-1846.000,-2634.000,7891.000,266.000,-229.000,-109.000,NA,0.000,0
2026-01-30 21:56:30,1524564,-1700.000,-2291.000,7838.000,212.000,-302.000,-270.000,NA,0.000,0
2026-01-30 21:56:30,1524604,-1506.000,-2088.000,7923.000,142.000,-195.000,-276.000,NA,0.000,0
2026-01-30 21:56:30,1524644,-1415.000,-2057.000,7482.000,141.000,-6.000,-244.000,NA,0.000,0
2026-01-30 21:56:30,1524684,-1304.000,-1973.000,7740.000,40.000,81.000,-269.000,NA,0.000,0
2026-01-30 21:56:30,1524724,-1295.000,-2541.000,8310.000,-236.000,177.000,-191.000,NA,0.000,0
2026-01-30 21:56:30,1524764,-1331.000,-3141.000,7951.000,6.000,100.000,-43.000,NA,0.000,0
2026-01-30 21:56:30,1524804,-1293.000,-2946.000,7677.000,108.000,-164.000,-58.000,NA,0.000,0
2026-01-30 21:56:30,1524844,-1389.000,-2947.000,8028.000,-284.000,-274.000,-40.000,NA,0.000,0
2026-01-30 21:56:30,1524884,-1323.000,-3158.000,7806.000,-204.000,-205.000,151.000,NA,0.000,0
2026-01-30 21:56:30,1524924,-1468.000,-3222.000,7527.000,-125.000,-228.000,250.000,NA,0.000,0
2026-01-30 21:56:30,1524964,-1750.000,-3468.000,7749.000,-221.000,-363.000,298.000,NA,0.000,0
2026-01-30 21:56:30,1525004,-1893.000,-3666.000,7928.000,-212.000,-363.000,333.000,NA,0.000,0
2026-01-30 21:56:30,1525044,-1838.000,-3420.000,7514.000,66.000,-358.000,233.000,NA,0.000,0
2026-01-30 21:56:30,1525084,-1925.000,-3579.000,7723.000,-131.000,-312.000,107.000,NA,0.000,0
2026-01-30 21:56:30,1525124,-1856.000,-3316.000,7398.000,281.000,-256.000,-45.000,NA,0.000,0
2026-01-30 21:56:30,1525164,-1793.000,-3099.000,7417.000,145.000,-311.000,-172.000,NA,0.000,0
2026-01-30 21:56:30,1525204,-1796.000,-3603.000,7511.000,-94.000,70.000,80.000,NA,0.000,0
2026-01-30 21:56:30,1525244,-1846.000,-3116.000,7386.000,209.000,74.000,14.000,NA,0.000,0
2026-01-30 21:56:31,1525284,-1820.000,-2951.000,7788.000,51.000,173.000,-64.000,NA,0.000,0
2026-01-30 21:56:31,1525324,-1574.000,-3075.000,7447.000,137.000,236.000,-123.000,NA,0.000,0
2026-01-30 21:56:31,1525364,-1526.000,-3499.000,7606.000,-103.000,186.000,-201.000,NA,0.000,0
2026-01-30 21:56:31,1525404,-1697.000,-3709.000,7523.000,-55.000,127.000,-185.000,NA,0.000,0
2026-01-30 21:56:31,1525444,-1965.000,-3464.000,7268.000,-98.000,1.000,-119.000,NA,0.000,0
2026-01-30 21:56:31,1525484,-2014.000,-3505.000,7886.000,-386.000,81.000,150.000,NA,0.000,0
2026-01-30 21:56:31,1525524,-2262.000,-3767.000,7762.000,-155.000,191.000,324.000,NA,0.000,0
2026-01-30 21:56:31,1525564,-2342.000,-3904.000,7919.000,-111.000,3.000,196.000,NA,0.000,0
2026-01-30 21:56:31,1525604,-2411.000,-3935.000,7718.000,131.000,-363.000,-130.000,NA,0.000,0
2026-01-30 21:56:31,1525646,-2174.000,-3875.000,7586.000,178.000,-439.000,-167.000,NA,0.000,0
2026-01-30 21:56:31,1525685,-1997.000,-3601.000,7261.000,270.000,-380.000,-198.000,NA,0.000,0
2026-01-30 21:56:31,1525724,-1808.000,-3175.000,7259.000,327.000,-277.000,-202.000,NA,0.000,0
2026-01-30 21:56:31,1525764,-1723.000,-3228.000,7047.000,206.000,-125.000,-164.000,NA,0.000,0
2026-01-30 21:56:31,1525804,-1530.000,-3221.000,7123.000,136.000,-78.000,-196.000,NA,0.000,0
2026-01-30 21:56:31,1525844,-1401.000,-3479.000,7718.000,-164.000,64.000,-107.000,NA,0.000,0
2026-01-30 21:56:31,1525887,-1544.000,-3348.000,7123.000,185.000,192.000,-82.000,NA,0.000,0
2026-01-30 21:56:31,1525924,-1571.000,-3226.000,7091.000,27.000,86.000,-97.000,NA,0.000,0
2026-01-30 21:56:31,1525964,-1537.000,-3683.000,7784.000,-210.000,103.000,-22.000,NA,0.000,0
2026-01-30 21:56:31,1526004,-1647.000,-4003.000,7661.000,-98.000,138.000,55.000,NA,0.000,0
2026-01-30 21:56:31,1526044,-1806.000,-3758.000,7515.000,-35.000,-27.000,13.000,NA,0.000,0
2026-01-30 21:56:31,1526084,-1895.000,-3704.000,7903.000,-135.000,-63.000,138.000,NA,0.000,0
2026-01-30 21:56:31,1526124,-1859.000,-4008.000,7744.000,-108.000,2.000,203.000,NA,0.000,0
2026-01-30 21:56:31,1526164,-1812.000,-3698.000,7717.000,140.000,-25.000,101.000,NA,0.000,0
2026-01-30 21:56:31,1526204,-1828.000,-3456.000,7028.000,148.000,-260.000,-138.000,NA,0.000,0
2026-01-30 21:56:31,1526244,-1664.000,-3556.000,7544.000,-83.000,-256.000,-29.000,NA,0.000,0
2026-01-30 21:56:32,1526284,-1670.000,-3583.000,7141.000,44.000,-44.000,74.000,NA,0.000,0
2026-01-30 21:56:32,1526324,-1647.000,-3648.000,7392.000,-64.000,82.000,146.000,NA,0.000,0
2026-01-30 21:56:32,1526364,-1698.000,-4009.000,7532.000,89.000,90.000,55.000,NA,0.000,0
2026-01-30 21:56:32,1526404,-1413.000,-3666.000,7136.000,193.000,-189.000,-241.000,NA,0.000,0
2026-01-30 21:56:32,1526444,-1186.000,-3863.000,7609.000,-225.000,-239.000,-273.000,NA,0.000,0
2026-01-30 21:56:32,1526484,-1228.000,-4308.000,7828.000,-190.000,30.000,36.000,NA,0.000,0
2026-01-30 21:56:32,1526524,-1393.000,-4000.000,7197.000,192.000,48.000,115.000,NA,0.000,0
2026-01-30 21:56:32,1526564,-1546.000,-4031.000,7619.000,-138.000,-14.000,184.000,NA,0.000,0
2026-01-30 21:56:32,1526604,-1444.000,-3848.000,7691.000,28.000,-14.000,191.000,NA,0.000,0
2026-01-30 21:56:32,1526644,-1275.000,-3896.000,7128.000,-2.000,-57.000,57.000,NA,0.000,0
2026-01-30 21:56:32,1526684,-1323.000,-3730.000,7174.000,-78.000,-30.000,13.000,NA,0.000,0
2026-01-30 21:56:32,1526724,-1813.000,-3919.000,7587.000,-183.000,67.000,339.000,NA,0.000,0
2026-01-30 21:56:32,1526764,-1935.000,-3701.000,6955.000,136.000,16.000,269.000,NA,0.000,0
2026-01-30 21:56:32,1526804,-1925.000,-3655.000,7510.000,-93.000,-32.000,246.000,NA,0.000,0
2026-01-30 21:56:32,1526844,-1897.000,-3841.000,7543.000,95.000,95.000,156.000,NA,0.000,0
2026-01-30 21:56:32,1526884,-1739.000,-3887.000,7743.000,71.000,26.000,24.000,NA,0.000,0
2026-01-30 21:56:32,1526924,-1739.000,-3767.000,7439.000,272.000,39.000,-83.000,NA,0.000,0
2026-01-30 21:56:32,1526964,-1661.000,-3280.000,6657.000,330.000,-216.000,-200.000,NA,0.000,0
2026-01-30 21:56:32,1527004,-1363.000,-3129.000,7256.000,-98.000,-247.000,-119.000,NA,0.000,0
2026-01-30 21:56:32,1527044,-1339.000,-3461.000,7296.000,-55.000,140.000,81.000,NA,0.000,0
2026-01-30 21:56:32,1527084,-1606.000,-3750.000,7461.000,-80.000,327.000,247.000,NA,0.000,0
2026-01-30 21:56:32,1527124,-1952.000,-3861.000,7698.000,-11.000,119.000,86.000,NA,0.000,0
2026-01-30 21:56:32,1527164,-1650.000,-3493.000,7738.000,-15.000,-100.000,-77.000,NA,0.000,0
2026-01-30 21:56:32,1527204,-1507.000,-3630.000,7441.000,-17.000,-36.000,-98.000,NA,0.000,0
2026-01-30 21:56:32,1527244,-1665.000,-3690.000,7559.000,-72.000,-2.000,-17.000,NA,0.000,0
2026-01-30 21:56:33,1527284,-1871.000,-3822.000,7863.000,-195.000,46.000,131.000,NA,0.000,0
2026-01-30 21:56:33,1527324,-1990.000,-3457.000,7450.000,116.000,31.000,91.000,NA,0.000,0
2026-01-30 21:56:33,1527364,-1834.000,-3132.000,7390.000,-104.000,-99.000,4.000,NA,0.000,0
2026-01-30 21:56:33,1527404,-1796.000,-3454.000,8244.000,-307.000,95.000,50.000,NA,0.000,0
2026-01-30 21:56:33,1527444,-1758.000,-3371.000,7738.000,124.000,168.000,23.000,NA,0.000,0
2026-01-30 21:56:33,1527484,-1877.000,-3008.000,7572.000,244.000,3.000,-141.000,NA,0.000,0
2026-01-30 21:56:33,1527524,-1706.000,-3224.000,7776.000,-104.000,-33.000,-87.000,NA,0.000,0
2026-01-30 21:56:33,1527564,-1622.000,-3470.000,7747.000,-39.000,142.000,-24.000,NA,0.000,0
2026-01-30 21:56:33,1527604,-1756.000,-3230.000,7793.000,65.000,128.000,-91.000,NA,0.000,0
2026-01-30 21:56:33,1527644,-1595.000,-2866.000,7909.000,147.000,-50.000,-235.000,NA,0.000,0
2026-01-30 21:56:33,1527686,-1307.000,-2785.000,7808.000,152.000,-77.000,-237.000,NA,0.000,0
2026-01-30 21:56:33,1527725,-1175.000,-2839.000,7699.000,63.000,-36.000,-158.000,NA,0.000,0
2026-01-30 21:56:33,1527764,-1343.000,-3099.000,7960.000,-30.000,112.000,0.000,NA,0.000,0
2026-01-30 21:56:33,1527804,-1565.000,-2890.000,7701.000,249.000,67.000,58.000,NA,0.000,0
2026-01-30 21:56:33,1527844,-1494.000,-2408.000,7072.000,269.000,-179.000,-74.000,NA,0.000,0
2026-01-30 21:56:33,1527886,-1441.000,-3249.000,7906.000,-400.000,31.000,88.000,NA,0.000,0
2026-01-30 21:56:33,1527924,-1552.000,-3526.000,7758.000,-100.000,248.000,211.000,NA,0.000,0
2026-01-30 21:56:33,1527964,-1858.000,-3356.000,7514.000,-37.000,16.000,105.000,NA,0.000,0
2026-01-30 21:56:33,1528004,-1902.000,-3166.000,7696.000,-97.000,-193.000,23.000,NA,0.000,0
2026-01-30 21:56:33,1528044,-1540.000,-3205.000,7817.000,-179.000,-189.000,-32.000,NA,0.000,0
2026-01-30 21:56:33,1528084,-1467.000,-3680.000,7920.000,-282.000,-42.000,-13.000,NA,0.000,0
2026-01-30 21:56:33,1528124,-1883.000,-4123.000,8128.000,-112.000,34.000,138.000,NA,0.000,0
2026-01-30 21:56:33,1528164,-2105.000,-3364.000,7364.000,267.000,-220.000,106.000,NA,0.000,0
2026-01-30 21:56:33,1528204,-1985.000,-3231.000,7440.000,-69.000,-364.000,5.000,NA,0.000,0
2026-01-30 21:56:33,1528244,-1563.000,-3426.000,7640.000,-172.000,-135.000,-21.000,NA,0.000,0
2026-01-30 21:56:34,1528284,-1638.000,-3482.000,7428.000,114.000,-30.000,-189.000,NA,0.000,0
2026-01-30 21:56:34,1528324,-1908.000,-3718.000,7821.000,2.000,-72.000,-108.000,NA,0.000,0
2026-01-30 21:56:34,1528364,-1752.000,-3310.000,7519.000,204.000,-107.000,-44.000,NA,0.000,0
2026-01-30 21:56:34,1528404,-1463.000,-3266.000,7545.000,97.000,-55.000,-84.000,NA,0.000,0
2026-01-30 21:56:34,1528444,-1540.000,-3168.000,7243.000,187.000,-30.000,-184.000,NA,0.000,0
2026-01-30 21:56:34,1528484,-1471.000,-3213.000,7702.000,-28.000,-89.000,-190.000,NA,0.000,0
2026-01-30 21:56:34,1528524,-1413.000,-3781.000,8152.000,-154.000,126.000,49.000,NA,0.000,0
2026-01-30 21:56:34,1528564,-1613.000,-3520.000,7404.000,304.000,81.000,46.000,NA,0.000,0
2026-01-30 21:56:34,1528604,-1709.000,-2910.000,7228.000,141.000,-226.000,-116.000,NA,0.000,0
2026-01-30 21:56:34,1528644,-1428.000,-3008.000,7576.000,-196.000,-73.000,3.000,NA,0.000,0
2026-01-30 21:56:34,1528684,-1608.000,-3664.000,7768.000,-224.000,223.000,186.000,NA,0.000,0
2026-01-30 21:56:34,1528724,-2038.000,-3524.000,7637.000,90.000,165.000,139.000,NA,0.000,0
2026-01-30 21:56:34,1528764,-2179.000,-3339.000,7757.000,-19.000,-119.000,21.000,NA,0.000,0
2026-01-30 21:56:34,1528804,-1696.000,-3247.000,7802.000,-22.000,-131.000,-77.000,NA,0.000,0
2026-01-30 21:56:34,1528844,-1452.000,-3279.000,7605.000,69.000,-42.000,-188.000,NA,0.000,0
2026-01-30 21:56:34,1528884,-1585.000,-3401.000,7832.000,103.000,44.000,-159.000,NA,0.000,0
2026-01-30 21:56:34,1528924,-1658.000,-3275.000,7718.000,177.000,-57.000,-104.000,NA,0.000,0
2026-01-30 21:56:34,1528964,-1556.000,-2916.000,7832.000,0.000,-93.000,-83.000,NA,0.000,0
2026-01-30 21:56:34,1529004,-1321.000,-2627.000,7746.000,36.000,45.000,-49.000,NA,0.000,0
2026-01-30 21:56:34,1529044,-1369.000,-2532.000,7510.000,167.000,98.000,-138.000,NA,0.000,0
2026-01-30 21:56:34,1529084,-1187.000,-2474.000,7915.000,-38.000,94.000,-234.000,NA,0.000,0
2026-01-30 21:56:34,1529124,-1182.000,-2649.000,8046.000,-112.000,248.000,-149.000,NA,0.000,0
2026-01-30 21:56:34,1529164,-1287.000,-3052.000,7885.000,-33.000,341.000,20.000,NA,0.000,0
2026-01-30 21:56:34,1529204,-1467.000,-2992.000,7887.000,191.000,170.000,70.000,NA,0.000,0
2026-01-30 21:56:34,1529244,-1504.000,-2920.000,7705.000,11.000,-114.000,35.000,NA,0.000,0
2026-01-30 21:56:35,1529284,-1372.000,-3125.000,7895.000,-193.000,-143.000,59.000,NA,0.000,0
2026-01-30 21:56:35,1529324,-1425.000,-3235.000,7882.000,-84.000,-62.000,112.000,NA,0.000,0
2026-01-30 21:56:35,1529364,-1570.000,-3154.000,7830.000,21.000,-83.000,146.000,NA,0.000,0
2026-01-30 21:56:35,1529404,-1637.000,-3268.000,7703.000,53.000,-209.000,143.000,NA,0.000,0
2026-01-30 21:56:35,1529444,-1532.000,-3080.000,7270.000,146.000,-269.000,31.000,NA,0.000,0
2026-01-30 21:56:35,1529484,-1490.000,-3019.000,7199.000,31.000,-246.000,-42.000,NA,0.000,0
2026-01-30 21:56:35,1529524,-1447.000,-3274.000,7593.000,-122.000,-49.000,39.000,NA,0.000,0
2026-01-30 21:56:35,1529564,-1497.000,-3260.000,7574.000,43.000,123.000,93.000,NA,0.000,0
2026-01-30 21:56:35,1529604,-1584.000,-3220.000,7484.000,34.000,65.000,27.000,NA,0.000,0
2026-01-30 21:56:35,1529644,-1641.000,-3142.000,7510.000,-13.000,-51.000,-6.000,NA,0.000,0
2026-01-30 21:56:35,1529686,-1561.000,-3331.000,7619.000,-77.000,-23.000,75.000,NA,0.000,0
2026-01-30 21:56:35,1529725,-1648.000,-3625.000,7674.000,-27.000,94.000,144.000,NA,0.000,0
2026-01-30 21:56:35,1529764,-1773.000,-3391.000,7717.000,50.000,56.000,14.000,NA,0.000,0
2026-01-30 21:56:35,1529804,-1485.000,-3232.000,7748.000,58.000,-36.000,-120.000,NA,0.000,0
2026-01-30 21:56:35,1529844,-1269.000,-3334.000,7735.000,14.000,26.000,-76.000,NA,0.000,0
2026-01-30 21:56:35,1529886,-1412.000,-3550.000,7789.000,25.000,133.000,37.000,NA,0.000,0
2026-01-30 21:56:35,1529924,-1671.000,-3374.000,7481.000,106.000,9.000,40.000,NA,0.000,0
2026-01-30 21:56:35,1529964,-1695.000,-3283.000,7570.000,-113.000,-86.000,59.000,NA,0.000,0
2026-01-30 21:56:35,1530004,-1641.000,-3353.000,7685.000,-113.000,38.000,100.000,NA,0.000,0
2026-01-30 21:56:35,1530044,-1617.000,-3304.000,7665.000,-57.000,122.000,51.000,NA,0.000,0
2026-01-30 21:56:35,1530084,-1710.000,-3536.000,7838.000,-71.000,128.000,11.000,NA,0.000,0
2026-01-30 21:56:35,1530124,-1718.000,-3518.000,7780.000,-11.000,-1.000,-14.000,NA,0.000,0
2026-01-30 21:56:35,1530164,-1682.000,-3512.000,7564.000,31.000,-62.000,18.000,NA,0.000,0
2026-01-30 21:56:35,1530204,-1709.000,-3417.000,7409.000,-43.000,-87.000,-26.000,NA,0.000,0
2026-01-30 21:56:35,1530244,-1655.000,-3286.000,7571.000,-46.000,-44.000,15.000,NA,0.000,0
2026-01-30 21:56:36,1530284,-1736.000,-3525.000,7703.000,-111.000,19.000,85.000,NA,0.000,0
2026-01-30 21:56:36,1530324,-1782.000,-3629.000,7823.000,4.000,29.000,97.000,NA,0.000,0
2026-01-30 21:56:36,1530364,-1854.000,-3348.000,7324.000,116.000,-205.000,-70.000,NA,0.000,0
2026-01-30 21:56:36,1530404,-1722.000,-3602.000,7815.000,-160.000,-222.000,-27.000,NA,0.000,0
2026-01-30 21:56:36,1530444,-1582.000,-3557.000,7607.000,174.000,10.000,16.000,NA,0.000,0
2026-01-30 21:56:36,1530484,-1582.000,-3391.000,7046.000,104.000,-92.000,-93.000,NA,0.000,0
2026-01-30 21:56:36,1530524,-1500.000,-3906.000,8042.000,-197.000,3.000,33.000,NA,0.000,0
2026-01-30 21:56:36,1530564,-1352.000,-3468.000,7250.000,246.000,-29.000,-61.000,NA,0.000,0
2026-01-30 21:56:36,1530604,-1405.000,-3428.000,7515.000,-76.000,-126.000,-125.000,NA,0.000,0
2026-01-30 21:56:36,1530644,-1630.000,-3601.000,7574.000,-98.000,-10.000,92.000,NA,0.000,0
2026-01-30 21:56:36,1530684,-1630.000,-3576.000,7511.000,-108.000,116.000,208.000,NA,0.000,0
2026-01-30 21:56:36,1530724,-1830.000,-3705.000,7668.000,-72.000,180.000,202.000,NA,0.000,0
2026-01-30 21:56:36,1530764,-1771.000,-3604.000,7545.000,15.000,65.000,20.000,NA,0.000,0
2026-01-30 21:56:36,1530804,-1608.000,-3723.000,7658.000,-28.000,-25.000,-103.000,NA,0.000,0
2026-01-30 21:56:36,1530844,-1586.000,-3730.000,7753.000,22.000,92.000,-61.000,NA,0.000,0
2026-01-30 21:56:36,1530884,-1719.000,-3713.000,7704.000,59.000,176.000,46.000,NA,0.000,0
2026-01-30 21:56:36,1530924,-1970.000,-3303.000,7395.000,157.000,72.000,113.000,NA,0.000,0
2026-01-30 21:56:36,1530964,-1874.000,-2843.000,7210.000,110.000,-36.000,10.000,NA,0.000,0
2026-01-30 21:56:36,1531004,-1825.000,-2805.000,7911.000,-183.000,115.000,-21.000,NA,0.000,0
2026-01-30 21:56:36,1531044,-1917.000,-3065.000,7775.000,-9.000,299.000,35.000,NA,0.000,0
2026-01-30 21:56:36,1531084,-2177.000,-3020.000,7659.000,56.000,233.000,-11.000,NA,0.000,0
2026-01-30 21:56:36,1531124,-2373.000,-3232.000,8069.000,-194.000,173.000,-23.000,NA,0.000,0
2026-01-30 21:56:36,1531164,-2267.000,-3411.000,8075.000,-62.000,86.000,-38.000,NA,0.000,0
2026-01-30 21:56:36,1531204,-1907.000,-3046.000,7858.000,130.000,-75.000,-312.000,NA,0.000,0
2026-01-30 21:56:36,1531244,-1465.000,-3003.000,7749.000,62.000,-185.000,-456.000,NA,0.000,0
2026-01-30 21:56:37,1531284,-1336.000,-3337.000,7673.000,105.000,-208.000,-381.000,NA,0.000,0
2026-01-30 21:56:37,1531324,-1367.000,-3115.000,8040.000,68.000,-280.000,-73.000,NA,0.000,0
2026-01-30 21:56:37,1531364,-1547.000,-3369.000,7523.000,409.000,-215.000,196.000,NA,0.000,0
2026-01-30 21:56:37,1531404,-1732.000,-2336.000,6546.000,699.000,-595.000,-19.000,NA,0.000,0
2026-01-30 21:56:37,1531444,-1253.000,-2350.000,8343.000,-408.000,-506.000,-194.000,NA,0.000,0
2026-01-30 21:56:37,1531484,-1248.000,-3218.000,7932.000,-68.000,202.000,55.000,NA,0.000,0
2026-01-30 21:56:37,1531524,-1107.000,-3204.000,6882.000,451.000,141.000,-91.000,NA,0.000,0
2026-01-30 21:56:37,1531564,-1226.000,-2877.000,6993.000,252.000,-183.000,-433.000,NA,0.000,0
2026-01-30 21:56:37,1531604,-1027.000,-2799.000,7360.000,-184.000,-380.000,-429.000,NA,0.000,0
2026-01-30 21:56:37,1531644,-581.000,-3081.000,7674.000,-410.000,14.000,-108.000,NA,0.000,0
2026-01-30 21:56:37,1531686,-1151.000,-3268.000,7934.000,-504.000,362.000,308.000,NA,0.000,0
2026-01-30 21:56:37,1531725,-1722.000,-4503.000,9508.000,-669.000,696.000,930.000,NA,0.000,0
2026-01-30 21:56:37,1531764,-2284.000,-3645.000,7057.000,748.000,156.000,559.000,NA,0.000,0
2026-01-30 21:56:37,1531804,-2309.000,-3178.000,7870.000,-322.000,-495.000,-104.000,NA,0.000,0
2026-01-30 21:56:37,1531844,-2148.000,-4074.000,8569.000,-607.000,-112.000,60.000,NA,0.000,0
2026-01-30 21:56:37,1531886,-1975.000,-3343.000,6609.000,508.000,-70.000,104.000,NA,0.000,0
2026-01-30 21:56:37,1531924,-2045.000,-3300.000,8438.000,-189.000,-48.000,69.000,NA,0.000,0
2026-01-30 21:56:37,1531964,-2556.000,-3806.000,8222.000,3.000,247.000,224.000,NA,0.000,0
2026-01-30 21:56:37,1532004,-2056.000,-3236.000,6960.000,650.000,-48.000,-32.000,NA,0.000,0
2026-01-30 21:56:37,1532044,-1402.000,-3305.000,7715.000,114.000,-345.000,-434.000,NA,0.000,0
2026-01-30 21:56:37,1532084,-1290.000,-3316.000,7064.000,219.000,-307.000,-428.000,NA,0.000,0
2026-01-30 21:56:37,1532124,-1145.000,-3048.000,7117.000,100.000,-94.000,-125.000,NA,0.000,0
2026-01-30 21:56:37,1532164,-1390.000,-3074.000,6888.000,132.000,137.000,180.000,NA,0.000,0
2026-01-30 21:56:37,1532204,-1531.000,-3388.000,7781.000,-261.000,179.000,319.000,NA,0.000,0
2026-01-30 21:56:37,1532244,-1600.000,-3870.000,8188.000,-161.000,240.000,211.000,NA,0.000,0
2026-01-30 21:56:38,1532284,-1607.000,-3302.000,6998.000,288.000,-51.000,-177.000,NA,0.000,0
2026-01-30 21:56:38,1532324,-1454.000,-3407.000,7844.000,-294.000,-118.000,-196.000,NA,0.000,0
2026-01-30 21:56:38,1532364,-1401.000,-3837.000,7952.000,-173.000,195.000,149.000,NA,0.000,0
2026-01-30 21:56:38,1532404,-1419.000,-3579.000,7417.000,143.000,244.000,118.000,NA,0.000,0
2026-01-30 21:56:38,1532444,-1594.000,-3278.000,7323.000,-138.000,-2.000,-75.000,NA,0.000,0
2026-01-30 21:56:38,1532484,-1312.000,-3676.000,8102.000,-435.000,96.000,158.000,NA,0.000,0
2026-01-30 21:56:38,1532524,-1640.000,-4160.000,8048.000,-224.000,391.000,389.000,NA,0.000,0
2026-01-30 21:56:38,1532564,-2164.000,-3792.000,7481.000,122.000,200.000,289.000,NA,0.000,0
2026-01-30 21:56:38,1532604,-2260.000,-3375.000,7745.000,-16.000,-124.000,119.000,NA,0.000,0
2026-01-30 21:56:38,1532644,-1899.000,-3389.000,7582.000,-113.000,-113.000,9.000,NA,0.000,0
2026-01-30 21:56:38,1532684,-1646.000,-3928.000,7758.000,-120.000,144.000,14.000,NA,0.000,0
2026-01-30 21:56:38,1532724,-2050.000,-3826.000,7693.000,203.000,161.000,-17.000,NA,0.000,0
2026-01-30 21:56:38,1532764,-2167.000,-3469.000,7465.000,222.000,-74.000,-42.000,NA,0.000,0
2026-01-30 21:56:38,1532804,-1894.000,-3139.000,7238.000,153.000,-179.000,-39.000,NA,0.000,0
2026-01-30 21:56:38,1532844,-1761.000,-2938.000,7200.000,40.000,-6.000,-7.000,NA,0.000,0
2026-01-30 21:56:38,1532884,-2060.000,-3348.000,7649.000,-133.000,168.000,77.000,NA,0.000,0
2026-01-30 21:56:38,1532924,-2024.000,-3287.000,7552.000,71.000,112.000,25.000,NA,0.000,0
2026-01-30 21:56:38,1532964,-1723.000,-3017.000,7509.000,162.000,-28.000,-198.000,NA,0.000,0
2026-01-30 21:56:38,1533004,-1490.000,-2979.000,7630.000,67.000,-48.000,-273.000,NA,0.000,0
2026-01-30 21:56:38,1533044,-1506.000,-3193.000,7858.000,1.000,75.000,-190.000,NA,0.000,0
2026-01-30 21:56:38,1533084,-1586.000,-3390.000,7777.000,25.000,143.000,-91.000,NA,0.000,0
2026-01-30 21:56:38,1533124,-1731.000,-3142.000,7793.000,57.000,39.000,-105.000,NA,0.000,0
2026-01-30 21:56:38,1533164,-1600.000,-2746.000,7792.000,27.000,-74.000,-133.000,NA,0.000,0
2026-01-30 21:56:38,1533204,-1379.000,-2784.000,7543.000,-13.000,73.000,-20.000,NA,0.000,0
2026-01-30 21:56:38,1533244,-1572.000,-3248.000,7968.000,-107.000,217.000,67.000,NA,0.000,0
2026-01-30 21:56:39,1533284,-1854.000,-3316.000,7742.000,78.000,93.000,30.000,NA,0.000,0
2026-01-30 21:56:39,1533324,-1819.000,-3365.000,7799.000,-83.000,-83.000,5.000,NA,0.000,0
2026-01-30 21:56:39,1533364,-1766.000,-3469.000,7828.000,-65.000,-66.000,56.000,NA,0.000,0
2026-01-30 21:56:39,1533404,-1854.000,-3317.000,7834.000,-22.000,-52.000,80.000,NA,0.000,0
2026-01-30 21:56:39,1533444,-1920.000,-3243.000,7725.000,4.000,-72.000,74.000,NA,0.000,0
2026-01-30 21:56:39,1533484,-1837.000,-3078.000,7364.000,119.000,-128.000,5.000,NA,0.000,0
2026-01-30 21:56:39,1533524,-1753.000,-3083.000,7333.000,-18.000,-144.000,-30.000,NA,0.000,0
2026-01-30 21:56:39,1533564,-1833.000,-3365.000,7743.000,-289.000,18.000,-4.000,NA,0.000,0
2026-01-30 21:56:39,1533604,-2098.000,-3539.000,7505.000,73.000,203.000,66.000,NA,0.000,0
2026-01-30 21:56:39,1533644,-2100.000,-3526.000,7458.000,-28.000,-53.000,-53.000,NA,0.000,0
2026-01-30 21:56:39,1533685,-1877.000,-3592.000,7473.000,-92.000,-181.000,-109.000,NA,0.000,0
2026-01-30 21:56:39,1533724,-1684.000,-3664.000,7397.000,-132.000,-115.000,-93.000,NA,0.000,0
2026-01-30 21:56:39,1533765,-1840.000,-3992.000,7825.000,-204.000,23.000,8.000,NA,0.000,0
2026-01-30 21:56:39,1533804,-1985.000,-3983.000,7605.000,1.000,-32.000,51.000,NA,0.000,0
2026-01-30 21:56:39,1533844,-1882.000,-3614.000,7389.000,16.000,-271.000,-15.000,NA,0.000,0
2026-01-30 21:56:39,1533889,-1765.000,-3793.000,7518.000,-90.000,-218.000,-17.000,NA,0.000,0
2026-01-30 21:56:39,1533927,-1789.000,-3823.000,7290.000,-27.000,-134.000,-38.000,NA,0.000,0
2026-01-30 21:56:39,1533964,-1866.000,-3937.000,7463.000,-64.000,-95.000,-37.000,NA,0.000,0
2026-01-30 21:56:39,1534004,-1935.000,-3828.000,7401.000,44.000,-119.000,-65.000,NA,0.000,0
2026-01-30 21:56:39,1534044,-1822.000,-3797.000,7313.000,27.000,-174.000,-118.000,NA,0.000,0
2026-01-30 21:56:39,1534084,-1729.000,-3822.000,7524.000,27.000,-94.000,-99.000,NA,0.000,0
2026-01-30 21:56:39,1534124,-1717.000,-3731.000,7296.000,147.000,-92.000,-86.000,NA,0.000,0
2026-01-30 21:56:39,1534164,-1698.000,-3808.000,7548.000,44.000,-124.000,-69.000,NA,0.000,0
2026-01-30 21:56:39,1534204,-1709.000,-3657.000,7328.000,103.000,-123.000,-42.000,NA,0.000,0
2026-01-30 21:56:39,1534244,-1700.000,-3570.000,7117.000,144.000,-163.000,-109.000,NA,0.000,0
2026-01-30 21:56:40,1534284,-1658.000,-3448.000,7323.000,23.000,-151.000,-104.000,NA,0.000,0
2026-01-30 21:56:40,1534324,-1564.000,-3484.000,7296.000,31.000,-69.000,-84.000,NA,0.000,0
2026-01-30 21:56:40,1534364,-1577.000,-3846.000,7506.000,-76.000,23.000,-19.000,NA,0.000,0
2026-01-30 21:56:40,1534404,-1721.000,-3907.000,7767.000,-46.000,30.000,-13.000,NA,0.000,0
2026-01-30 21:56:40,1534444,-1676.000,-3652.000,7295.000,106.000,-106.000,-80.000,NA,0.000,0
2026-01-30 21:56:40,1534484,-1565.000,-3638.000,7322.000,-72.000,-206.000,-142.000,NA,0.000,0
2026-01-30 21:56:40,1534524,-1437.000,-3704.000,7545.000,-113.000,-145.000,-57.000,NA,0.000,0
2026-01-30 21:56:40,1534564,-1551.000,-3947.000,7631.000,-46.000,25.000,83.000,NA,0.000,0
2026-01-30 21:56:40,1534604,-1793.000,-3838.000,7482.000,63.000,3.000,54.000,NA,0.000,0
2026-01-30 21:56:40,1534644,-1921.000,-3545.000,7251.000,66.000,-175.000,-40.000,NA,0.000,0
2026-01-30 21:56:40,1534684,-1678.000,-3543.000,7785.000,-49.000,-134.000,5.000,NA,0.000,0
2026-01-30 21:56:40,1534724,-1664.000,-3647.000,7092.000,120.000,39.000,-86.000,NA,0.000,0
2026-01-30 21:56:40,1534764,-1721.000,-3565.000,7530.000,-50.000,-113.000,-171.000,NA,0.000,0
2026-01-30 21:56:40,1534804,-1677.000,-3853.000,7798.000,-93.000,30.000,4.000,NA,0.000,0
2026-01-30 21:56:40,1534844,-1577.000,-3812.000,7379.000,124.000,86.000,31.000,NA,0.000,0
2026-01-30 21:56:40,1534884,-1617.000,-3552.000,7436.000,68.000,-86.000,-92.000,NA,0.000,0
2026-01-30 21:56:40,1534924,-1589.000,-3589.000,7530.000,-14.000,-76.000,-40.000,NA,0.000,0
2026-01-30 21:56:40,1534964,-1476.000,-3714.000,7304.000,70.000,53.000,0.000,NA,0.000,0
2026-01-30 21:56:40,1535004,-1660.000,-3697.000,7405.000,15.000,71.000,17.000,NA,0.000,0
2026-01-30 21:56:40,1535044,-1884.000,-3680.000,7698.000,-41.000,80.000,69.000,NA,0.000,0
2026-01-30 21:56:40,1535084,-1800.000,-3519.000,7442.000,72.000,89.000,64.000,NA,0.000,0
2026-01-30 21:56:40,1535124,-1684.000,-3644.000,7455.000,-70.000,19.000,-8.000,NA,0.000,0
2026-01-30 21:56:40,1535164,-1742.000,-3833.000,7566.000,19.000,105.000,9.000,NA,0.000,0
2026-01-30 21:56:40,1535204,-1780.000,-3540.000,7393.000,103.000,68.000,-88.000,NA,0.000,0
2026-01-30 21:56:40,1535244,-1725.000,-3540.000,7492.000,-19.000,52.000,-38.000,NA,0.000,0
2026-01-30 21:56:41,1535284,-1635.000,-3714.000,7588.000,-24.000,112.000,44.000,NA,0.000,0
2026-01-30 21:56:41,1535324,-1637.000,-3626.000,7493.000,51.000,75.000,-23.000,NA,0.000,0
2026-01-30 21:56:41,1535364,-1748.000,-3711.000,7468.000,-42.000,-19.000,-24.000,NA,0.000,0
2026-01-30 21:56:41,1535404,-1777.000,-3586.000,7471.000,-23.000,-7.000,20.000,NA,0.000,0
2026-01-30 21:56:41,1535444,-1750.000,-3534.000,7389.000,-7.000,31.000,3.000,NA,0.000,0
2026-01-30 21:56:41,1535484,-1946.000,-3650.000,7846.000,-124.000,123.000,48.000,NA,0.000,0
2026-01-30 21:56:41,1535524,-1849.000,-3341.000,7367.000,204.000,34.000,-90.000,NA,0.000,0
2026-01-30 21:56:41,1535564,-1669.000,-3613.000,7516.000,-47.000,-10.000,-135.000,NA,0.000,0
2026-01-30 21:56:41,1535604,-1684.000,-3577.000,7635.000,46.000,138.000,-56.000,NA,0.000,0
2026-01-30 21:56:41,1535644,-1720.000,-3447.000,7442.000,64.000,171.000,-37.000,NA,0.000,0
2026-01-30 21:56:41,1535686,-1847.000,-3493.000,7522.000,-1.000,113.000,-4.000,NA,0.000,0
2026-01-30 21:56:41,1535725,-1830.000,-3390.000,7469.000,64.000,32.000,-19.000,NA,0.000,0
2026-01-30 21:56:41,1535764,-1793.000,-3516.000,7639.000,-106.000,70.000,-5.000,NA,0.000,0
2026-01-30 21:56:41,1535804,-1971.000,-3672.000,7804.000,-14.000,192.000,101.000,NA,0.000,0
2026-01-30 21:56:41,1535844,-2135.000,-3537.000,7448.000,120.000,139.000,45.000,NA,0.000,0
2026-01-30 21:56:41,1535886,-1860.000,-3288.000,7399.000,67.000,6.000,-134.000,NA,0.000,0
2026-01-30 21:56:41,1535924,-1615.000,-3373.000,7591.000,-57.000,57.000,-125.000,NA,0.000,0
2026-01-30 21:56:41,1535964,-1817.000,-3831.000,7663.000,-20.000,230.000,16.000,NA,0.000,0
2026-01-30 21:56:41,1536004,-2042.000,-3490.000,7475.000,88.000,77.000,-15.000,NA,0.000,0
2026-01-30 21:56:41,1536044,-1991.000,-3286.000,7569.000,-63.000,-93.000,-12.000,NA,0.000,0
2026-01-30 21:56:41,1536084,-1820.000,-3512.000,7638.000,-126.000,23.000,35.000,NA,0.000,0
2026-01-30 21:56:41,1536124,-1807.000,-3546.000,7530.000,47.000,81.000,-30.000,NA,0.000,0
2026-01-30 21:56:41,1536164,-2045.000,-3854.000,7903.000,-90.000,14.000,-34.000,NA,0.000,0
2026-01-30 21:56:41,1536204,-1915.000,-3570.000,7495.000,159.000,-117.000,-96.000,NA,0.000,0
2026-01-30 21:56:41,1536244,-1460.000,-3344.000,7598.000,58.000,-230.000,-197.000,NA,0.000,0
2026-01-30 21:56:42,1536284,-1521.000,-3782.000,7862.000,-65.000,134.000,45.000,NA,0.000,0
2026-01-30 21:56:42,1536324,-1673.000,-3566.000,7523.000,208.000,116.000,0.000,NA,0.000,0
2026-01-30 21:56:42,1536364,-1758.000,-3549.000,7550.000,-25.000,-120.000,-49.000,NA,0.000,0
2026-01-30 21:56:42,1536404,-1593.000,-3490.000,7451.000,-42.000,-111.000,10.000,NA,0.000,0
2026-01-30 21:56:42,1536444,-1527.000,-3472.000,7379.000,8.000,40.000,32.000,NA,0.000,0
2026-01-30 21:56:42,1536484,-1782.000,-3617.000,7688.000,-5.000,127.000,40.000,NA,0.000,0
2026-01-30 21:56:42,1536524,-1775.000,-3571.000,7507.000,76.000,51.000,23.000,NA,0.000,0
2026-01-30 21:56:42,1536564,-1613.000,-3507.000,7404.000,13.000,-63.000,-34.000,NA,0.000,0
2026-01-30 21:56:42,1536604,-1656.000,-3516.000,7579.000,2.000,9.000,26.000,NA,0.000,0
2026-01-30 21:56:42,1536644,-1741.000,-3379.000,7452.000,30.000,72.000,49.000,NA,0.000,0
2026-01-30 21:56:42,1536684,-1767.000,-3489.000,7567.000,-2.000,43.000,12.000,NA,0.000,0
2026-01-30 21:56:42,1536724,-1722.000,-3540.000,7643.000,-12.000,17.000,12.000,NA,0.000,0
2026-01-30 21:56:42,1536764,-1732.000,-3541.000,7373.000,63.000,27.000,-6.000,NA,0.000,0
2026-01-30 21:56:42,1536804,-1750.000,-3372.000,7360.000,32.000,-31.000,-30.000,NA,0.000,0
2026-01-30 21:56:42,1536844,-1673.000,-3405.000,7489.000,-22.000,-32.000,2.000,NA,0.000,0
2026-01-30 21:56:42,1536884,-1687.000,-3667.000,7759.000,-67.000,70.000,67.000,NA,0.000,0
2026-01-30 21:56:42,1536924,-1849.000,-3581.000,7645.000,42.000,95.000,50.000,NA,0.000,0
2026-01-30 21:56:42,1536964,-1868.000,-3388.000,7615.000,14.000,-61.000,7.000,NA,0.000,0
2026-01-30 21:56:42,1537004,-1632.000,-3312.000,7478.000,-35.000,-38.000,-11.000,NA,0.000,0
2026-01-30 21:56:42,1537044,-1592.000,-3450.000,7425.000,-5.000,29.000,-40.000,NA,0.000,0
2026-01-30 21:56:42,1537084,-1721.000,-3389.000,7824.000,-15.000,90.000,-13.000,NA,0.000,0
2026-01-30 21:56:42,1537124,-1715.000,-3275.000,7915.000,-12.000,51.000,14.000,NA,0.000,0
2026-01-30 21:56:42,1537164,-1601.000,-3257.000,7913.000,41.000,67.000,12.000,NA,0.000,0
2026-01-30 21:56:42,1537204,-1674.000,-3348.000,7636.000,38.000,30.000,-37.000,NA,0.000,0
2026-01-30 21:56:42,1537244,-1568.000,-3258.000,7780.000,80.000,-21.000,-66.000,NA,0.000,0
2026-01-30 21:56:43,1537284,-1509.000,-3289.000,7625.000,46.000,-12.000,-86.000,NA,0.000,0
2026-01-30 21:56:43,1537324,-1524.000,-3012.000,7682.000,27.000,15.000,-106.000,NA,0.000,0
2026-01-30 21:56:43,1537364,-1506.000,-3139.000,8076.000,-30.000,82.000,-17.000,NA,0.000,0
2026-01-30 21:56:43,1537404,-1479.000,-2937.000,7687.000,143.000,48.000,3.000,NA,0.000,0
2026-01-30 21:56:43,1537444,-1523.000,-2761.000,7745.000,108.000,-53.000,-90.000,NA,0.000,0
2026-01-30 21:56:43,1537484,-1489.000,-2698.000,7980.000,40.000,-9.000,-71.000,NA,0.000,0
2026-01-30 21:56:43,1537524,-1402.000,-2634.000,8055.000,108.000,156.000,-38.000,NA,0.000,0
2026-01-30 21:56:43,1537564,-1490.000,-2331.000,7673.000,283.000,151.000,-113.000,NA,0.000,0
2026-01-30 21:56:43,1537604,-1460.000,-2154.000,7794.000,185.000,32.000,-184.000,NA,0.000,0
2026-01-30 21:56:43,1537644,-1262.000,-2380.000,8292.000,-81.000,102.000,-125.000,NA,0.000,0
2026-01-30 21:56:43,1537684,-1345.000,-2827.000,7946.000,117.000,245.000,-11.000,NA,0.000,0
2026-01-30 21:56:43,1537725,-1504.000,-2241.000,7479.000,354.000,0.000,-93.000,NA,0.000,0
2026-01-30 21:56:43,1537764,-1466.000,-2357.000,8414.000,-154.000,-119.000,-100.000,NA,0.000,0
2026-01-30 21:56:43,1537804,-1380.000,-2654.000,8053.000,-38.000,145.000,140.000,NA,0.000,0
2026-01-30 21:56:43,1537844,-1616.000,-2430.000,7740.000,86.000,-51.000,-1.000,NA,0.000,0
2026-01-30 21:56:43,1537886,-1691.000,-2540.000,8168.000,-355.000,-159.000,-6.000,NA,0.000,0
2026-01-30 21:56:43,1537924,-1542.000,-3081.000,8203.000,-276.000,23.000,124.000,NA,0.000,0
2026-01-30 21:56:43,1537964,-1582.000,-3140.000,8047.000,-111.000,15.000,63.000,NA,0.000,0
2026-01-30 21:56:43,1538004,-1745.000,-3025.000,8188.000,-89.000,-142.000,-16.000,NA,0.000,0
2026-01-30 21:56:43,1538044,-1534.000,-2929.000,8164.000,-84.000,-202.000,-36.000,NA,0.000,0
2026-01-30 21:56:43,1538084,-1349.000,-3022.000,8014.000,-141.000,-93.000,5.000,NA,0.000,0
2026-01-30 21:56:43,1538124,-1668.000,-3168.000,8110.000,-118.000,34.000,87.000,NA,0.000,0
2026-01-30 21:56:43,1538164,-1812.000,-2777.000,7673.000,139.000,-61.000,93.000,NA,0.000,0
2026-01-30 21:56:43,1538204,-1593.000,-2753.000,7729.000,-97.000,-129.000,-30.000,NA,0.000,0
2026-01-30 21:56:43,1538244,-1501.000,-3095.000,7992.000,-88.000,76.000,-31.000,NA,0.000,0
2026-01-30 21:56:44,1538284,-1541.000,-3182.000,7849.000,125.000,158.000,-18.000,NA,0.000,0
2026-01-30 21:56:44,1538324,-1504.000,-3054.000,7767.000,56.000,-23.000,-80.000,NA,0.000,0
2026-01-30 21:56:44,1538364,-1390.000,-3130.000,7895.000,-5.000,-66.000,-30.000,NA,0.000,0
2026-01-30 21:56:44,1538404,-1343.000,-2986.000,7493.000,107.000,-55.000,1.000,NA,0.000,0
2026-01-30 21:56:44,1538444,-1470.000,-2908.000,7586.000,3.000,-37.000,45.000,NA,0.000,0
2026-01-30 21:56:44,1538484,-1651.000,-2985.000,7699.000,-25.000,27.000,131.000,NA,0.000,0
2026-01-30 21:56:44,1538524,-1685.000,-3132.000,7752.000,-37.000,61.000,176.000,NA,0.000,0
2026-01-30 21:56:44,1538564,-1742.000,-2941.000,7536.000,161.000,-28.000,26.000,NA,0.000,0
2026-01-30 21:56:44,1538604,-1629.000,-2986.000,7526.000,25.000,-95.000,-44.000,NA,0.000,0
2026-01-30 21:56:44,1538644,-1512.000,-3143.000,7749.000,29.000,22.000,-30.000,NA,0.000,0
2026-01-30 21:56:44,1538684,-1517.000,-3035.000,7519.000,140.000,51.000,-28.000,NA,0.000,0
2026-01-30 21:56:44,1538724,-1560.000,-2779.000,7499.000,30.000,-24.000,-35.000,NA,0.000,0
2026-01-30 21:56:44,1538764,-1561.000,-2858.000,7907.000,-110.000,75.000,97.000,NA,0.000,0
2026-01-30 21:56:44,1538804,-1576.000,-3041.000,7959.000,-89.000,183.000,146.000,NA,0.000,0
2026-01-30 21:56:44,1538844,-1710.000,-3069.000,7800.000,-5.000,162.000,13.000,NA,0.000,0
2026-01-30 21:56:44,1538884,-1724.000,-2695.000,7762.000,27.000,34.000,-135.000,NA,0.000,0
2026-01-30 21:56:44,1538924,-1358.000,-2765.000,8201.000,-245.000,190.000,-122.000,NA,0.000,0
2026-01-30 21:56:44,1538964,-1435.000,-2876.000,8374.000,-213.000,310.000,-41.000,NA,0.000,0
2026-01-30 21:56:44,1539004,-1602.000,-2884.000,8382.000,-49.000,245.000,13.000,NA,0.000,0
2026-01-30 21:56:44,1539044,-1654.000,-2654.000,8237.000,58.000,44.000,7.000,NA,0.000,0
2026-01-30 21:56:44,1539084,-1537.000,-2682.000,8283.000,-111.000,0.000,1.000,NA,0.000,0
2026-01-30 21:56:44,1539124,-1571.000,-2532.000,8188.000,54.000,89.000,2.000,NA,0.000,0
2026-01-30 21:56:44,1539164,-1659.000,-2339.000,8144.000,64.000,74.000,-37.000,NA,0.000,0
2026-01-30 21:56:44,1539204,-1639.000,-2465.000,8020.000,25.000,8.000,-54.000,NA,0.000,0
2026-01-30 21:56:44,1539244,-1504.000,-2629.000,7898.000,-75.000,-85.000,14.000,NA,0.000,0
2026-01-30 21:56:45,1539284,-1660.000,-3325.000,7942.000,-238.000,9.000,149.000,NA,0.000,0
2026-01-30 21:56:45,1539324,-1859.000,-3073.000,7310.000,145.000,-260.000,131.000,NA,0.000,0
2026-01-30 21:56:45,1539364,-1645.000,-2826.000,7974.000,-302.000,-432.000,-57.000,NA,0.000,0
2026-01-30 21:56:45,1539404,-1370.000,-3143.000,7987.000,-323.000,-152.000,29.000,NA,0.000,0
2026-01-30 21:56:45,1539444,-1440.000,-3424.000,7399.000,-147.000,15.000,124.000,NA,0.000,0
2026-01-30 21:56:45,1539484,-1970.000,-3735.000,8019.000,-213.000,-40.000,243.000,NA,0.000,0
2026-01-30 21:56:45,1539524,-2127.000,-3590.000,7661.000,49.000,-164.000,228.000,NA,0.000,0
2026-01-30 21:56:45,1539564,-2001.000,-3148.000,7093.000,133.000,-328.000,9.000,NA,0.000,0
2026-01-30 21:56:45,1539604,-1890.000,-2914.000,7287.000,-52.000,-262.000,-99.000,NA,0.000,0
2026-01-30 21:56:45,1539644,-1785.000,-3607.000,7914.000,-228.000,147.000,99.000,NA,0.000,0
2026-01-30 21:56:45,1539686,-2066.000,-3837.000,7557.000,501.000,132.000,57.000,NA,0.000,0
2026-01-30 21:56:45,1539725,-2113.000,-3001.000,6803.000,455.000,-483.000,-315.000,NA,0.000,0
2026-01-30 21:56:45,1539764,-1598.000,-2608.000,7424.000,93.000,-501.000,-281.000,NA,0.000,0
2026-01-30 21:56:45,1539804,-1174.000,-3087.000,7459.000,-16.000,106.000,19.000,NA,0.000,0
2026-01-30 21:56:45,1539844,-1432.000,-3153.000,7016.000,352.000,345.000,58.000,NA,0.000,0
2026-01-30 21:56:45,1539886,-1880.000,-3103.000,7745.000,-7.000,99.000,-59.000,NA,0.000,0
2026-01-30 21:56:45,1539924,-1639.000,-3493.000,8234.000,-178.000,99.000,63.000,NA,0.000,0
2026-01-30 21:56:45,1539964,-1296.000,-3161.000,7126.000,221.000,53.000,-75.000,NA,0.000,0
2026-01-30 21:56:45,1540004,-1485.000,-3138.000,7312.000,-200.000,-87.000,-200.000,NA,0.000,0
2026-01-30 21:56:45,1540044,-1779.000,-3154.000,7935.000,-307.000,125.000,71.000,NA,0.000,0
2026-01-30 21:56:45,1540084,-1620.000,-3716.000,7789.000,-309.000,294.000,293.000,NA,0.000,0
2026-01-30 21:56:45,1540124,-1992.000,-3902.000,8043.000,-189.000,120.000,144.000,NA,0.000,0
2026-01-30 21:56:45,1540164,-1997.000,-3590.000,7666.000,-50.000,-209.000,-9.000,NA,0.000,0
2026-01-30 21:56:45,1540204,-1751.000,-3678.000,7831.000,-218.000,-228.000,-26.000,NA,0.000,0
2026-01-30 21:56:45,1540244,-1877.000,-3793.000,7819.000,-47.000,-19.000,103.000,NA,0.000,0
2026-01-30 21:56:46,1540284,-2079.000,-3520.000,7477.000,169.000,-39.000,109.000,NA,0.000,0
2026-01-30 21:56:46,1540324,-2044.000,-3288.000,7576.000,105.000,-181.000,22.000,NA,0.000,0
2026-01-30 21:56:46,1540364,-1841.000,-3633.000,7712.000,-33.000,-140.000,18.000,NA,0.000,0
2026-01-30 21:56:46,1540404,-1774.000,-3473.000,7287.000,243.000,-59.000,-69.000,NA,0.000,0
2026-01-30 21:56:46,1540444,-1821.000,-3056.000,7181.000,134.000,-152.000,-174.000,NA,0.000,0
2026-01-30 21:56:46,1540484,-1639.000,-3154.000,7016.000,93.000,-98.000,-102.000,NA,0.000,0
2026-01-30 21:56:46,1540524,-1606.000,-3445.000,7268.000,-77.000,-61.000,-12.000,NA,0.000,0
2026-01-30 21:56:46,1540564,-1871.000,-3757.000,7851.000,-85.000,41.000,85.000,NA,0.000,0
2026-01-30 21:56:46,1540604,-2068.000,-3675.000,7460.000,137.000,-97.000,45.000,NA,0.000,0
2026-01-30 21:56:46,1540644,-1877.000,-3375.000,7292.000,37.000,-366.000,-107.000,NA,0.000,0
2026-01-30 21:56:46,1540684,-1764.000,-3629.000,7429.000,-102.000,-308.000,-93.000,NA,0.000,0
2026-01-30 21:56:46,1540724,-1759.000,-3718.000,7705.000,56.000,-85.000,-31.000,NA,0.000,0
2026-01-30 21:56:46,1540764,-1811.000,-3782.000,7188.000,133.000,-64.000,-15.000,NA,0.000,0
2026-01-30 21:56:46,1540804,-1838.000,-3438.000,6817.000,293.000,-304.000,-194.000,NA,0.000,0
2026-01-30 21:56:46,1540844,-1422.000,-3845.000,7697.000,-364.000,-227.000,1.000,NA,0.000,0
2026-01-30 21:56:46,1540884,-1709.000,-4223.000,7340.000,-37.000,165.000,212.000,NA,0.000,0
2026-01-30 21:56:46,1540924,-2137.000,-3925.000,7019.000,74.000,-2.000,129.000,NA,0.000,0
2026-01-30 21:56:46,1540964,-2311.000,-3936.000,7332.000,-73.000,-242.000,42.000,NA,0.000,0
2026-01-30 21:56:46,1541004,-1920.000,-4071.000,7557.000,-137.000,-231.000,72.000,NA,0.000,0
2026-01-30 21:56:46,1541044,-1786.000,-4263.000,7281.000,5.000,-45.000,51.000,NA,0.000,0
2026-01-30 21:56:46,1541084,-2047.000,-4309.000,7288.000,31.000,-44.000,-82.000,NA,0.000,0
2026-01-30 21:56:46,1541124,-1894.000,-4187.000,7437.000,60.000,-136.000,-68.000,NA,0.000,0
2026-01-30 21:56:46,1541164,-1636.000,-4216.000,7157.000,48.000,-184.000,-64.000,NA,0.000,0
2026-01-30 21:56:46,1541204,-1642.000,-4258.000,7127.000,6.000,-123.000,-26.000,NA,0.000,0
2026-01-30 21:56:46,1541244,-1819.000,-4043.000,7044.000,-25.000,-106.000,52.000,NA,0.000,0
2026-01-30 21:56:47,1541284,-1835.000,-4181.000,7193.000,-168.000,-47.000,171.000,NA,0.000,0
2026-01-30 21:56:47,1541324,-1830.000,-4277.000,7378.000,-95.000,109.000,228.000,NA,0.000,0
2026-01-30 21:56:47,1541364,-1878.000,-4311.000,7364.000,31.000,124.000,137.000,NA,0.000,0
2026-01-30 21:56:47,1541404,-1862.000,-4187.000,7153.000,52.000,-72.000,-62.000,NA,0.000,0
2026-01-30 21:56:47,1541444,-1724.000,-4210.000,7364.000,-56.000,-87.000,-84.000,NA,0.000,0
2026-01-30 21:56:47,1541484,-1591.000,-4151.000,7290.000,31.000,83.000,-1.000,NA,0.000,0
2026-01-30 21:56:47,1541524,-1746.000,-4163.000,7223.000,4.000,96.000,56.000,NA,0.000,0
2026-01-30 21:56:47,1541564,-1841.000,-3951.000,7586.000,-72.000,81.000,109.000,NA,0.000,0
2026-01-30 21:56:47,1541604,-1783.000,-4034.000,7500.000,-5.000,124.000,136.000,NA,0.000,0
2026-01-30 21:56:47,1541644,-1958.000,-3977.000,7055.000,82.000,63.000,-1.000,NA,0.000,0
2026-01-30 21:56:47,1541686,-1962.000,-3795.000,7463.000,-84.000,6.000,0.000,NA,0.000,0
2026-01-30 21:56:47,1541725,-1870.000,-3995.000,7356.000,-18.000,188.000,85.000,NA,0.000,0
2026-01-30 21:56:47,1541764,-1921.000,-3990.000,7219.000,40.000,170.000,17.000,NA,0.000,0
2026-01-30 21:56:47,1541804,-1965.000,-3884.000,7413.000,23.000,57.000,-41.000,NA,0.000,0
2026-01-30 21:56:47,1541844,-1957.000,-3990.000,7728.000,-103.000,22.000,18.000,NA,0.000,0
2026-01-30 21:56:47,1541886,-1882.000,-3975.000,7626.000,43.000,142.000,72.000,NA,0.000,0
2026-01-30 21:56:47,1541924,-2013.000,-3519.000,7013.000,190.000,-21.000,-20.000,NA,0.000,0
2026-01-30 21:56:47,1541964,-1858.000,-3702.000,7579.000,-31.000,33.000,8.000,NA,0.000,0
2026-01-30 21:56:47,1542004,-1784.000,-3480.000,7433.000,145.000,84.000,-64.000,NA,0.000,0
2026-01-30 21:56:47,1542044,-1695.000,-3371.000,7743.000,-26.000,151.000,-107.000,NA,0.000,0
2026-01-30 21:56:47,1542084,-1765.000,-3060.000,7596.000,167.000,201.000,-119.000,NA,0.000,0
2026-01-30 21:56:47,1542124,-1578.000,-3063.000,7924.000,56.000,266.000,-55.000,NA,0.000,0
2026-01-30 21:56:47,1542164,-1569.000,-3046.000,7587.000,217.000,305.000,-64.000,NA,0.000,0
2026-01-30 21:56:47,1542204,-1587.000,-2848.000,7084.000,232.000,135.000,-205.000,NA,0.000,0
2026-01-30 21:56:47,1542244,-1609.000,-3020.000,7607.000,-195.000,97.000,-149.000,NA,0.000,0
2026-01-30 21:56:48,1542284,-1625.000,-3270.000,8146.000,-269.000,332.000,65.000,NA,0.000,0
2026-01-30 21:56:48,1542324,-1787.000,-3121.000,7939.000,-90.000,364.000,117.000,NA,0.000,0
2026-01-30 21:56:48,1542364,-1829.000,-2889.000,8059.000,38.000,84.000,-41.000,NA,0.000,0
2026-01-30 21:56:48,1542404,-1692.000,-3053.000,7747.000,-26.000,7.000,-35.000,NA,0.000,0
2026-01-30 21:56:48,1542444,-1825.000,-3311.000,7684.000,-63.000,37.000,54.000,NA,0.000,0
2026-01-30 21:56:48,1542484,-2162.000,-3145.000,7190.000,77.000,-40.000,93.000,NA,0.000,0
2026-01-30 21:56:48,1542524,-2258.000,-2869.000,7340.000,-42.000,-139.000,83.000,NA,0.000,0
2026-01-30 21:56:48,1542564,-2269.000,-3135.000,8091.000,-349.000,-21.000,166.000,NA,0.000,0
2026-01-30 21:56:48,1542604,-2385.000,-3679.000,8102.000,-150.000,75.000,251.000,NA,0.000,0
2026-01-30 21:56:48,1542644,-2479.000,-3483.000,7361.000,380.000,-191.000,73.000,NA,0.000,0
2026-01-30 21:56:48,1542684,-2335.000,-3089.000,6920.000,320.000,-510.000,-257.000,NA,0.000,0
2026-01-30 21:56:48,1542724,-1442.000,-2973.000,7626.000,-34.000,-502.000,-342.000,NA,0.000,0
2026-01-30 21:56:48,1542764,-1444.000,-3606.000,7550.000,-11.000,155.000,-134.000,NA,0.000,0
2026-01-30 21:56:48,1542804,-1901.000,-3511.000,7441.000,282.000,74.000,-114.000,NA,0.000,0
2026-01-30 21:56:48,1542844,-1807.000,-2688.000,6896.000,270.000,-322.000,-239.000,NA,0.000,0
2026-01-30 21:56:48,1542884,-1333.000,-2908.000,7352.000,-264.000,-270.000,-149.000,NA,0.000,0
2026-01-30 21:56:48,1542924,-1200.000,-3576.000,7979.000,-457.000,243.000,94.000,NA,0.000,0
2026-01-30 21:56:48,1542964,-1745.000,-4019.000,7675.000,-52.000,392.000,111.000,NA,0.000,0
2026-01-30 21:56:48,1543004,-2081.000,-3684.000,7870.000,107.000,-2.000,-84.000,NA,0.000,0
2026-01-30 21:56:48,1543044,-1655.000,-3314.000,7615.000,-68.000,-341.000,-175.000,NA,0.000,0
2026-01-30 21:56:48,1543084,-1305.000,-3503.000,7819.000,-146.000,-114.000,-35.000,NA,0.000,0
2026-01-30 21:56:48,1543124,-1794.000,-3559.000,7717.000,43.000,134.000,66.000,NA,0.000,0
2026-01-30 21:56:48,1543164,-1890.000,-3252.000,7969.000,-31.000,-70.000,31.000,NA,0.000,0
2026-01-30 21:56:48,1543204,-1664.000,-3353.000,7724.000,-34.000,-115.000,53.000,NA,0.000,0
2026-01-30 21:56:48,1543244,-1501.000,-3250.000,7375.000,124.000,-43.000,-1.000,NA,0.000,0
2026-01-30 21:56:49,1543284,-1647.000,-3078.000,7503.000,31.000,0.000,-74.000,NA,0.000,0
2026-01-30 21:56:49,1543324,-1701.000,-3265.000,8004.000,-88.000,121.000,-86.000,NA,0.000,0
2026-01-30 21:56:49,1543364,-1554.000,-3068.000,7803.000,110.000,86.000,-138.000,NA,0.000,0
2026-01-30 21:56:49,1543404,-1417.000,-2876.000,7976.000,184.000,11.000,-116.000,NA,0.000,0
2026-01-30 21:56:49,1543444,-1467.000,-2888.000,7720.000,136.000,-80.000,-63.000,NA,0.000,0
2026-01-30 21:56:49,1543484,-1528.000,-2960.000,7480.000,156.000,-133.000,-52.000,NA,0.000,0
2026-01-30 21:56:49,1543524,-1517.000,-3052.000,7691.000,-1.000,-156.000,-20.000,NA,0.000,0
2026-01-30 21:56:49,1543564,-1513.000,-3491.000,7899.000,-87.000,-51.000,47.000,NA,0.000,0
2026-01-30 21:56:49,1543604,-1477.000,-2667.000,6940.000,268.000,-256.000,-164.000,NA,0.000,0
2026-01-30 21:56:49,1543644,-1382.000,-2820.000,7949.000,-461.000,-288.000,-119.000,NA,0.000,0
2026-01-30 21:56:49,1543686,-1414.000,-3820.000,8541.000,-370.000,225.000,245.000,NA,0.000,0
2026-01-30 21:56:49,1543725,-1551.000,-3214.000,7038.000,268.000,19.000,122.000,NA,0.000,0
2026-01-30 21:56:49,1543764,-1842.000,-3416.000,7344.000,-253.000,-363.000,-99.000,NA,0.000,0
2026-01-30 21:56:49,1543804,-1636.000,-3585.000,8020.000,-408.000,-258.000,54.000,NA,0.000,0
2026-01-30 21:56:49,1543844,-1377.000,-3943.000,7896.000,-272.000,-48.000,179.000,NA,0.000,0
2026-01-30 21:56:49,1543886,-2028.000,-4127.000,8081.000,78.000,-121.000,144.000,NA,0.000,0
2026-01-30 21:56:49,1543924,-1931.000,-3967.000,7685.000,85.000,-468.000,76.000,NA,0.000,0
2026-01-30 21:56:49,1543964,-1376.000,-3926.000,7590.000,66.000,-544.000,-94.000,NA,0.000,0
2026-01-30 21:56:49,1544004,-1259.000,-3984.000,7165.000,58.000,-423.000,-188.000,NA,0.000,0
2026-01-30 21:56:49,1544044,-1161.000,-3699.000,7318.000,106.000,-244.000,-171.000,NA,0.000,0
2026-01-30 21:56:49,1544084,-1218.000,-3566.000,6910.000,181.000,-167.000,-122.000,NA,0.000,0
2026-01-30 21:56:49,1544124,-1056.000,-3585.000,7092.000,10.000,-135.000,-7.000,NA,0.000,0
2026-01-30 21:56:49,1544164,-1059.000,-3981.000,7476.000,-90.000,116.000,211.000,NA,0.000,0
2026-01-30 21:56:49,1544204,-1488.000,-4086.000,7389.000,19.000,217.000,256.000,NA,0.000,0
2026-01-30 21:56:49,1544244,-1821.000,-3654.000,7282.000,21.000,79.000,193.000,NA,0.000,0
2026-01-30 21:56:50,1544284,-1657.000,-3594.000,7153.000,-112.000,-172.000,52.000,NA,0.000,0
2026-01-30 21:56:50,1544324,-1510.000,-4206.000,7992.000,-248.000,169.000,258.000,NA,0.000,0
2026-01-30 21:56:50,1544364,-1804.000,-3984.000,7211.000,249.000,307.000,177.000,NA,0.000,0
2026-01-30 21:56:50,1544404,-1990.000,-3889.000,7162.000,20.000,-20.000,-2.000,NA,0.000,0
2026-01-30 21:56:50,1544444,-1809.000,-4005.000,7577.000,-213.000,-73.000,48.000,NA,0.000,0
2026-01-30 21:56:50,1544484,-1582.000,-3918.000,7320.000,29.000,37.000,58.000,NA,0.000,0
2026-01-30 21:56:50,1544524,-1774.000,-3971.000,7251.000,-2.000,83.000,30.000,NA,0.000,0
2026-01-30 21:56:50,1544564,-1903.000,-4117.000,7512.000,-77.000,15.000,115.000,NA,0.000,0
2026-01-30 21:56:50,1544604,-1840.000,-4060.000,7543.000,8.000,-28.000,102.000,NA,0.000,0
2026-01-30 21:56:50,1544644,-1732.000,-3929.000,7317.000,114.000,-6.000,-10.000,NA,0.000,0
2026-01-30 21:56:50,1544684,-1622.000,-3588.000,6811.000,106.000,-174.000,-163.000,NA,0.000,0
2026-01-30 21:56:50,1544724,-1435.000,-4009.000,7696.000,-266.000,-105.000,-23.000,NA,0.000,0
2026-01-30 21:56:50,1544764,-1629.000,-4526.000,7811.000,-69.000,329.000,255.000,NA,0.000,0
2026-01-30 21:56:50,1544804,-1763.000,-3881.000,6858.000,356.000,105.000,27.000,NA,0.000,0
2026-01-30 21:56:50,1544844,-1729.000,-3784.000,7129.000,-145.000,-249.000,-106.000,NA,0.000,0
2026-01-30 21:56:50,1544884,-1369.000,-4215.000,7967.000,-269.000,54.000,141.000,NA,0.000,0
2026-01-30 21:56:50,1544924,-1395.000,-4338.000,7225.000,181.000,241.000,133.000,NA,0.000,0
2026-01-30 21:56:50,1544964,-1841.000,-4224.000,7276.000,7.000,-23.000,7.000,NA,0.000,0
2026-01-30 21:56:50,1545004,-1769.000,-3822.000,7084.000,56.000,-216.000,103.000,NA,0.000,0
2026-01-30 21:56:50,1545044,-1404.000,-3843.000,7124.000,-27.000,-43.000,113.000,NA,0.000,0
2026-01-30 21:56:50,1545084,-1746.000,-4173.000,7620.000,-35.000,228.000,138.000,NA,0.000,0
2026-01-30 21:56:50,1545124,-1932.000,-3894.000,7259.000,177.000,117.000,28.000,NA,0.000,0
2026-01-30 21:56:50,1545164,-1810.000,-3790.000,7076.000,15.000,-193.000,-38.000,NA,0.000,0
2026-01-30 21:56:50,1545204,-1633.000,-3918.000,7290.000,-103.000,-72.000,75.000,NA,0.000,0
2026-01-30 21:56:50,1545244,-1570.000,-3835.000,6834.000,86.000,68.000,18.000,NA,0.000,0
2026-01-30 21:56:51,1545284,-1748.000,-3991.000,7388.000,-124.000,58.000,8.000,NA,0.000,0
2026-01-30 21:56:51,1545324,-1795.000,-4349.000,7892.000,-178.000,172.000,149.000,NA,0.000,0
2026-01-30 21:56:51,1545364,-1861.000,-4115.000,7447.000,143.000,85.000,108.000,NA,0.000,0
2026-01-30 21:56:51,1545404,-1971.000,-3807.000,7262.000,-87.000,-256.000,-35.000,NA,0.000,0
2026-01-30 21:56:51,1545444,-1831.000,-3924.000,7396.000,-126.000,-88.000,77.000,NA,0.000,0
2026-01-30 21:56:51,1545484,-1849.000,-4116.000,7296.000,11.000,103.000,102.000,NA,0.000,0
2026-01-30 21:56:51,1545524,-2007.000,-3936.000,7327.000,41.000,54.000,-24.000,NA,0.000,0
2026-01-30 21:56:51,1545564,-1879.000,-3950.000,7335.000,-42.000,-72.000,-32.000,NA,0.000,0
2026-01-30 21:56:51,1545604,-1584.000,-4112.000,7595.000,-47.000,26.000,7.000,NA,0.000,0
2026-01-30 21:56:51,1545644,-1717.000,-4189.000,7253.000,123.000,92.000,-3.000,NA,0.000,0
2026-01-30 21:56:51,1545686,-1869.000,-3922.000,7214.000,33.000,-105.000,-65.000,NA,0.000,0
2026-01-30 21:56:51,1545725,-1742.000,-3958.000,7395.000,-115.000,-145.000,14.000,NA,0.000,0
2026-01-30 21:56:51,1545764,-1661.000,-3983.000,7397.000,-30.000,95.000,139.000,NA,0.000,0
2026-01-30 21:56:51,1545804,-1966.000,-3881.000,7555.000,61.000,25.000,18.000,NA,0.000,0
2026-01-30 21:56:51,1545844,-1845.000,-3818.000,7442.000,12.000,-70.000,-37.000,NA,0.000,0
2026-01-30 21:56:51,1545886,-1579.000,-3867.000,7250.000,-6.000,-13.000,-30.000,NA,0.000,0
2026-01-30 21:56:51,1545924,-1737.000,-3853.000,7234.000,14.000,71.000,-3.000,NA,0.000,0
2026-01-30 21:56:51,1545964,-1879.000,-3751.000,7404.000,0.000,42.000,58.000,NA,0.000,0
2026-01-30 21:56:51,1546004,-1821.000,-3745.000,7192.000,19.000,-4.000,7.000,NA,0.000,0
2026-01-30 21:56:51,1546044,-1737.000,-3886.000,8031.000,-187.000,72.000,89.000,NA,0.000,0
2026-01-30 21:56:51,1546084,-1934.000,-3893.000,7474.000,104.000,181.000,44.000,NA,0.000,0
2026-01-30 21:56:51,1546124,-1946.000,-3398.000,7414.000,162.000,-57.000,-7.000,NA,0.000,0
2026-01-30 21:56:51,1546164,-1676.000,-3561.000,7206.000,-47.000,-118.000,-99.000,NA,0.000,0
2026-01-30 21:56:51,1546204,-1649.000,-3607.000,7458.000,11.000,86.000,-60.000,NA,0.000,0
2026-01-30 21:56:51,1546244,-1976.000,-3973.000,7617.000,-44.000,209.000,57.000,NA,0.000,0
2026-01-30 21:56:52,1546284,-1936.000,-3612.000,7475.000,200.000,15.000,-34.000,NA,0.000,0
2026-01-30 21:56:52,1546324,-1782.000,-3348.000,7481.000,95.000,-305.000,-148.000,NA,0.000,0
2026-01-30 21:56:52,1546364,-1597.000,-3381.000,7736.000,91.000,-132.000,-140.000,NA,0.000,0
2026-01-30 21:56:52,1546404,-1530.000,-2963.000,7456.000,300.000,27.000,-138.000,NA,0.000,0
2026-01-30 21:56:52,1546444,-1666.000,-3094.000,7411.000,94.000,63.000,-87.000,NA,0.000,0
2026-01-30 21:56:52,1546484,-1655.000,-2774.000,7193.000,354.000,19.000,-125.000,NA,0.000,0
2026-01-30 21:56:52,1546524,-1508.000,-2441.000,7500.000,154.000,-75.000,-244.000,NA,0.000,0
2026-01-30 21:56:52,1546564,-1455.000,-3409.000,8155.000,-327.000,441.000,26.000,NA,0.000,0
2026-01-30 21:56:52,1546604,-1693.000,-3377.000,7957.000,23.000,459.000,42.000,NA,0.000,0
2026-01-30 21:56:52,1546644,-1782.000,-2860.000,8153.000,231.000,94.000,-51.000,NA,0.000,0
2026-01-30 21:56:52,1546684,-1659.000,-2867.000,7768.000,78.000,-187.000,-92.000,NA,0.000,0
2026-01-30 21:56:52,1546724,-1390.000,-2975.000,8169.000,-51.000,-97.000,-94.000,NA,0.000,0
2026-01-30 21:56:52,1546764,-1665.000,-2970.000,8081.000,107.000,81.000,-13.000,NA,0.000,0
2026-01-30 21:56:52,1546804,-1725.000,-2784.000,7492.000,274.000,-24.000,-21.000,NA,0.000,0
2026-01-30 21:56:52,1546844,-1616.000,-2237.000,7429.000,159.000,-259.000,-147.000,NA,0.000,0
2026-01-30 21:56:52,1546884,-1381.000,-2818.000,8119.000,-337.000,-33.000,-73.000,NA,0.000,0
2026-01-30 21:56:52,1546924,-1706.000,-3059.000,7462.000,192.000,112.000,17.000,NA,0.000,0
2026-01-30 21:56:52,1546964,-1780.000,-2840.000,7750.000,-75.000,-173.000,-78.000,NA,0.000,0
2026-01-30 21:56:52,1547004,-1497.000,-2856.000,7763.000,-70.000,-178.000,-68.000,NA,0.000,0
2026-01-30 21:56:52,1547044,-1263.000,-3172.000,7748.000,-167.000,7.000,-3.000,NA,0.000,0
2026-01-30 21:56:52,1547084,-1661.000,-3367.000,8105.000,-70.000,119.000,36.000,NA,0.000,0
2026-01-30 21:56:52,1547124,-1912.000,-3042.000,7725.000,59.000,-43.000,59.000,NA,0.000,0
2026-01-30 21:56:52,1547164,-1794.000,-3004.000,7562.000,-19.000,-170.000,0.000,NA,0.000,0
2026-01-30 21:56:52,1547204,-1617.000,-3179.000,7825.000,-201.000,-95.000,-9.000,NA,0.000,0
2026-01-30 21:56:52,1547244,-1798.000,-3416.000,7810.000,-60.000,87.000,48.000,NA,0.000,0
2026-01-30 21:56:53,1547284,-1946.000,-3306.000,7813.000,-27.000,66.000,3.000,NA,0.000,0
2026-01-30 21:56:53,1547324,-1717.000,-3171.000,7806.000,35.000,-72.000,-74.000,NA,0.000,0
2026-01-30 21:56:53,1547364,-1558.000,-3435.000,7427.000,20.000,-47.000,-61.000,NA,0.000,0
2026-01-30 21:56:53,1547404,-1697.000,-3431.000,7577.000,-65.000,-17.000,-74.000,NA,0.000,0
2026-01-30 21:56:53,1547444,-1800.000,-3337.000,7603.000,8.000,32.000,-16.000,NA,0.000,0
2026-01-30 21:56:53,1547484,-1801.000,-3442.000,7599.000,-40.000,4.000,53.000,NA,0.000,0
2026-01-30 21:56:53,1547524,-1690.000,-3427.000,7690.000,40.000,28.000,43.000,NA,0.000,0
2026-01-30 21:56:53,1547564,-1823.000,-3523.000,7845.000,-25.000,45.000,23.000,NA,0.000,0
2026-01-30 21:56:53,1547604,-1751.000,-3667.000,7690.000,74.000,84.000,16.000,NA,0.000,0
2026-01-30 21:56:53,1547644,-1674.000,-3249.000,6847.000,269.000,-112.000,-108.000,NA,0.000,0
2026-01-30 21:56:53,1547685,-1308.000,-3564.000,7737.000,-183.000,81.000,17.000,NA,0.000,0
2026-01-30 21:56:53,1547724,-1471.000,-3626.000,7451.000,137.000,276.000,79.000,NA,0.000,0
2026-01-30 21:56:53,1547765,-1663.000,-3676.000,7871.000,-13.000,156.000,121.000,NA,0.000,0
2026-01-30 21:56:53,1547804,-1784.000,-3603.000,7610.000,128.000,21.000,95.000,NA,0.000,0
2026-01-30 21:56:53,1547844,-1579.000,-3337.000,7148.000,63.000,-140.000,-29.000,NA,0.000,0
2026-01-30 21:56:53,1547887,-1560.000,-3282.000,7345.000,-134.000,36.000,45.000,NA,0.000,0
2026-01-30 21:56:53,1547925,-1546.000,-3311.000,7635.000,-99.000,172.000,142.000,NA,0.000,0
2026-01-30 21:56:53,1547964,-1783.000,-3750.000,7482.000,18.000,287.000,217.000,NA,0.000,0
2026-01-30 21:56:53,1548004,-2031.000,-3627.000,7899.000,7.000,74.000,95.000,NA,0.000,0
2026-01-30 21:56:53,1548044,-1993.000,-3290.000,7722.000,171.000,8.000,66.000,NA,0.000,0
2026-01-30 21:56:53,1548084,-1622.000,-2859.000,7597.000,27.000,-83.000,-49.000,NA,0.000,0
2026-01-30 21:56:53,1548124,-1591.000,-2995.000,7312.000,229.000,69.000,-60.000,NA,0.000,0
2026-01-30 21:56:53,1548164,-1662.000,-2792.000,7304.000,-15.000,15.000,-74.000,NA,0.000,0
2026-01-30 21:56:53,1548204,-1756.000,-3366.000,8366.000,-245.000,253.000,104.000,NA,0.000,0
2026-01-30 21:56:53,1548244,-1775.000,-3165.000,7539.000,181.000,251.000,56.000,NA,0.000,0
2026-01-30 21:56:54,1548284,-1522.000,-2880.000,7974.000,85.000,87.000,-211.000,NA,0.000,0
2026-01-30 21:56:54,1548324,-1367.000,-2943.000,8065.000,87.000,46.000,-247.000,NA,0.000,0
2026-01-30 21:56:54,1548364,-1158.000,-2825.000,7729.000,134.000,76.000,-195.000,NA,0.000,0
2026-01-30 21:56:54,1548404,-1235.000,-2840.000,7954.000,-35.000,158.000,-92.000,NA,0.000,0
2026-01-30 21:56:54,1548444,-1449.000,-2407.000,7826.000,182.000,136.000,56.000,NA,0.000,0
2026-01-30 21:56:54,1548484,-1511.000,-2536.000,7714.000,85.000,95.000,119.000,NA,0.000,0
2026-01-30 21:56:54,1548524,-1664.000,-2601.000,7424.000,74.000,81.000,158.000,NA,0.000,0
2026-01-30 21:56:54,1548564,-1806.000,-2801.000,7696.000,-191.000,92.000,181.000,NA,0.000,0
2026-01-30 21:56:54,1548604,-2024.000,-3127.000,7927.000,-261.000,201.000,225.000,NA,0.000,0
2026-01-30 21:56:54,1548644,-2107.000,-3077.000,7747.000,-42.000,83.000,179.000,NA,0.000,0
2026-01-30 21:56:54,1548684,-2070.000,-3045.000,7700.000,-35.000,-137.000,62.000,NA,0.000,0
2026-01-30 21:56:54,1548724,-1901.000,-3310.000,7970.000,-194.000,-168.000,40.000,NA,0.000,0
2026-01-30 21:56:54,1548764,-1815.000,-3343.000,7699.000,-54.000,-101.000,45.000,NA,0.000,0
2026-01-30 21:56:54,1548804,-2018.000,-3527.000,7815.000,-155.000,-23.000,56.000,NA,0.000,0
2026-01-30 21:56:54,1548844,-2016.000,-3230.000,7578.000,11.000,-105.000,12.000,NA,0.000,0
2026-01-30 21:56:54,1548884,-1847.000,-3114.000,7471.000,18.000,-128.000,-44.000,NA,0.000,0
2026-01-30 21:56:54,1548924,-1972.000,-3164.000,7427.000,-143.000,-72.000,-25.000,NA,0.000,0
2026-01-30 21:56:54,1548964,-2046.000,-3500.000,7952.000,-251.000,96.000,31.000,NA,0.000,0
2026-01-30 21:56:54,1549004,-2125.000,-3568.000,7788.000,7.000,147.000,63.000,NA,0.000,0
2026-01-30 21:56:54,1549044,-2157.000,-3639.000,7629.000,111.000,-17.000,-39.000,NA,0.000,0
2026-01-30 21:56:54,1549084,-2055.000,-3617.000,7636.000,9.000,-182.000,-100.000,NA,0.000,0
2026-01-30 21:56:54,1549124,-1788.000,-3634.000,7429.000,47.000,-139.000,-115.000,NA,0.000,0
2026-01-30 21:56:54,1549164,-1828.000,-3429.000,7260.000,86.000,-132.000,-140.000,NA,0.000,0
2026-01-30 21:56:54,1549204,-2006.000,-3493.000,7576.000,-26.000,-68.000,65.000,NA,0.000,0
2026-01-30 21:56:54,1549244,-2024.000,-3276.000,7236.000,130.000,-134.000,95.000,NA,0.000,0
2026-01-30 21:56:55,1549284,-2025.000,-3267.000,7427.000,-38.000,-140.000,8.000,NA,0.000,0
2026-01-30 21:56:55,1549324,-1876.000,-3131.000,7212.000,109.000,-125.000,-129.000,NA,0.000,0
2026-01-30 21:56:55,1549364,-1659.000,-3440.000,7552.000,-135.000,-75.000,-189.000,NA,0.000,0
2026-01-30 21:56:55,1549404,-1770.000,-3881.000,7850.000,-35.000,99.000,-116.000,NA,0.000,0
2026-01-30 21:56:55,1549444,-1714.000,-3517.000,7504.000,218.000,-46.000,-148.000,NA,0.000,0
2026-01-30 21:56:55,1549484,-1687.000,-3152.000,7401.000,43.000,-205.000,-200.000,NA,0.000,0
2026-01-30 21:56:55,1549524,-1536.000,-3383.000,7709.000,-205.000,-137.000,-29.000,NA,0.000,0
2026-01-30 21:56:55,1549564,-1611.000,-3599.000,7964.000,-61.000,131.000,134.000,NA,0.000,0
2026-01-30 21:56:55,1549604,-2060.000,-3035.000,7515.000,81.000,-130.000,-22.000,NA,0.000,0
2026-01-30 21:56:55,1549644,-1872.000,-2960.000,7779.000,-154.000,-145.000,-37.000,NA,0.000,0
2026-01-30 21:56:55,1549686,-1502.000,-3385.000,8054.000,-53.000,101.000,21.000,NA,0.000,0
2026-01-30 21:56:55,1549725,-1729.000,-3468.000,7499.000,241.000,73.000,-109.000,NA,0.000,0
2026-01-30 21:56:55,1549764,-1856.000,-3323.000,8114.000,-27.000,-93.000,-155.000,NA,0.000,0
2026-01-30 21:56:55,1549804,-1643.000,-3239.000,7852.000,119.000,-39.000,-47.000,NA,0.000,0
2026-01-30 21:56:55,1549844,-1330.000,-2698.000,7603.000,186.000,-109.000,-167.000,NA,0.000,0
2026-01-30 21:56:55,1549886,-1294.000,-2460.000,7648.000,155.000,-107.000,-178.000,NA,0.000,0
2026-01-30 21:56:55,1549924,-1214.000,-2546.000,7710.000,-8.000,-43.000,-107.000,NA,0.000,0
2026-01-30 21:56:55,1549964,-1357.000,-2687.000,7737.000,-14.000,170.000,14.000,NA,0.000,0
2026-01-30 21:56:55,1550004,-1576.000,-2765.000,8201.000,-29.000,238.000,70.000,NA,0.000,0
2026-01-30 21:56:55,1550044,-1510.000,-2466.000,7255.000,404.000,59.000,-28.000,NA,0.000,0
2026-01-30 21:56:55,1550084,-1322.000,-2498.000,7919.000,-331.000,-105.000,-140.000,NA,0.000,0
2026-01-30 21:56:55,1550124,-1481.000,-3634.000,8626.000,-327.000,325.000,159.000,NA,0.000,0
2026-01-30 21:56:55,1550164,-1804.000,-2882.000,7270.000,325.000,137.000,228.000,NA,0.000,0
2026-01-30 21:56:55,1550204,-1920.000,-2864.000,7803.000,-183.000,-214.000,114.000,NA,0.000,0
2026-01-30 21:56:55,1550244,-1825.000,-3123.000,7886.000,-171.000,-228.000,132.000,NA,0.000,0
2026-01-30 21:56:56,1550284,-1555.000,-3229.000,7498.000,-119.000,-140.000,101.000,NA,0.000,0
2026-01-30 21:56:56,1550324,-1873.000,-3604.000,8078.000,-194.000,-14.000,113.000,NA,0.000,0
2026-01-30 21:56:56,1550364,-1899.000,-3024.000,7314.000,362.000,-217.000,18.000,NA,0.000,0
2026-01-30 21:56:56,1550404,-1658.000,-2924.000,7250.000,0.000,-347.000,-163.000,NA,0.000,0
2026-01-30 21:56:56,1550444,-1588.000,-3163.000,7874.000,-242.000,-40.000,-67.000,NA,0.000,0
2026-01-30 21:56:56,1550484,-1738.000,-3200.000,7460.000,150.000,232.000,105.000,NA,0.000,0
2026-01-30 21:56:56,1550524,-2063.000,-3279.000,7234.000,22.000,107.000,31.000,NA,0.000,0
2026-01-30 21:56:56,1550564,-1872.000,-3057.000,7481.000,-101.000,-88.000,-108.000,NA,0.000,0
2026-01-30 21:56:56,1550604,-1535.000,-3045.000,7639.000,-103.000,21.000,-73.000,NA,0.000,0
2026-01-30 21:56:56,1550644,-1673.000,-3587.000,7922.000,-150.000,224.000,64.000,NA,0.000,0
2026-01-30 21:56:56,1550684,-2155.000,-3883.000,7852.000,-26.000,138.000,87.000,NA,0.000,0
2026-01-30 21:56:56,1550724,-2128.000,-3543.000,7842.000,69.000,-156.000,-7.000,NA,0.000,0
2026-01-30 21:56:56,1550764,-1599.000,-3394.000,7455.000,97.000,-151.000,-71.000,NA,0.000,0
2026-01-30 21:56:56,1550804,-1456.000,-3066.000,7056.000,180.000,-153.000,-213.000,NA,0.000,0
2026-01-30 21:56:56,1550844,-1604.000,-3581.000,7820.000,-147.000,4.000,-53.000,NA,0.000,0
2026-01-30 21:56:56,1550884,-1826.000,-3546.000,7496.000,166.000,119.000,63.000,NA,0.000,0
2026-01-30 21:56:56,1550924,-1719.000,-3133.000,7356.000,38.000,-37.000,2.000,NA,0.000,0
2026-01-30 21:56:56,1550964,-1801.000,-3226.000,7781.000,-95.000,65.000,7.000,NA,0.000,0
2026-01-30 21:56:56,1551004,-1722.000,-3219.000,7594.000,14.000,177.000,16.000,NA,0.000,0
2026-01-30 21:56:56,1551044,-1633.000,-3528.000,7757.000,-142.000,212.000,-27.000,NA,0.000,0
2026-01-30 21:56:56,1551084,-1848.000,-3376.000,7480.000,76.000,111.000,-81.000,NA,0.000,0
2026-01-30 21:56:56,1551124,-1822.000,-3453.000,7817.000,-257.000,81.000,91.000,NA,0.000,0
2026-01-30 21:56:56,1551164,-1942.000,-3672.000,7856.000,-79.000,207.000,176.000,NA,0.000,0
2026-01-30 21:56:56,1551204,-2196.000,-3788.000,7845.000,-59.000,92.000,140.000,NA,0.000,0
2026-01-30 21:56:56,1551244,-2309.000,-3621.000,7587.000,29.000,-145.000,61.000,NA,0.000,0
2026-01-30 21:56:57,1551284,-2150.000,-3445.000,7362.000,-2.000,-276.000,4.000,NA,0.000,0
2026-01-30 21:56:57,1551324,-2038.000,-3504.000,7457.000,-34.000,-143.000,-8.000,NA,0.000,0
2026-01-30 21:56:57,1551364,-2079.000,-3438.000,7386.000,30.000,-4.000,-38.000,NA,0.000,0
2026-01-30 21:56:57,1551404,-2032.000,-3412.000,7429.000,86.000,-1.000,-79.000,NA,0.000,0
2026-01-30 21:56:57,1551444,-1934.000,-3412.000,7410.000,-23.000,-89.000,-140.000,NA,0.000,0
2026-01-30 21:56:57,1551484,-1724.000,-3617.000,7393.000,-79.000,-33.000,-91.000,NA,0.000,0
2026-01-30 21:56:57,1551524,-1822.000,-3655.000,7471.000,-56.000,44.000,-57.000,NA,0.000,0
2026-01-30 21:56:57,1551564,-1868.000,-3794.000,7644.000,-111.000,17.000,-43.000,NA,0.000,0
2026-01-30 21:56:57,1551604,-1837.000,-3742.000,7493.000,-11.000,-13.000,-71.000,NA,0.000,0
2026-01-30 21:56:57,1551644,-1777.000,-3829.000,7652.000,-94.000,-40.000,-70.000,NA,0.000,0
2026-01-30 21:56:57,1551686,-1903.000,-3783.000,7841.000,-54.000,-33.000,-16.000,NA,0.000,0
2026-01-30 21:56:57,1551725,-2033.000,-3567.000,7595.000,34.000,-57.000,69.000,NA,0.000,0
2026-01-30 21:56:57,1551764,-2128.000,-3390.000,7454.000,32.000,-86.000,65.000,NA,0.000,0
2026-01-30 21:56:57,1551804,-1917.000,-3149.000,7583.000,-8.000,-76.000,-12.000,NA,0.000,0
2026-01-30 21:56:57,1551844,-1698.000,-2961.000,7582.000,103.000,34.000,-121.000,NA,0.000,0
2026-01-30 21:56:57,1551886,-1600.000,-3217.000,7778.000,128.000,129.000,-167.000,NA,0.000,0
2026-01-30 21:56:57,1551924,-1623.000,-3445.000,7802.000,44.000,91.000,-103.000,NA,0.000,0
2026-01-30 21:56:57,1551964,-1582.000,-3322.000,7678.000,121.000,23.000,-115.000,NA,0.000,0
2026-01-30 21:56:57,1552004,-1547.000,-2896.000,7515.000,33.000,-69.000,-184.000,NA,0.000,0
2026-01-30 21:56:57,1552044,-1374.000,-2890.000,8022.000,-181.000,41.000,-166.000,NA,0.000,0
2026-01-30 21:56:57,1552084,-1292.000,-2813.000,7923.000,53.000,163.000,-71.000,NA,0.000,0
2026-01-30 21:56:57,1552124,-1451.000,-2782.000,7749.000,123.000,106.000,-63.000,NA,0.000,0
2026-01-30 21:56:57,1552164,-1670.000,-2876.000,8019.000,4.000,45.000,-59.000,NA,0.000,0
2026-01-30 21:56:57,1552204,-1644.000,-2761.000,7868.000,95.000,-7.000,-25.000,NA,0.000,0
2026-01-30 21:56:57,1552244,-1747.000,-2866.000,7687.000,81.000,-16.000,9.000,NA,0.000,0
2026-01-30 21:56:58,1552284,-1811.000,-3080.000,7675.000,-80.000,-101.000,73.000,NA,0.000,0
2026-01-30 21:56:58,1552324,-1724.000,-3118.000,7712.000,3.000,-135.000,39.000,NA,0.000,0
2026-01-30 21:56:58,1552364,-1644.000,-3012.000,7669.000,42.000,-204.000,-50.000,NA,0.000,0
2026-01-30 21:56:58,1552404,-1535.000,-2903.000,7611.000,28.000,-233.000,-122.000,NA,0.000,0
2026-01-30 21:56:58,1552444,-1432.000,-3037.000,7907.000,-52.000,-155.000,-77.000,NA,0.000,0
2026-01-30 21:56:58,1552484,-1552.000,-3358.000,7782.000,-2.000,-72.000,16.000,NA,0.000,0
2026-01-30 21:56:58,1552524,-1673.000,-3095.000,7346.000,111.000,-186.000,-51.000,NA,0.000,0
2026-01-30 21:56:58,1552564,-1650.000,-3149.000,7571.000,-119.000,-201.000,-42.000,NA,0.000,0
2026-01-30 21:56:58,1552604,-1478.000,-3148.000,7875.000,-37.000,-5.000,0.000,NA,0.000,0
2026-01-30 21:56:58,1552644,-1542.000,-3216.000,7753.000,126.000,41.000,-82.000,NA,0.000,0
2026-01-30 21:56:58,1552684,-1645.000,-3176.000,7652.000,11.000,-98.000,-98.000,NA,0.000,0
2026-01-30 21:56:58,1552724,-1555.000,-3043.000,7770.000,-48.000,-91.000,-28.000,NA,0.000,0
2026-01-30 21:56:58,1552764,-1640.000,-3099.000,7626.000,2.000,42.000,70.000,NA,0.000,0
2026-01-30 21:56:58,1552804,-1795.000,-2946.000,7371.000,88.000,-1.000,42.000,NA,0.000,0
2026-01-30 21:56:58,1552844,-1760.000,-3115.000,7835.000,-183.000,-55.000,11.000,NA,0.000,0
2026-01-30 21:56:58,1552884,-1785.000,-3594.000,7881.000,-9.000,56.000,44.000,NA,0.000,0
2026-01-30 21:56:58,1552924,-1751.000,-3292.000,7550.000,76.000,-71.000,-83.000,NA,0.000,0
2026-01-30 21:56:58,1552964,-1776.000,-3225.000,7811.000,-28.000,-128.000,-122.000,NA,0.000,0
2026-01-30 21:56:58,1553004,-1552.000,-3423.000,7605.000,-43.000,-97.000,-41.000,NA,0.000,0
2026-01-30 21:56:58,1553044,-1652.000,-3446.000,7260.000,58.000,-164.000,-20.000,NA,0.000,0
2026-01-30 21:56:58,1553084,-1678.000,-3282.000,7674.000,-49.000,-222.000,-49.000,NA,0.000,0
2026-01-30 21:56:58,1553124,-1481.000,-3300.000,7538.000,-21.000,-76.000,-7.000,NA,0.000,0
2026-01-30 21:56:58,1553164,-1502.000,-3466.000,7467.000,68.000,38.000,23.000,NA,0.000,0
2026-01-30 21:56:58,1553204,-1707.000,-3366.000,7231.000,86.000,-57.000,-28.000,NA,0.000,0
2026-01-30 21:56:58,1553244,-1755.000,-3637.000,7814.000,-150.000,-67.000,50.000,NA,0.000,0
2026-01-30 21:56:59,1553284,-1721.000,-3646.000,7416.000,93.000,93.000,119.000,NA,0.000,0
2026-01-30 21:56:59,1553324,-1714.000,-3433.000,7000.000,58.000,-28.000,-19.000,NA,0.000,0
2026-01-30 21:56:59,1553364,-1601.000,-3381.000,7565.000,-146.000,-78.000,-68.000,NA,0.000,0
2026-01-30 21:56:59,1553404,-1585.000,-3813.000,7567.000,-73.000,89.000,72.000,NA,0.000,0
2026-01-30 21:56:59,1553444,-1901.000,-3979.000,7417.000,-39.000,27.000,114.000,NA,0.000,0
2026-01-30 21:56:59,1553484,-2046.000,-3913.000,7477.000,-139.000,-157.000,136.000,NA,0.000,0
2026-01-30 21:56:59,1553524,-1831.000,-3918.000,7335.000,34.000,-166.000,82.000,NA,0.000,0
2026-01-30 21:56:59,1553564,-1613.000,-4131.000,7385.000,-140.000,-181.000,23.000,NA,0.000,0
2026-01-30 21:56:59,1553604,-1525.000,-4544.000,7887.000,-134.000,-54.000,51.000,NA,0.000,0
2026-01-30 21:56:59,1553644,-1603.000,-4189.000,6880.000,299.000,-150.000,-70.000,NA,0.000,0
2026-01-30 21:56:59,1553684,-1470.000,-4051.000,7117.000,3.000,-402.000,-100.000,NA,0.000,0
2026-01-30 21:56:59,1553724,-1233.000,-4309.000,7794.000,-179.000,-193.000,53.000,NA,0.000,0
2026-01-30 21:56:59,1553764,-1162.000,-4193.000,7006.000,174.000,-64.000,50.000,NA,0.000,0
2026-01-30 21:56:59,1553804,-1308.000,-4208.000,7207.000,-11.000,-189.000,-28.000,NA,0.000,0
2026-01-30 21:56:59,1553844,-1182.000,-4593.000,7439.000,-144.000,-71.000,109.000,NA,0.000,0
2026-01-30 21:56:59,1553886,-1075.000,-4361.000,6785.000,213.000,-81.000,12.000,NA,0.000,0
2026-01-30 21:56:59,1553924,-1236.000,-4500.000,7231.000,-143.000,-220.000,64.000,NA,0.000,0
2026-01-30 21:56:59,1553964,-1337.000,-4805.000,7988.000,-157.000,113.000,401.000,NA,0.000,0
2026-01-30 21:56:59,1554004,-1461.000,-4498.000,6818.000,326.000,37.000,339.000,NA,0.000,0
2026-01-30 21:56:59,1554044,-1528.000,-4447.000,6537.000,-7.000,-405.000,102.000,NA,0.000,0
2026-01-30 21:56:59,1554084,-1421.000,-4028.000,7225.000,60.000,-376.000,150.000,NA,0.000,0
2026-01-30 21:56:59,1554124,-1111.000,-4548.000,7141.000,-78.000,-55.000,286.000,NA,0.000,0
2026-01-30 21:56:59,1554164,-1357.000,-4438.000,7217.000,118.000,147.000,141.000,NA,0.000,0
2026-01-30 21:56:59,1554204,-1444.000,-4297.000,7297.000,66.000,51.000,139.000,NA,0.000,0
2026-01-30 21:56:59,1554244,-1212.000,-4111.000,7057.000,40.000,-18.000,15.000,NA,0.000,0
2026-01-30 21:57:00,1554284,-1156.000,-3936.000,6888.000,-94.000,3.000,-47.000,NA,0.000,0
2026-01-30 21:57:00,1554324,-1267.000,-4051.000,7753.000,-303.000,399.000,210.000,NA,0.000,0
2026-01-30 21:57:00,1554364,-1628.000,-4341.000,7641.000,-214.000,614.000,382.000,NA,0.000,0
2026-01-30 21:57:00,1554404,-1980.000,-4234.000,7579.000,34.000,439.000,318.000,NA,0.000,0
2026-01-30 21:57:00,1554444,-2222.000,-3741.000,7352.000,208.000,114.000,197.000,NA,0.000,0
2026-01-30 21:57:00,1554484,-2195.000,-3737.000,7196.000,-9.000,-43.000,201.000,NA,0.000,0
2026-01-30 21:57:00,1554524,-2245.000,-4211.000,7359.000,-217.000,120.000,339.000,NA,0.000,0
2026-01-30 21:57:00,1554564,-2655.000,-3864.000,7026.000,154.000,77.000,308.000,NA,0.000,0
2026-01-30 21:57:00,1554604,-2605.000,-3581.000,7318.000,-9.000,-32.000,120.000,NA,0.000,0
2026-01-30 21:57:00,1554644,-2226.000,-3842.000,7315.000,-74.000,-103.000,-1.000,NA,0.000,0
2026-01-30 21:57:00,1554684,-1970.000,-4105.000,7498.000,-62.000,-74.000,-139.000,NA,0.000,0
2026-01-30 21:57:00,1554724,-1845.000,-4101.000,7071.000,75.000,-99.000,-297.000,NA,0.000,0
2026-01-30 21:57:00,1554764,-1685.000,-3959.000,7084.000,66.000,-153.000,-340.000,NA,0.000,0
2026-01-30 21:57:00,1554804,-1496.000,-4252.000,7470.000,-192.000,-83.000,-214.000,NA,0.000,0
2026-01-30 21:57:00,1554844,-1489.000,-4602.000,7636.000,-73.000,61.000,-33.000,NA,0.000,0
2026-01-30 21:57:00,1554884,-1756.000,-4291.000,7336.000,157.000,-1.000,-2.000,NA,0.000,0
2026-01-30 21:57:00,1554924,-1903.000,-4023.000,7309.000,-59.000,-205.000,32.000,NA,0.000,0
2026-01-30 21:57:00,1554964,-1886.000,-4155.000,7317.000,-131.000,-81.000,146.000,NA,0.000,0
2026-01-30 21:57:00,1555004,-2055.000,-4212.000,7183.000,-33.000,22.000,163.000,NA,0.000,0
2026-01-30 21:57:00,1555044,-2331.000,-4041.000,7150.000,9.000,-15.000,85.000,NA,0.000,0
2026-01-30 21:57:00,1555084,-2526.000,-4012.000,7180.000,-58.000,-7.000,111.000,NA,0.000,0
2026-01-30 21:57:00,1555124,-2428.000,-4122.000,7231.000,-48.000,59.000,114.000,NA,0.000,0
2026-01-30 21:57:00,1555164,-2434.000,-4276.000,7188.000,86.000,82.000,42.000,NA,0.000,0
2026-01-30 21:57:00,1555204,-2526.000,-4109.000,6998.000,177.000,-20.000,-127.000,NA,0.000,0
2026-01-30 21:57:00,1555244,-2461.000,-4154.000,7263.000,-13.000,-65.000,-132.000,NA,0.000,0
2026-01-30 21:57:01,1555284,-2366.000,-4178.000,7057.000,104.000,-36.000,-35.000,NA,0.000,0
2026-01-30 21:57:01,1555324,-2427.000,-4143.000,6949.000,146.000,-154.000,-64.000,NA,0.000,0
2026-01-30 21:57:01,1555364,-2460.000,-4241.000,6889.000,49.000,-221.000,-29.000,NA,0.000,0
2026-01-30 21:57:01,1555404,-2326.000,-4216.000,6930.000,-11.000,-221.000,1.000,NA,0.000,0
2026-01-30 21:57:01,1555444,-2206.000,-4673.000,7167.000,-77.000,-175.000,9.000,NA,0.000,0
2026-01-30 21:57:01,1555484,-2133.000,-4492.000,6643.000,238.000,-304.000,-199.000,NA,0.000,0
2026-01-30 21:57:01,1555524,-1897.000,-4242.000,6925.000,89.000,-499.000,-328.000,NA,0.000,0
2026-01-30 21:57:01,1555564,-1610.000,-4361.000,7419.000,-177.000,-302.000,-198.000,NA,0.000,0
2026-01-30 21:57:01,1555604,-1421.000,-4694.000,7124.000,3.000,-94.000,-95.000,NA,0.000,0
2026-01-30 21:57:01,1555644,-1463.000,-4789.000,7086.000,68.000,-75.000,-99.000,NA,0.000,0
2026-01-30 21:57:01,1555686,-1425.000,-4424.000,6872.000,175.000,-313.000,-310.000,NA,0.000,0
2026-01-30 21:57:01,1555725,-1132.000,-4855.000,7692.000,-394.000,-150.000,-142.000,NA,0.000,0
2026-01-30 21:57:01,1555764,-1202.000,-5375.000,7971.000,-177.000,303.000,114.000,NA,0.000,0
2026-01-30 21:57:01,1555804,-1400.000,-5018.000,7102.000,195.000,145.000,38.000,NA,0.000,0
2026-01-30 21:57:01,1555844,-1590.000,-4477.000,7277.000,12.000,-199.000,23.000,NA,0.000,0
2026-01-30 21:57:01,1555886,-1466.000,-4671.000,6979.000,-163.000,-85.000,248.000,NA,0.000,0
2026-01-30 21:57:01,1555924,-1468.000,-4700.000,6855.000,-80.000,-26.000,293.000,NA,0.000,0
2026-01-30 21:57:01,1555964,-1878.000,-5180.000,7270.000,-255.000,149.000,374.000,NA,0.000,0
2026-01-30 21:57:01,1556004,-2378.000,-4507.000,7077.000,330.000,143.000,351.000,NA,0.000,0
2026-01-30 21:57:01,1556044,-2237.000,-4186.000,6558.000,280.000,-155.000,171.000,NA,0.000,0
2026-01-30 21:57:01,1556084,-2019.000,-4106.000,6759.000,180.000,-90.000,98.000,NA,0.000,0
