datetime_local,uptime_ms,acc_x,acc_y,acc_z,gyro_x,gyro_y,gyro_z,speed_mps,turn_rate_deg_s,gps_valid
2026-01-30 21:49:24,1099004,-1083.000,-3632.000,7771.000,-320.000,-154.000,-21.000,NA,0.000,0
2026-01-30 21:49:24,1099044,-1267.000,-4303.000,7534.000,-588.000,-324.000,-197.000,NA,0.000,0
2026-01-30 21:49:24,1099084,-1298.000,-3285.000,7393.000,382.000,87.000,-125.000,NA,0.000,0
2026-01-30 21:49:24,1099124,-1303.000,-3901.000,7416.000,-284.000,-107.000,-48.000,NA,0.000,0
2026-01-30 21:49:24,1099164,-1249.000,-4060.000,7492.000,44.000,-141.000,-70.000,NA,0.000,0
2026-01-30 21:49:24,1099204,-1294.000,-3829.000,7445.000,104.000,-138.000,-118.000,NA,0.000,0
2026-01-30 21:49:24,1099244,-1293.000,-4089.000,7305.000,-304.000,-133.000,-65.000,NA,0.000,0
2026-01-30 21:49:25,1099284,-1434.000,-4231.000,7245.000,-142.000,-34.000,-35.000,NA,0.000,0
2026-01-30 21:49:25,1099324,-1411.000,-4181.000,7236.000,-40.000,-34.000,-64.000,NA,0.000,0
2026-01-30 21:49:25,1099364,-1382.000,-4449.000,7143.000,-352.000,-37.000,21.000,NA,0.000,0
2026-01-30 21:49:25,1099404,-1576.000,-4370.000,7189.000,-75.000,41.000,21.000,NA,0.000,0
2026-01-30 21:49:25,1099444,-1493.000,-4386.000,7083.000,-22.000,-154.000,-168.000,NA,0.000,0
2026-01-30 21:49:25,1099484,-1384.000,-4291.000,7100.000,144.000,-134.000,-123.000,NA,0.000,0
2026-01-30 21:49:25,1099524,-1315.000,-4336.000,7169.000,73.000,-28.000,8.000,NA,0.000,0
2026-01-30 21:49:25,1099564,-1383.000,-4437.000,7100.000,378.000,80.000,-8.000,NA,0.000,0
2026-01-30 21:49:25,1099604,-1434.000,-4210.000,7053.000,767.000,116.000,-138.000,NA,0.000,0
2026-01-30 21:49:25,1099644,-1398.000,-4162.000,7140.000,1159.000,317.000,-176.000,NA,0.000,0
2026-01-30 21:49:25,1099684,-1473.000,-4626.000,7149.000,1635.000,384.000,-137.000,NA,0.000,0
2026-01-30 21:49:25,1099724,-771.000,-2764.000,7589.000,1668.000,185.000,960.000,NA,0.000,0
2026-01-30 21:49:25,1099764,-1434.000,-3667.000,7918.000,-107.000,280.000,154.000,NA,0.000,0
2026-01-30 21:49:25,1099804,-1131.000,-4187.000,8081.000,620.000,396.000,129.000,NA,0.000,0
2026-01-30 21:49:25,1099844,-1564.000,-3738.000,7653.000,870.000,677.000,-42.000,NA,0.000,0
2026-01-30 21:49:25,1099884,-1715.000,-3940.000,7494.000,962.000,1091.000,-210.000,NA,0.000,0
2026-01-30 21:49:25,1099924,-1818.000,-3134.000,7502.000,1589.000,1240.000,-411.000,NA,0.000,0
2026-01-30 21:49:25,1099964,-2053.000,-3643.000,7071.000,1143.000,1176.000,-568.000,NA,0.000,0
2026-01-30 21:49:25,1100004,-2122.000,-3863.000,7011.000,2007.000,1010.000,-824.000,NA,0.000,0
2026-01-30 21:49:25,1100044,-2018.000,-2973.000,7616.000,3196.000,998.000,-1199.000,NA,0.000,0
2026-01-30 21:49:25,1100084,-2206.000,-2326.000,7716.000,3081.000,911.000,-1326.000,NA,0.000,0
2026-01-30 21:49:25,1100124,-2168.000,-2496.000,7793.000,1516.000,774.000,-981.000,NA,0.000,0
2026-01-30 21:49:25,1100164,-2140.000,-2730.000,7917.000,809.000,631.000,-764.000,NA,0.000,0
2026-01-30 21:49:25,1100204,-2131.000,-2357.000,7923.000,581.000,537.000,-422.000,NA,0.000,0
2026-01-30 21:49:25,1100244,-2201.000,-2514.000,7578.000,-281.000,441.000,-20.000,NA,0.000,0
2026-01-30 21:49:26,1100284,-2207.000,-2759.000,7774.000,-419.000,180.000,86.000,NA,0.000,0
2026-01-30 21:49:26,1100324,-2318.000,-2736.000,7744.000,125.000,-12.000,-39.000,NA,0.000,0
2026-01-30 21:49:26,1100364,-2283.000,-2568.000,7904.000,242.000,-10.000,-134.000,NA,0.000,0
2026-01-30 21:49:26,1100404,-2301.000,-2659.000,7751.000,-73.000,213.000,-85.000,NA,0.000,0
2026-01-30 21:49:26,1100444,-2349.000,-2620.000,7648.000,2.000,314.000,-75.000,NA,0.000,0
2026-01-30 21:49:26,1100484,-2410.000,-2758.000,7537.000,198.000,129.000,-215.000,NA,0.000,0
2026-01-30 21:49:26,1100524,-2273.000,-2735.000,7766.000,596.000,11.000,-322.000,NA,0.000,0
2026-01-30 21:49:26,1100564,-2218.000,-2617.000,7825.000,501.000,107.000,-203.000,NA,0.000,0
2026-01-30 21:49:26,1100604,-2211.000,-2800.000,7696.000,157.000,221.000,6.000,NA,0.000,0
2026-01-30 21:49:26,1100644,-2263.000,-2853.000,7769.000,205.000,219.000,84.000,NA,0.000,0
2026-01-30 21:49:26,1100684,-2339.000,-2652.000,7780.000,372.000,217.000,150.000,NA,0.000,0
2026-01-30 21:49:26,1100724,-2555.000,-2418.000,7785.000,198.000,285.000,228.000,NA,0.000,0
2026-01-30 21:49:26,1100766,-2687.000,-2497.000,7517.000,-169.000,327.000,309.000,NA,0.000,0
2026-01-30 21:49:26,1100805,-2819.000,-2429.000,7556.000,-158.000,344.000,301.000,NA,0.000,0
2026-01-30 21:49:26,1100844,-2712.000,-2507.000,7703.000,-37.000,-122.000,16.000,NA,0.000,0
2026-01-30 21:49:26,1100884,-2519.000,-2735.000,7827.000,122.000,-198.000,-152.000,NA,0.000,0
2026-01-30 21:49:26,1100924,-2474.000,-2568.000,7875.000,154.000,-74.000,-152.000,NA,0.000,0
2026-01-30 21:49:26,1100964,-2507.000,-2677.000,7619.000,-138.000,93.000,-2.000,NA,0.000,0
2026-01-30 21:49:26,1101006,-2454.000,-2661.000,7654.000,18.000,0.000,84.000,NA,0.000,0
2026-01-30 21:49:26,1101044,-2506.000,-2750.000,7797.000,83.000,-114.000,70.000,NA,0.000,0
2026-01-30 21:49:26,1101084,-2515.000,-2482.000,7866.000,137.000,-59.000,129.000,NA,0.000,0
2026-01-30 21:49:26,1101124,-2637.000,-2456.000,7801.000,-113.000,68.000,169.000,NA,0.000,0
2026-01-30 21:49:26,1101164,-2519.000,-2556.000,7691.000,-154.000,-77.000,54.000,NA,0.000,0
2026-01-30 21:49:26,1101204,-2455.000,-2502.000,7643.000,23.000,-14.000,-69.000,NA,0.000,0
2026-01-30 21:49:26,1101244,-2609.000,-2552.000,7674.000,0.000,77.000,-78.000,NA,0.000,0
2026-01-30 21:49:27,1101284,-2487.000,-2567.000,7584.000,43.000,-39.000,-198.000,NA,0.000,0
2026-01-30 21:49:27,1101324,-2491.000,-2718.000,7539.000,92.000,-27.000,-287.000,NA,0.000,0
2026-01-30 21:49:27,1101364,-2476.000,-2725.000,7816.000,190.000,-133.000,-270.000,NA,0.000,0
2026-01-30 21:49:27,1101404,-2418.000,-2835.000,8174.000,285.000,-373.000,-264.000,NA,0.000,0
2026-01-30 21:49:27,1101444,-2438.000,-2598.000,8170.000,288.000,-320.000,-276.000,NA,0.000,0
2026-01-30 21:49:27,1101484,-2612.000,-2316.000,8308.000,-88.000,100.000,-243.000,NA,0.000,0
2026-01-30 21:49:27,1101524,-2994.000,-2066.000,7908.000,-258.000,456.000,-269.000,NA,0.000,0
2026-01-30 21:49:27,1101564,-3185.000,-2294.000,7775.000,-515.000,533.000,-648.000,NA,0.000,0
2026-01-30 21:49:27,1101604,-3503.000,-3095.000,7198.000,5.000,412.000,-1356.000,NA,0.000,0
2026-01-30 21:49:27,1101644,-2878.000,-2686.000,7379.000,931.000,-3.000,-1619.000,NA,0.000,0
2026-01-30 21:49:27,1101684,-2502.000,-2317.000,7993.000,631.000,-98.000,-1381.000,NA,0.000,0
2026-01-30 21:49:27,1101724,-2456.000,-2876.000,7661.000,-355.000,-116.000,-980.000,NA,0.000,0
2026-01-30 21:49:27,1101764,-2307.000,-2711.000,7687.000,286.000,-679.000,-1008.000,NA,0.000,0
2026-01-30 21:49:27,1101804,-1869.000,-2459.000,7627.000,497.000,-922.000,-1268.000,NA,0.000,0
2026-01-30 21:49:27,1101844,-849.000,-2179.000,8015.000,60.000,-955.000,-882.000,NA,0.000,0
2026-01-30 21:49:27,1101884,-864.000,-2663.000,7633.000,-732.000,-344.000,-530.000,NA,0.000,0
2026-01-30 21:49:27,1101924,-370.000,-2969.000,7519.000,-81.000,-399.000,-322.000,NA,0.000,0
2026-01-30 21:49:27,1101964,-368.000,-2690.000,7760.000,484.000,-313.000,-118.000,NA,0.000,0
2026-01-30 21:49:27,1102004,-1094.000,-2572.000,7722.000,429.000,-659.000,170.000,NA,0.000,0
2026-01-30 21:49:27,1102044,-1716.000,-2322.000,8022.000,409.000,-882.000,149.000,NA,0.000,0
2026-01-30 21:49:27,1102084,-1953.000,-2108.000,7942.000,239.000,-896.000,254.000,NA,0.000,0
2026-01-30 21:49:27,1102124,-2255.000,-2027.000,8022.000,107.000,-563.000,417.000,NA,0.000,0
2026-01-30 21:49:27,1102164,-2196.000,-1933.000,8343.000,54.000,-340.000,307.000,NA,0.000,0
2026-01-30 21:49:27,1102204,-1988.000,-2004.000,8353.000,52.000,-315.000,18.000,NA,0.000,0
2026-01-30 21:49:27,1102244,-1858.000,-2254.000,8533.000,-267.000,-347.000,-402.000,NA,0.000,0
2026-01-30 21:49:28,1102284,-2019.000,-2225.000,8014.000,-407.000,-426.000,-733.000,NA,0.000,0
2026-01-30 21:49:28,1102324,-2055.000,-1803.000,7350.000,-440.000,-548.000,-981.000,NA,0.000,0
2026-01-30 21:49:28,1102364,-1539.000,-2575.000,7104.000,-479.000,-1230.000,-1606.000,NA,0.000,0
2026-01-30 21:49:28,1102404,-1816.000,-2280.000,6746.000,2151.000,-2255.000,-2612.000,NA,0.000,0
2026-01-30 21:49:28,1102444,-1406.000,-2065.000,6429.000,3592.000,-3277.000,-2712.000,NA,0.000,0
2026-01-30 21:49:28,1102484,263.000,-2026.000,7888.000,4989.000,-4722.000,-3087.000,NA,0.000,0
2026-01-30 21:49:28,1102524,649.000,-1130.000,6994.000,5135.000,-5033.000,-2290.000,NA,0.000,0
2026-01-30 21:49:28,1102564,2651.000,767.000,9053.000,2878.000,-5466.000,-1601.000,NA,0.000,0
2026-01-30 21:49:28,1102604,2608.000,-711.000,9415.000,432.000,-3942.000,-1347.000,NA,0.000,0
2026-01-30 21:49:28,1102644,2375.000,-340.000,8372.000,2710.000,-3645.000,-1497.000,NA,0.000,0
2026-01-30 21:49:28,1102684,3818.000,1190.000,9017.000,2454.000,-3505.000,-1593.000,NA,0.000,0
2026-01-30 21:49:28,1102724,3393.000,-1422.000,10626.000,-2272.000,-487.000,321.000,NA,0.000,0
2026-01-30 21:49:28,1102766,1677.000,-1365.000,8047.000,437.000,100.000,549.000,NA,0.000,0
2026-01-30 21:49:28,1102805,1647.000,66.000,6609.000,1005.000,-726.000,534.000,NA,0.000,0
2026-01-30 21:49:28,1102844,2560.000,-132.000,8047.000,383.000,-1308.000,379.000,NA,0.000,0
2026-01-30 21:49:28,1102884,3079.000,-902.000,9480.000,474.000,-747.000,703.000,NA,0.000,0
2026-01-30 21:49:28,1102924,2777.000,145.000,8441.000,1415.000,229.000,475.000,NA,0.000,0
2026-01-30 21:49:28,1102964,2025.000,241.000,7462.000,641.000,498.000,255.000,NA,0.000,0
2026-01-30 21:49:28,1103006,2394.000,10.000,8224.000,541.000,272.000,7.000,NA,0.000,0
2026-01-30 21:49:28,1103044,1628.000,542.000,8043.000,15.000,434.000,110.000,NA,0.000,0
2026-01-30 21:49:28,1103084,1841.000,-305.000,8431.000,-555.000,136.000,37.000,NA,0.000,0
2026-01-30 21:49:28,1103124,2238.000,-665.000,8038.000,-282.000,174.000,70.000,NA,0.000,0
2026-01-30 21:49:28,1103164,2419.000,-445.000,7829.000,306.000,156.000,133.000,NA,0.000,0
2026-01-30 21:49:28,1103204,2441.000,-293.000,8304.000,456.000,-178.000,-47.000,NA,0.000,0
2026-01-30 21:49:28,1103244,2482.000,5.000,8177.000,590.000,-203.000,-73.000,NA,0.000,0
2026-01-30 21:49:29,1103284,2622.000,133.000,8085.000,720.000,-61.000,15.000,NA,0.000,0
2026-01-30 21:49:29,1103324,2733.000,153.000,8394.000,546.000,-51.000,-12.000,NA,0.000,0
2026-01-30 21:49:29,1103364,2455.000,259.000,8653.000,481.000,-70.000,-41.000,NA,0.000,0
2026-01-30 21:49:29,1103404,2228.000,519.000,8157.000,304.000,-38.000,-47.000,NA,0.000,0
2026-01-30 21:49:29,1103444,2281.000,465.000,7914.000,-51.000,-35.000,-3.000,NA,0.000,0
2026-01-30 21:49:29,1103484,2437.000,222.000,7986.000,-64.000,64.000,24.000,NA,0.000,0
2026-01-30 21:49:29,1103524,2210.000,325.000,8022.000,497.000,159.000,56.000,NA,0.000,0
2026-01-30 21:49:29,1103564,2073.000,790.000,8013.000,841.000,49.000,75.000,NA,0.000,0
2026-01-30 21:49:29,1103604,2125.000,1369.000,7960.000,868.000,-17.000,-20.000,NA,0.000,0
2026-01-30 21:49:29,1103644,2297.000,1692.000,7890.000,243.000,21.000,-130.000,NA,0.000,0
2026-01-30 21:49:29,1103684,2359.000,1355.000,8185.000,-327.000,86.000,-205.000,NA,0.000,0
2026-01-30 21:49:29,1103724,2245.000,917.000,8127.000,-488.000,131.000,-149.000,NA,0.000,0
2026-01-30 21:49:29,1103764,2110.000,796.000,8073.000,-369.000,34.000,-100.000,NA,0.000,0
2026-01-30 21:49:29,1103804,2083.000,822.000,8082.000,-100.000,-75.000,-49.000,NA,0.000,0
2026-01-30 21:49:29,1103844,2177.000,1092.000,8052.000,374.000,-156.000,45.000,NA,0.000,0
2026-01-30 21:49:29,1103884,2474.000,1571.000,8206.000,315.000,-167.000,53.000,NA,0.000,0
2026-01-30 21:49:29,1103924,2382.000,1157.000,8115.000,-444.000,-189.000,-86.000,NA,0.000,0
2026-01-30 21:49:29,1103964,2308.000,872.000,8074.000,-590.000,-172.000,-34.000,NA,0.000,0
2026-01-30 21:49:29,1104004,2545.000,738.000,7980.000,-568.000,-158.000,60.000,NA,0.000,0
2026-01-30 21:49:29,1104044,2613.000,533.000,8031.000,-525.000,-109.000,99.000,NA,0.000,0
2026-01-30 21:49:29,1104084,2401.000,607.000,8006.000,-296.000,-75.000,133.000,NA,0.000,0
2026-01-30 21:49:29,1104124,2387.000,556.000,8118.000,-182.000,-26.000,144.000,NA,0.000,0
2026-01-30 21:49:29,1104164,2637.000,566.000,8252.000,-77.000,81.000,215.000,NA,0.000,0
2026-01-30 21:49:29,1104204,2521.000,452.000,8163.000,-352.000,84.000,193.000,NA,0.000,0
2026-01-30 21:49:29,1104244,2138.000,245.000,7899.000,-673.000,45.000,148.000,NA,0.000,0
2026-01-30 21:49:30,1104284,2311.000,20.000,7744.000,-347.000,95.000,341.000,NA,0.000,0
2026-01-30 21:49:30,1104324,2713.000,17.000,8270.000,-201.000,55.000,421.000,NA,0.000,0
2026-01-30 21:49:30,1104364,2349.000,-159.000,8411.000,-571.000,98.000,309.000,NA,0.000,0
2026-01-30 21:49:30,1104404,1898.000,-305.000,8109.000,-680.000,-12.000,273.000,NA,0.000,0
2026-01-30 21:49:30,1104444,2086.000,-516.000,7896.000,-543.000,-116.000,338.000,NA,0.000,0
2026-01-30 21:49:30,1104484,2468.000,-665.000,8186.000,3.000,-8.000,341.000,NA,0.000,0
2026-01-30 21:49:30,1104524,2482.000,-531.000,8282.000,282.000,37.000,260.000,NA,0.000,0
2026-01-30 21:49:30,1104564,2274.000,-346.000,8055.000,92.000,-91.000,115.000,NA,0.000,0
2026-01-30 21:49:30,1104604,2517.000,-538.000,8006.000,65.000,-115.000,45.000,NA,0.000,0
2026-01-30 21:49:30,1104644,2873.000,-207.000,8468.000,673.000,66.000,63.000,NA,0.000,0
2026-01-30 21:49:30,1104684,2339.000,270.000,7911.000,143.000,-194.000,-139.000,NA,0.000,0
2026-01-30 21:49:30,1104724,2287.000,-309.000,7591.000,-439.000,-96.000,-76.000,NA,0.000,0
2026-01-30 21:49:30,1104764,2886.000,-526.000,7990.000,255.000,349.000,308.000,NA,0.000,0
2026-01-30 21:49:30,1104804,2464.000,-417.000,8701.000,566.000,624.000,412.000,NA,0.000,0
2026-01-30 21:49:30,1104846,1543.000,-247.000,8862.000,339.000,502.000,302.000,NA,0.000,0
2026-01-30 21:49:30,1104885,1430.000,30.000,8183.000,213.000,212.000,309.000,NA,0.000,0
2026-01-30 21:49:30,1104924,1750.000,-12.000,7691.000,-282.000,12.000,177.000,NA,0.000,0
2026-01-30 21:49:30,1104964,2194.000,-486.000,7627.000,-414.000,-86.000,23.000,NA,0.000,0
2026-01-30 21:49:30,1105006,2868.000,-727.000,8087.000,250.000,-92.000,-35.000,NA,0.000,0
2026-01-30 21:49:30,1105044,2592.000,-268.000,7959.000,358.000,-287.000,-71.000,NA,0.000,0
2026-01-30 21:49:30,1105084,2516.000,-123.000,7817.000,173.000,-385.000,-43.000,NA,0.000,0
2026-01-30 21:49:30,1105124,2758.000,-88.000,7920.000,299.000,-189.000,108.000,NA,0.000,0
2026-01-30 21:49:30,1105164,2862.000,-112.000,8589.000,450.000,-23.000,222.000,NA,0.000,0
2026-01-30 21:49:30,1105204,2520.000,81.000,8643.000,275.000,22.000,158.000,NA,0.000,0
2026-01-30 21:49:30,1105244,2041.000,119.000,7968.000,-164.000,-37.000,81.000,NA,0.000,0
2026-01-30 21:49:31,1105284,2426.000,-94.000,7821.000,-174.000,-20.000,110.000,NA,0.000,0
2026-01-30 21:49:31,1105324,2685.000,-189.000,7806.000,-129.000,90.000,86.000,NA,0.000,0
2026-01-30 21:49:31,1105364,2453.000,-281.000,7665.000,-225.000,70.000,79.000,NA,0.000,0
2026-01-30 21:49:31,1105404,2444.000,-279.000,8094.000,9.000,56.000,185.000,NA,0.000,0
2026-01-30 21:49:31,1105444,2563.000,19.000,8453.000,211.000,238.000,300.000,NA,0.000,0
2026-01-30 21:49:31,1105484,2339.000,-8.000,8396.000,-13.000,177.000,227.000,NA,0.000,0
2026-01-30 21:49:31,1105524,2219.000,-256.000,8229.000,-240.000,-8.000,157.000,NA,0.000,0
2026-01-30 21:49:31,1105564,2404.000,-380.000,8317.000,-130.000,-42.000,115.000,NA,0.000,0
2026-01-30 21:49:31,1105604,2324.000,-280.000,8260.000,-7.000,6.000,60.000,NA,0.000,0
2026-01-30 21:49:31,1105644,2203.000,-156.000,8157.000,43.000,-37.000,10.000,NA,0.000,0
2026-01-30 21:49:31,1105684,2270.000,-76.000,8114.000,90.000,-38.000,30.000,NA,0.000,0
2026-01-30 21:49:31,1105724,2247.000,-2.000,8015.000,-27.000,-42.000,30.000,NA,0.000,0
2026-01-30 21:49:31,1105764,2200.000,-264.000,8003.000,-129.000,-44.000,10.000,NA,0.000,0
2026-01-30 21:49:31,1105804,2481.000,-83.000,8407.000,305.000,142.000,124.000,NA,0.000,0
2026-01-30 21:49:31,1105844,2159.000,41.000,8486.000,107.000,62.000,37.000,NA,0.000,0
2026-01-30 21:49:31,1105884,1844.000,108.000,8137.000,-191.000,-79.000,-25.000,NA,0.000,0
2026-01-30 21:49:31,1105924,2023.000,-6.000,7825.000,-388.000,-112.000,-17.000,NA,0.000,0
2026-01-30 21:49:31,1105964,2268.000,-317.000,7977.000,-342.000,-31.000,6.000,NA,0.000,0
2026-01-30 21:49:31,1106004,2281.000,-449.000,8252.000,-108.000,32.000,50.000,NA,0.000,0
2026-01-30 21:49:31,1106044,2150.000,-338.000,8214.000,9.000,27.000,45.000,NA,0.000,0
2026-01-30 21:49:31,1106084,1928.000,-286.000,8496.000,16.000,-95.000,3.000,NA,0.000,0
2026-01-30 21:49:31,1106124,1914.000,135.000,8474.000,-269.000,-143.000,-42.000,NA,0.000,0
2026-01-30 21:49:31,1106164,2191.000,-209.000,8775.000,-957.000,-269.000,-162.000,NA,0.000,0
2026-01-30 21:49:31,1106204,2287.000,-177.000,8979.000,-1190.000,214.000,-146.000,NA,0.000,0
2026-01-30 21:49:31,1106244,2335.000,-137.000,8998.000,-1815.000,272.000,-282.000,NA,0.000,0
2026-01-30 21:49:32,1106284,2796.000,-909.000,8967.000,-2745.000,631.000,-196.000,NA,0.000,0
2026-01-30 21:49:32,1106324,2455.000,-1359.000,9120.000,-2601.000,1255.000,-310.000,NA,0.000,0
2026-01-30 21:49:32,1106364,2627.000,-2427.000,9344.000,-2713.000,1947.000,-569.000,NA,0.000,0
2026-01-30 21:49:32,1106404,2216.000,-2169.000,10248.000,-709.000,3475.000,-871.000,NA,0.000,0
2026-01-30 21:49:32,1106444,1210.000,-1029.000,10524.000,399.000,4543.000,-1321.000,NA,0.000,0
2026-01-30 21:49:32,1106484,963.000,-809.000,9810.000,-1596.000,4838.000,-1562.000,NA,0.000,0
2026-01-30 21:49:32,1106524,115.000,-1576.000,8988.000,-3108.000,5382.000,-1396.000,NA,0.000,0
2026-01-30 21:49:32,1106564,-397.000,-1926.000,7485.000,-3029.000,4784.000,-1529.000,NA,0.000,0
2026-01-30 21:49:32,1106604,-1221.000,-2761.000,6573.000,-2282.000,4582.000,-1613.000,NA,0.000,0
2026-01-30 21:49:32,1106644,-1102.000,-2193.000,6943.000,-888.000,3392.000,-1564.000,NA,0.000,0
2026-01-30 21:49:32,1106684,-1300.000,-1806.000,6236.000,-1577.000,2582.000,-942.000,NA,0.000,0
2026-01-30 21:49:32,1106724,-873.000,-2787.000,6372.000,-3301.000,1466.000,-293.000,NA,0.000,0
2026-01-30 21:49:32,1106764,-955.000,-3166.000,5777.000,-2571.000,635.000,-89.000,NA,0.000,0
2026-01-30 21:49:32,1106806,-817.000,-3410.000,5828.000,-1222.000,-73.000,-29.000,NA,0.000,0
2026-01-30 21:49:32,1106845,-926.000,-3297.000,6376.000,537.000,-512.000,-95.000,NA,0.000,0
2026-01-30 21:49:32,1106884,-1079.000,-2824.000,6597.000,1146.000,-890.000,-32.000,NA,0.000,0
2026-01-30 21:49:32,1106924,-1105.000,-3016.000,7181.000,1322.000,-1180.000,136.000,NA,0.000,0
2026-01-30 21:49:32,1106964,-321.000,-2486.000,7448.000,1428.000,-1236.000,317.000,NA,0.000,0
2026-01-30 21:49:32,1107006,-819.000,-2223.000,7805.000,1186.000,-574.000,199.000,NA,0.000,0
2026-01-30 21:49:32,1107044,-632.000,-2507.000,7988.000,1221.000,-410.000,77.000,NA,0.000,0
2026-01-30 21:49:32,1107084,-1005.000,-2305.000,8300.000,1430.000,-298.000,-156.000,NA,0.000,0
2026-01-30 21:49:32,1107124,-1196.000,-2481.000,8685.000,420.000,-550.000,-223.000,NA,0.000,0
2026-01-30 21:49:32,1107164,-925.000,-2734.000,8328.000,-94.000,-778.000,-39.000,NA,0.000,0
2026-01-30 21:49:32,1107204,-840.000,-2668.000,8035.000,286.000,-399.000,103.000,NA,0.000,0
2026-01-30 21:49:32,1107244,-772.000,-2293.000,7947.000,1086.000,-167.000,29.000,NA,0.000,0
2026-01-30 21:49:33,1107284,-461.000,-1783.000,7922.000,1088.000,-410.000,-31.000,NA,0.000,0
2026-01-30 21:49:33,1107324,-199.000,-2301.000,8022.000,-374.000,-583.000,-91.000,NA,0.000,0
2026-01-30 21:49:33,1107364,-830.000,-2535.000,8519.000,242.000,-623.000,-382.000,NA,0.000,0
2026-01-30 21:49:33,1107404,-346.000,-2624.000,9416.000,116.000,-239.000,-254.000,NA,0.000,0
2026-01-30 21:49:33,1107444,-979.000,-2213.000,7939.000,688.000,10.000,-157.000,NA,0.000,0
2026-01-30 21:49:33,1107484,-597.000,-1730.000,7357.000,869.000,-374.000,20.000,NA,0.000,0
2026-01-30 21:49:33,1107524,19.000,-2188.000,7960.000,1028.000,-318.000,74.000,NA,0.000,0
2026-01-30 21:49:33,1107564,133.000,-2544.000,8959.000,1575.000,-206.000,156.000,NA,0.000,0
2026-01-30 21:49:33,1107604,-86.000,-2138.000,9400.000,2212.000,-107.000,406.000,NA,0.000,0
2026-01-30 21:49:33,1107644,-1709.000,-992.000,8547.000,1890.000,470.000,303.000,NA,0.000,0
2026-01-30 21:49:33,1107684,-461.000,-297.000,8563.000,1333.000,-286.000,288.000,NA,0.000,0
2026-01-30 21:49:33,1107724,-327.000,-978.000,7893.000,-13.000,-97.000,26.000,NA,0.000,0
2026-01-30 21:49:33,1107764,382.000,-1467.000,8452.000,-246.000,27.000,-322.000,NA,0.000,0
2026-01-30 21:49:33,1107804,160.000,-1339.000,8242.000,635.000,-75.000,-313.000,NA,0.000,0
2026-01-30 21:49:33,1107844,-609.000,-175.000,8159.000,719.000,-106.000,-177.000,NA,0.000,0
2026-01-30 21:49:33,1107884,-513.000,-534.000,8707.000,209.000,-52.000,-186.000,NA,0.000,0
2026-01-30 21:49:33,1107924,-731.000,-491.000,8284.000,486.000,287.000,-188.000,NA,0.000,0
2026-01-30 21:49:33,1107964,-388.000,-544.000,8230.000,329.000,399.000,-173.000,NA,0.000,0
2026-01-30 21:49:33,1108004,-594.000,-189.000,8307.000,615.000,425.000,-278.000,NA,0.000,0
2026-01-30 21:49:33,1108044,-972.000,-233.000,8760.000,515.000,460.000,-287.000,NA,0.000,0
2026-01-30 21:49:33,1108084,-691.000,71.000,8069.000,402.000,590.000,-115.000,NA,0.000,0
2026-01-30 21:49:33,1108124,-701.000,101.000,8422.000,-67.000,482.000,-142.000,NA,0.000,0
2026-01-30 21:49:33,1108164,-990.000,-160.000,8424.000,520.000,573.000,-207.000,NA,0.000,0
2026-01-30 21:49:33,1108204,-1089.000,416.000,8380.000,906.000,459.000,-244.000,NA,0.000,0
2026-01-30 21:49:33,1108244,-895.000,441.000,8541.000,301.000,483.000,-199.000,NA,0.000,0
2026-01-30 21:49:34,1108284,-1194.000,660.000,8486.000,641.000,730.000,-164.000,NA,0.000,0
2026-01-30 21:49:34,1108324,-1120.000,696.000,8640.000,120.000,648.000,-126.000,NA,0.000,0
2026-01-30 21:49:34,1108364,-1306.000,273.000,8728.000,13.000,485.000,-33.000,NA,0.000,0
2026-01-30 21:49:34,1108404,-1154.000,339.000,9104.000,-32.000,150.000,78.000,NA,0.000,0
2026-01-30 21:49:34,1108444,-1172.000,559.000,8510.000,-587.000,-82.000,236.000,NA,0.000,0
2026-01-30 21:49:34,1108484,-1012.000,-294.000,8583.000,-1154.000,-387.000,382.000,NA,0.000,0
2026-01-30 21:49:34,1108524,-894.000,-529.000,8469.000,-879.000,-477.000,500.000,NA,0.000,0
2026-01-30 21:49:34,1108564,-1052.000,-726.000,8283.000,-486.000,-545.000,576.000,NA,0.000,0
2026-01-30 21:49:34,1108604,-918.000,-839.000,8561.000,-386.000,-653.000,593.000,NA,0.000,0
2026-01-30 21:49:34,1108644,-954.000,-935.000,8289.000,-304.000,-543.000,547.000,NA,0.000,0
2026-01-30 21:49:34,1108684,-836.000,-665.000,8418.000,-409.000,-462.000,513.000,NA,0.000,0
2026-01-30 21:49:34,1108724,-549.000,-964.000,8165.000,-572.000,-332.000,472.000,NA,0.000,0
2026-01-30 21:49:34,1108764,-577.000,-1015.000,8362.000,-238.000,-227.000,308.000,NA,0.000,0
2026-01-30 21:49:34,1108806,-514.000,-1058.000,8457.000,-34.000,-157.000,240.000,NA,0.000,0
2026-01-30 21:49:34,1108845,-525.000,-843.000,8339.000,-196.000,82.000,113.000,NA,0.000,0
2026-01-30 21:49:34,1108884,-404.000,-1064.000,8259.000,-79.000,171.000,20.000,NA,0.000,0
2026-01-30 21:49:34,1108924,-296.000,-899.000,8635.000,165.000,107.000,-15.000,NA,0.000,0
2026-01-30 21:49:34,1108964,-306.000,-631.000,8645.000,166.000,114.000,58.000,NA,0.000,0
2026-01-30 21:49:34,1109006,-349.000,-785.000,8456.000,-24.000,265.000,128.000,NA,0.000,0
2026-01-30 21:49:34,1109044,-578.000,-1047.000,8557.000,67.000,140.000,167.000,NA,0.000,0
2026-01-30 21:49:34,1109084,-642.000,-990.000,8788.000,79.000,-88.000,185.000,NA,0.000,0
2026-01-30 21:49:34,1109124,-565.000,-645.000,8715.000,-176.000,-162.000,271.000,NA,0.000,0
2026-01-30 21:49:34,1109164,-744.000,-885.000,8253.000,-508.000,-63.000,225.000,NA,0.000,0
2026-01-30 21:49:34,1109204,-714.000,-1456.000,8316.000,-515.000,-99.000,228.000,NA,0.000,0
2026-01-30 21:49:34,1109244,-747.000,-1142.000,8407.000,315.000,-24.000,210.000,NA,0.000,0
2026-01-30 21:49:35,1109284,-832.000,-1006.000,8487.000,64.000,-66.000,131.000,NA,0.000,0
2026-01-30 21:49:35,1109324,-565.000,-971.000,8402.000,22.000,-11.000,109.000,NA,0.000,0
2026-01-30 21:49:35,1109364,-667.000,-1109.000,7994.000,60.000,159.000,63.000,NA,0.000,0
2026-01-30 21:49:35,1109404,-818.000,-1141.000,8193.000,86.000,102.000,38.000,NA,0.000,0
2026-01-30 21:49:35,1109444,-619.000,-949.000,8717.000,320.000,68.000,34.000,NA,0.000,0
2026-01-30 21:49:35,1109484,-982.000,-770.000,8422.000,174.000,92.000,43.000,NA,0.000,0
2026-01-30 21:49:35,1109524,-812.000,-875.000,8391.000,-110.000,105.000,111.000,NA,0.000,0
2026-01-30 21:49:35,1109564,-813.000,-1012.000,8493.000,-159.000,-31.000,133.000,NA,0.000,0
2026-01-30 21:49:35,1109604,-901.000,-1053.000,8262.000,-247.000,-32.000,189.000,NA,0.000,0
2026-01-30 21:49:35,1109644,-805.000,-1008.000,8338.000,-108.000,-140.000,191.000,NA,0.000,0
2026-01-30 21:49:35,1109684,-746.000,-1212.000,8550.000,-473.000,-185.000,165.000,NA,0.000,0
2026-01-30 21:49:35,1109724,-717.000,-1331.000,8400.000,-255.000,-183.000,166.000,NA,0.000,0
2026-01-30 21:49:35,1109764,-848.000,-1179.000,8234.000,-174.000,-61.000,169.000,NA,0.000,0
2026-01-30 21:49:35,1109804,-565.000,-1292.000,8408.000,-54.000,-160.000,158.000,NA,0.000,0
2026-01-30 21:49:35,1109844,-599.000,-1134.000,8275.000,-13.000,-161.000,132.000,NA,0.000,0
2026-01-30 21:49:35,1109884,-437.000,-1173.000,8297.000,-126.000,-240.000,140.000,NA,0.000,0
2026-01-30 21:49:35,1109924,-463.000,-1458.000,8153.000,-304.000,-75.000,140.000,NA,0.000,0
2026-01-30 21:49:35,1109964,-511.000,-1497.000,8164.000,-66.000,-106.000,138.000,NA,0.000,0
2026-01-30 21:49:35,1110004,-546.000,-1361.000,8569.000,-19.000,9.000,140.000,NA,0.000,0
2026-01-30 21:49:35,1110044,-338.000,-1387.000,8692.000,-52.000,-131.000,142.000,NA,0.000,0
2026-01-30 21:49:35,1110084,-558.000,-1364.000,8251.000,-133.000,-110.000,111.000,NA,0.000,0
2026-01-30 21:49:35,1110124,-548.000,-1507.000,8158.000,-381.000,-382.000,85.000,NA,0.000,0
2026-01-30 21:49:35,1110164,-638.000,-1365.000,8233.000,-407.000,-315.000,143.000,NA,0.000,0
2026-01-30 21:49:35,1110204,-333.000,-1609.000,8388.000,-585.000,-172.000,210.000,NA,0.000,0
2026-01-30 21:49:35,1110244,-678.000,-1854.000,8101.000,-298.000,-20.000,144.000,NA,0.000,0
2026-01-30 21:49:36,1110284,-445.000,-1563.000,8452.000,-119.000,-327.000,109.000,NA,0.000,0
2026-01-30 21:49:36,1110324,-198.000,-1339.000,8255.000,-337.000,-401.000,21.000,NA,0.000,0
2026-01-30 21:49:36,1110364,-481.000,-1251.000,7729.000,-293.000,-183.000,47.000,NA,0.000,0
2026-01-30 21:49:36,1110404,-227.000,-1766.000,7915.000,-210.000,107.000,102.000,NA,0.000,0
2026-01-30 21:49:36,1110444,-858.000,-1777.000,7958.000,230.000,173.000,99.000,NA,0.000,0
2026-01-30 21:49:36,1110484,-802.000,-1662.000,8847.000,49.000,-134.000,65.000,NA,0.000,0
2026-01-30 21:49:36,1110524,-937.000,-1438.000,8577.000,-436.000,-172.000,41.000,NA,0.000,0
2026-01-30 21:49:36,1110564,-795.000,-1495.000,8057.000,-744.000,-240.000,50.000,NA,0.000,0
2026-01-30 21:49:36,1110604,-491.000,-1985.000,8077.000,-701.000,-240.000,77.000,NA,0.000,0
2026-01-30 21:49:36,1110644,-332.000,-2356.000,8481.000,-374.000,-247.000,76.000,NA,0.000,0
2026-01-30 21:49:36,1110684,-200.000,-2148.000,8726.000,149.000,-7.000,203.000,NA,0.000,0
2026-01-30 21:49:36,1110724,-761.000,-1597.000,8366.000,235.000,-32.000,27.000,NA,0.000,0
2026-01-30 21:49:36,1110764,-606.000,-1840.000,8382.000,-320.000,-271.000,-43.000,NA,0.000,0
2026-01-30 21:49:36,1110804,-197.000,-1589.000,7836.000,-523.000,-308.000,128.000,NA,0.000,0
2026-01-30 21:49:36,1110844,-425.000,-2128.000,7687.000,-848.000,56.000,240.000,NA,0.000,0
2026-01-30 21:49:36,1110884,-475.000,-2651.000,8279.000,-508.000,40.000,239.000,NA,0.000,0
2026-01-30 21:49:36,1110924,-1056.000,-2741.000,8482.000,-57.000,-67.000,72.000,NA,0.000,0
2026-01-30 21:49:36,1110964,-343.000,-1808.000,9018.000,231.000,-420.000,-57.000,NA,0.000,0
2026-01-30 21:49:36,1111006,16.000,-1807.000,7706.000,-187.000,361.000,104.000,NA,0.000,0
2026-01-30 21:49:36,1111044,-443.000,-2060.000,6828.000,444.000,605.000,-62.000,NA,0.000,0
2026-01-30 21:49:36,1111084,-655.000,-2784.000,8464.000,316.000,-25.000,-131.000,NA,0.000,0
2026-01-30 21:49:36,1111124,-218.000,-880.000,8582.000,647.000,-146.000,-51.000,NA,0.000,0
2026-01-30 21:49:36,1111164,-549.000,-1282.000,7227.000,-238.000,271.000,71.000,NA,0.000,0
2026-01-30 21:49:36,1111204,-399.000,-2439.000,7959.000,-302.000,577.000,6.000,NA,0.000,0
2026-01-30 21:49:36,1111244,-227.000,-2511.000,8637.000,606.000,362.000,-65.000,NA,0.000,0
2026-01-30 21:49:37,1111284,-460.000,-1930.000,9116.000,561.000,504.000,64.000,NA,0.000,0
2026-01-30 21:49:37,1111324,-668.000,-1214.000,8744.000,392.000,149.000,-102.000,NA,0.000,0
2026-01-30 21:49:37,1111364,-630.000,-1831.000,8233.000,-397.000,97.000,-39.000,NA,0.000,0
2026-01-30 21:49:37,1111404,-184.000,-1601.000,7907.000,31.000,19.000,115.000,NA,0.000,0
2026-01-30 21:49:37,1111444,-716.000,-1708.000,8003.000,293.000,50.000,190.000,NA,0.000,0
2026-01-30 21:49:37,1111484,-257.000,-1937.000,9022.000,-408.000,39.000,164.000,NA,0.000,0
2026-01-30 21:49:37,1111524,-868.000,-1592.000,7554.000,-116.000,38.000,81.000,NA,0.000,0
2026-01-30 21:49:37,1111564,-517.000,-2348.000,8872.000,-107.000,11.000,-99.000,NA,0.000,0
2026-01-30 21:49:37,1111604,-1478.000,-1441.000,7891.000,940.000,349.000,-227.000,NA,0.000,0
2026-01-30 21:49:37,1111644,-1407.000,-669.000,7773.000,387.000,-106.000,-191.000,NA,0.000,0
2026-01-30 21:49:37,1111684,-859.000,-302.000,8232.000,158.000,-57.000,-142.000,NA,0.000,0
2026-01-30 21:49:37,1111724,-1434.000,-718.000,7429.000,-237.000,458.000,-127.000,NA,0.000,0
2026-01-30 21:49:37,1111764,-1584.000,-1309.000,6859.000,-835.000,-93.000,-79.000,NA,0.000,0
2026-01-30 21:49:37,1111804,-210.000,-2244.000,8988.000,-1400.000,-262.000,-43.000,NA,0.000,0
2026-01-30 21:49:37,1111844,-269.000,-2378.000,8373.000,-20.000,918.000,361.000,NA,0.000,0
2026-01-30 21:49:37,1111884,-1069.000,-2389.000,10126.000,745.000,947.000,317.000,NA,0.000,0
2026-01-30 21:49:37,1111924,-1206.000,-2712.000,11478.000,-205.000,-97.000,64.000,NA,0.000,0
2026-01-30 21:49:37,1111964,-1121.000,-1984.000,9198.000,-306.000,-219.000,55.000,NA,0.000,0
2026-01-30 21:49:37,1112004,-1222.000,-1001.000,7266.000,-239.000,-415.000,42.000,NA,0.000,0
2026-01-30 21:49:37,1112044,-1128.000,-733.000,6748.000,190.000,-435.000,-190.000,NA,0.000,0
2026-01-30 21:49:37,1112084,-676.000,-943.000,6757.000,405.000,146.000,-236.000,NA,0.000,0
2026-01-30 21:49:37,1112124,-681.000,-748.000,6118.000,1484.000,910.000,-153.000,NA,0.000,0
2026-01-30 21:49:37,1112164,-896.000,-86.000,6545.000,1930.000,1335.000,-370.000,NA,0.000,0
2026-01-30 21:49:37,1112204,-988.000,397.000,7428.000,1741.000,1091.000,-550.000,NA,0.000,0
2026-01-30 21:49:37,1112244,-1165.000,30.000,7968.000,1038.000,1464.000,-487.000,NA,0.000,0
2026-01-30 21:49:38,1112284,-1849.000,-525.000,7509.000,1789.000,1883.000,-83.000,NA,0.000,0
2026-01-30 21:49:38,1112324,-2355.000,-355.000,9894.000,2198.000,1175.000,-111.000,NA,0.000,0
2026-01-30 21:49:38,1112364,-2477.000,544.000,11876.000,1833.000,961.000,-178.000,NA,0.000,0
2026-01-30 21:49:38,1112404,-2818.000,777.000,11344.000,-1332.000,983.000,-70.000,NA,0.000,0
2026-01-30 21:49:38,1112444,-2324.000,-141.000,8536.000,-3110.000,694.000,164.000,NA,0.000,0
2026-01-30 21:49:38,1112484,-1786.000,-748.000,7853.000,-2859.000,-182.000,190.000,NA,0.000,0
2026-01-30 21:49:38,1112524,-1678.000,-1552.000,8226.000,-2894.000,-595.000,245.000,NA,0.000,0
2026-01-30 21:49:38,1112564,-1777.000,-1753.000,8164.000,-2184.000,-708.000,194.000,NA,0.000,0
2026-01-30 21:49:38,1112604,-1653.000,-2071.000,7354.000,-1886.000,-468.000,239.000,NA,0.000,0
2026-01-30 21:49:38,1112644,-1769.000,-1920.000,7560.000,-820.000,-366.000,268.000,NA,0.000,0
2026-01-30 21:49:38,1112684,-1896.000,-1761.000,8008.000,-425.000,-182.000,200.000,NA,0.000,0
2026-01-30 21:49:38,1112724,-1665.000,-1954.000,8326.000,-697.000,-183.000,102.000,NA,0.000,0
2026-01-30 21:49:38,1112766,-1859.000,-2155.000,7748.000,-194.000,50.000,12.000,NA,0.000,0
2026-01-30 21:49:38,1112805,-1643.000,-1366.000,7455.000,-264.000,53.000,153.000,NA,0.000,0
2026-01-30 21:49:38,1112844,-1708.000,-2059.000,8060.000,-871.000,235.000,69.000,NA,0.000,0
2026-01-30 21:49:38,1112884,-1849.000,-2618.000,7961.000,4.000,222.000,5.000,NA,0.000,0
2026-01-30 21:49:38,1112924,-1909.000,-2076.000,8191.000,664.000,-54.000,-145.000,NA,0.000,0
2026-01-30 21:49:38,1112964,-1858.000,-1459.000,8240.000,301.000,-82.000,-117.000,NA,0.000,0
2026-01-30 21:49:38,1113006,-1724.000,-1675.000,7855.000,-134.000,-14.000,27.000,NA,0.000,0
2026-01-30 21:49:38,1113044,-1832.000,-2358.000,8452.000,-194.000,-135.000,59.000,NA,0.000,0
2026-01-30 21:49:38,1113084,-1986.000,-2397.000,8463.000,-156.000,-151.000,44.000,NA,0.000,0
2026-01-30 21:49:38,1113124,-1785.000,-2090.000,8169.000,-553.000,-330.000,10.000,NA,0.000,0
2026-01-30 21:49:38,1113164,-1631.000,-2239.000,7867.000,-744.000,-344.000,9.000,NA,0.000,0
2026-01-30 21:49:38,1113204,-1694.000,-2321.000,7925.000,-716.000,-379.000,23.000,NA,0.000,0
2026-01-30 21:49:38,1113244,-1800.000,-2450.000,7945.000,-959.000,-354.000,55.000,NA,0.000,0
2026-01-30 21:49:39,1113284,-1627.000,-2402.000,7966.000,-842.000,-295.000,88.000,NA,0.000,0
2026-01-30 21:49:39,1113324,-1536.000,-2516.000,7737.000,-1314.000,-325.000,-3.000,NA,0.000,0
2026-01-30 21:49:39,1113364,-1320.000,-2651.000,8092.000,-1855.000,-399.000,-87.000,NA,0.000,0
2026-01-30 21:49:39,1113404,-1617.000,-2699.000,8295.000,-2899.000,-231.000,-83.000,NA,0.000,0
2026-01-30 21:49:39,1113444,-1506.000,-3601.000,7853.000,-5250.000,-199.000,-183.000,NA,0.000,0
2026-01-30 21:49:39,1113484,-1259.000,-3857.000,7827.000,-5818.000,-234.000,-135.000,NA,0.000,0
2026-01-30 21:49:39,1113524,-1357.000,-4545.000,7041.000,-7036.000,-19.000,-150.000,NA,0.000,0
2026-01-30 21:49:39,1113564,-1196.000,-4987.000,6773.000,-5938.000,-233.000,-236.000,NA,0.000,0
2026-01-30 21:49:39,1113604,-1019.000,-4586.000,6859.000,-4731.000,-415.000,-270.000,NA,0.000,0
2026-01-30 21:49:39,1113644,-1239.000,-6179.000,6324.000,-5898.000,38.000,-506.000,NA,0.000,0
2026-01-30 21:49:39,1113684,-1496.000,-6514.000,5813.000,-3723.000,-45.000,-612.000,NA,0.000,0
2026-01-30 21:49:39,1113724,-1495.000,-6704.000,5011.000,-3774.000,-111.000,-636.000,NA,0.000,0
2026-01-30 21:49:39,1113764,-1043.000,-6736.000,5135.000,-2261.000,-378.000,-781.000,NA,0.000,0
2026-01-30 21:49:39,1113804,-880.000,-6282.000,4792.000,-1949.000,-412.000,-425.000,NA,0.000,0
2026-01-30 21:49:39,1113844,-1002.000,-6251.000,4704.000,-1566.000,-436.000,-303.000,NA,0.000,0
2026-01-30 21:49:39,1113884,-1310.000,-6792.000,4757.000,-1548.000,-360.000,-425.000,NA,0.000,0
2026-01-30 21:49:39,1113924,-1313.000,-7585.000,4529.000,-1911.000,-273.000,-470.000,NA,0.000,0
2026-01-30 21:49:39,1113964,-1171.000,-6894.000,4599.000,-915.000,-355.000,-326.000,NA,0.000,0
2026-01-30 21:49:39,1114004,-745.000,-6887.000,4454.000,-1019.000,-125.000,-286.000,NA,0.000,0
2026-01-30 21:49:39,1114044,-813.000,-7046.000,4039.000,-592.000,-44.000,-284.000,NA,0.000,0
2026-01-30 21:49:39,1114084,-748.000,-7178.000,3966.000,-205.000,-59.000,-210.000,NA,0.000,0
2026-01-30 21:49:39,1114124,-814.000,-6893.000,4275.000,469.000,-234.000,-105.000,NA,0.000,0
2026-01-30 21:49:39,1114164,-1010.000,-6798.000,4444.000,414.000,-77.000,36.000,NA,0.000,0
2026-01-30 21:49:39,1114204,-1061.000,-7567.000,4642.000,775.000,138.000,58.000,NA,0.000,0
2026-01-30 21:49:39,1114244,-847.000,-6502.000,4739.000,683.000,94.000,3.000,NA,0.000,0
2026-01-30 21:49:40,1114284,-667.000,-6896.000,4564.000,294.000,138.000,-52.000,NA,0.000,0
2026-01-30 21:49:40,1114324,-816.000,-7042.000,4617.000,859.000,221.000,45.000,NA,0.000,0
2026-01-30 21:49:40,1114364,-1026.000,-6979.000,4599.000,377.000,134.000,199.000,NA,0.000,0
2026-01-30 21:49:40,1114404,-1168.000,-7187.000,4972.000,748.000,-23.000,139.000,NA,0.000,0
2026-01-30 21:49:40,1114444,-1160.000,-6763.000,5102.000,838.000,-113.000,134.000,NA,0.000,0
2026-01-30 21:49:40,1114484,-1123.000,-6557.000,5124.000,-16.000,-175.000,-47.000,NA,0.000,0
2026-01-30 21:49:40,1114524,-712.000,-7016.000,4795.000,-277.000,-22.000,35.000,NA,0.000,0
2026-01-30 21:49:40,1114564,-914.000,-7284.000,4703.000,251.000,250.000,247.000,NA,0.000,0
2026-01-30 21:49:40,1114604,-1020.000,-7248.000,4988.000,500.000,191.000,123.000,NA,0.000,0
2026-01-30 21:49:40,1114644,-999.000,-6956.000,5005.000,437.000,-39.000,-144.000,NA,0.000,0
2026-01-30 21:49:40,1114684,-904.000,-6477.000,5181.000,321.000,-138.000,-48.000,NA,0.000,0
2026-01-30 21:49:40,1114724,-1171.000,-6029.000,4995.000,343.000,-64.000,24.000,NA,0.000,0
2026-01-30 21:49:40,1114765,-992.000,-6521.000,5298.000,-141.000,-79.000,31.000,NA,0.000,0
2026-01-30 21:49:40,1114804,-709.000,-7074.000,5133.000,-446.000,37.000,57.000,NA,0.000,0
2026-01-30 21:49:40,1114844,-807.000,-6700.000,4635.000,-94.000,-21.000,88.000,NA,0.000,0
2026-01-30 21:49:40,1114884,-1018.000,-7106.000,4932.000,-59.000,-74.000,-94.000,NA,0.000,0
2026-01-30 21:49:40,1114924,-1125.000,-7078.000,5293.000,236.000,-155.000,-149.000,NA,0.000,0
2026-01-30 21:49:40,1114964,-1053.000,-6309.000,4881.000,200.000,-111.000,-52.000,NA,0.000,0
2026-01-30 21:49:40,1115007,-945.000,-7131.000,5186.000,-369.000,-148.000,-136.000,NA,0.000,0
2026-01-30 21:49:40,1115045,-1052.000,-6946.000,5017.000,-168.000,-164.000,-110.000,NA,0.000,0
2026-01-30 21:49:40,1115084,-1000.000,-6939.000,4827.000,622.000,-166.000,-56.000,NA,0.000,0
2026-01-30 21:49:40,1115124,-1100.000,-6220.000,4991.000,1119.000,-287.000,-81.000,NA,0.000,0
2026-01-30 21:49:40,1115164,-740.000,-7318.000,5593.000,20.000,-285.000,-169.000,NA,0.000,0
2026-01-30 21:49:40,1115204,-1000.000,-6745.000,5320.000,775.000,-272.000,-121.000,NA,0.000,0
2026-01-30 21:49:40,1115244,-910.000,-6366.000,5254.000,1039.000,-310.000,-87.000,NA,0.000,0
2026-01-30 21:49:41,1115284,-866.000,-6429.000,5184.000,87.000,-385.000,-243.000,NA,0.000,0
2026-01-30 21:49:41,1115324,-689.000,-6727.000,5113.000,-310.000,-472.000,-161.000,NA,0.000,0
2026-01-30 21:49:41,1115364,-465.000,-6667.000,5434.000,555.000,-226.000,136.000,NA,0.000,0
2026-01-30 21:49:41,1115404,-894.000,-6500.000,5399.000,699.000,-27.000,91.000,NA,0.000,0
2026-01-30 21:49:41,1115444,-707.000,-6716.000,5643.000,205.000,-96.000,-189.000,NA,0.000,0
2026-01-30 21:49:41,1115484,-333.000,-6532.000,5825.000,-44.000,-160.000,-297.000,NA,0.000,0
2026-01-30 21:49:41,1115524,-240.000,-5872.000,5861.000,-150.000,-15.000,-95.000,NA,0.000,0
2026-01-30 21:49:41,1115564,-110.000,-6384.000,5814.000,-2134.000,395.000,-362.000,NA,0.000,0
2026-01-30 21:49:41,1115604,-767.000,-6884.000,5430.000,-3093.000,787.000,-472.000,NA,0.000,0
2026-01-30 21:49:41,1115644,-650.000,-8091.000,5288.000,-2652.000,1246.000,-1026.000,NA,0.000,0
2026-01-30 21:49:41,1115684,-1121.000,-7042.000,4946.000,1397.000,1879.000,-1921.000,NA,0.000,0
2026-01-30 21:49:41,1115724,-770.000,-5463.000,5903.000,5275.000,1948.000,-3656.000,NA,0.000,0
2026-01-30 21:49:41,1115764,-866.000,-5913.000,6084.000,3504.000,1944.000,-3842.000,NA,0.000,0
2026-01-30 21:49:41,1115804,-434.000,-6476.000,6164.000,3977.000,1624.000,-3126.000,NA,0.000,0
2026-01-30 21:49:41,1115844,-934.000,-5894.000,5492.000,4111.000,1669.000,-2402.000,NA,0.000,0
2026-01-30 21:49:41,1115884,-352.000,-5760.000,6497.000,2334.000,1145.000,-2009.000,NA,0.000,0
2026-01-30 21:49:41,1115924,-71.000,-5729.000,5182.000,625.000,60.000,-1523.000,NA,0.000,0
2026-01-30 21:49:41,1115964,744.000,-5261.000,5220.000,912.000,-269.000,-966.000,NA,0.000,0
2026-01-30 21:49:41,1116004,1315.000,-5333.000,6047.000,1274.000,368.000,-694.000,NA,0.000,0
2026-01-30 21:49:41,1116044,1167.000,-4953.000,6791.000,1539.000,447.000,-548.000,NA,0.000,0
2026-01-30 21:49:41,1116084,-248.000,-5588.000,5879.000,-609.000,491.000,-679.000,NA,0.000,0
2026-01-30 21:49:41,1116124,-220.000,-5689.000,6675.000,51.000,392.000,-1143.000,NA,0.000,0
2026-01-30 21:49:41,1116164,105.000,-5806.000,5757.000,-1053.000,992.000,-1287.000,NA,0.000,0
2026-01-30 21:49:41,1116204,369.000,-5664.000,6456.000,1811.000,2205.000,-1714.000,NA,0.000,0
2026-01-30 21:49:41,1116244,442.000,-5862.000,6896.000,2952.000,2792.000,-1336.000,NA,0.000,0
2026-01-30 21:49:42,1116284,42.000,-4436.000,6925.000,1938.000,2826.000,-1285.000,NA,0.000,0
2026-01-30 21:49:42,1116324,-49.000,-3659.000,7610.000,1287.000,2548.000,-1048.000,NA,0.000,0
2026-01-30 21:49:42,1116364,-16.000,-4329.000,8676.000,375.000,2163.000,-988.000,NA,0.000,0
2026-01-30 21:49:42,1116404,-939.000,-5727.000,7696.000,-614.000,2989.000,-382.000,NA,0.000,0
2026-01-30 21:49:42,1116444,-628.000,-3898.000,7022.000,961.000,2333.000,143.000,NA,0.000,0
2026-01-30 21:49:42,1116484,-1040.000,-4381.000,5808.000,-477.000,1857.000,312.000,NA,0.000,0
2026-01-30 21:49:42,1116524,-1251.000,-6013.000,7146.000,1366.000,1400.000,442.000,NA,0.000,0
2026-01-30 21:49:42,1116564,-1490.000,-5421.000,7528.000,2607.000,941.000,329.000,NA,0.000,0
2026-01-30 21:49:42,1116604,-1818.000,-3373.000,7266.000,2068.000,628.000,117.000,NA,0.000,0
2026-01-30 21:49:42,1116644,-1296.000,-3462.000,7618.000,742.000,492.000,-77.000,NA,0.000,0
2026-01-30 21:49:42,1116684,-1069.000,-3931.000,7760.000,-64.000,447.000,11.000,NA,0.000,0
2026-01-30 21:49:42,1116724,-1575.000,-4320.000,6877.000,343.000,121.000,74.000,NA,0.000,0
2026-01-30 21:49:42,1116766,-1836.000,-3609.000,6796.000,1120.000,-259.000,196.000,NA,0.000,0
2026-01-30 21:49:42,1116805,-1583.000,-4050.000,7545.000,684.000,-478.000,127.000,NA,0.000,0
2026-01-30 21:49:42,1116844,-1838.000,-2500.000,7521.000,1466.000,-203.000,277.000,NA,0.000,0
2026-01-30 21:49:42,1116884,-1881.000,-3442.000,7464.000,-182.000,-188.000,187.000,NA,0.000,0
2026-01-30 21:49:42,1116924,-1852.000,-3855.000,7667.000,281.000,-177.000,146.000,NA,0.000,0
2026-01-30 21:49:42,1116964,-1779.000,-3672.000,7637.000,475.000,63.000,148.000,NA,0.000,0
2026-01-30 21:49:42,1117006,-2149.000,-3050.000,7738.000,560.000,156.000,235.000,NA,0.000,0
2026-01-30 21:49:42,1117044,-2001.000,-3091.000,8017.000,660.000,-147.000,161.000,NA,0.000,0
2026-01-30 21:49:42,1117084,-1892.000,-2809.000,8248.000,685.000,-267.000,177.000,NA,0.000,0
2026-01-30 21:49:42,1117124,-1362.000,-2892.000,8066.000,-378.000,-231.000,346.000,NA,0.000,0
2026-01-30 21:49:42,1117164,-1477.000,-2952.000,7341.000,-106.000,-83.000,524.000,NA,0.000,0
2026-01-30 21:49:42,1117204,-1391.000,-3811.000,8092.000,-248.000,-298.000,647.000,NA,0.000,0
2026-01-30 21:49:42,1117244,-1808.000,-3045.000,7834.000,254.000,-922.000,595.000,NA,0.000,0
2026-01-30 21:49:43,1117284,-1418.000,-3761.000,8676.000,-790.000,-1160.000,398.000,NA,0.000,0
2026-01-30 21:49:43,1117324,-1249.000,-2765.000,7516.000,-468.000,-1156.000,327.000,NA,0.000,0
2026-01-30 21:49:43,1117364,-1494.000,-2574.000,6277.000,-816.000,-1412.000,79.000,NA,0.000,0
2026-01-30 21:49:43,1117404,-546.000,-4267.000,7101.000,-1389.000,-1384.000,140.000,NA,0.000,0
2026-01-30 21:49:43,1117444,-639.000,-4207.000,6569.000,213.000,-742.000,476.000,NA,0.000,0
2026-01-30 21:49:43,1117484,-1347.000,-2907.000,6373.000,1094.000,-558.000,632.000,NA,0.000,0
2026-01-30 21:49:43,1117524,-1018.000,-4020.000,8012.000,-61.000,-665.000,365.000,NA,0.000,0
2026-01-30 21:49:43,1117564,-1052.000,-3829.000,7944.000,-5.000,-591.000,267.000,NA,0.000,0
2026-01-30 21:49:43,1117604,-988.000,-3527.000,7231.000,14.000,-385.000,308.000,NA,0.000,0
2026-01-30 21:49:43,1117644,-740.000,-4030.000,7684.000,36.000,-156.000,253.000,NA,0.000,0
2026-01-30 21:49:43,1117684,-956.000,-3988.000,7590.000,483.000,46.000,341.000,NA,0.000,0
2026-01-30 21:49:43,1117724,-871.000,-3930.000,7811.000,527.000,17.000,423.000,NA,0.000,0
2026-01-30 21:49:43,1117764,-630.000,-3759.000,7940.000,714.000,218.000,542.000,NA,0.000,0
2026-01-30 21:49:43,1117804,-1157.000,-3469.000,7806.000,1048.000,463.000,608.000,NA,0.000,0
2026-01-30 21:49:43,1117844,-976.000,-3863.000,8365.000,51.000,251.000,352.000,NA,0.000,0
2026-01-30 21:49:43,1117884,-1131.000,-3844.000,7535.000,-2.000,179.000,280.000,NA,0.000,0
2026-01-30 21:49:43,1117924,-1284.000,-3392.000,7476.000,410.000,33.000,221.000,NA,0.000,0
2026-01-30 21:49:43,1117964,-834.000,-3504.000,7325.000,24.000,417.000,323.000,NA,0.000,0
2026-01-30 21:49:43,1118004,-1100.000,-3146.000,7215.000,613.000,881.000,472.000,NA,0.000,0
2026-01-30 21:49:43,1118044,-1111.000,-4010.000,8008.000,58.000,843.000,276.000,NA,0.000,0
2026-01-30 21:49:43,1118084,-1665.000,-3206.000,8155.000,1206.000,537.000,164.000,NA,0.000,0
2026-01-30 21:49:43,1118124,-1353.000,-2779.000,8186.000,-207.000,121.000,-15.000,NA,0.000,0
2026-01-30 21:49:43,1118164,-1248.000,-3098.000,7622.000,-748.000,213.000,3.000,NA,0.000,0
2026-01-30 21:49:43,1118204,-1263.000,-3709.000,7739.000,-499.000,427.000,124.000,NA,0.000,0
2026-01-30 21:49:43,1118244,-1381.000,-3786.000,7654.000,93.000,447.000,191.000,NA,0.000,0
2026-01-30 21:49:44,1118284,-1625.000,-3411.000,7822.000,425.000,59.000,17.000,NA,0.000,0
2026-01-30 21:49:44,1118324,-1404.000,-3243.000,7779.000,-490.000,-356.000,-140.000,NA,0.000,0
2026-01-30 21:49:44,1118364,-1350.000,-3025.000,6932.000,-398.000,-299.000,-10.000,NA,0.000,0
2026-01-30 21:49:44,1118404,-1598.000,-3391.000,7125.000,-156.000,-28.000,147.000,NA,0.000,0
2026-01-30 21:49:44,1118444,-1643.000,-3854.000,7456.000,204.000,73.000,163.000,NA,0.000,0
2026-01-30 21:49:44,1118484,-1438.000,-3392.000,7601.000,749.000,-111.000,36.000,NA,0.000,0
2026-01-30 21:49:44,1118524,-1382.000,-3108.000,7852.000,494.000,-120.000,-104.000,NA,0.000,0
2026-01-30 21:49:44,1118564,-1371.000,-3052.000,7649.000,187.000,175.000,7.000,NA,0.000,0
2026-01-30 21:49:44,1118604,-1519.000,-3501.000,7620.000,196.000,419.000,39.000,NA,0.000,0
2026-01-30 21:49:44,1118644,-1547.000,-3695.000,8271.000,483.000,310.000,-3.000,NA,0.000,0
2026-01-30 21:49:44,1118684,-1446.000,-3328.000,8547.000,514.000,153.000,-35.000,NA,0.000,0
2026-01-30 21:49:44,1118724,-1730.000,-2991.000,8111.000,63.000,34.000,-71.000,NA,0.000,0
2026-01-30 21:49:44,1118764,-1458.000,-3177.000,7789.000,-262.000,-174.000,-102.000,NA,0.000,0
2026-01-30 21:49:44,1118805,-1522.000,-3056.000,7427.000,-246.000,-173.000,-46.000,NA,0.000,0
2026-01-30 21:49:44,1118844,-1418.000,-3111.000,7321.000,-340.000,-99.000,57.000,NA,0.000,0
2026-01-30 21:49:44,1118884,-1376.000,-3414.000,7585.000,-58.000,-12.000,130.000,NA,0.000,0
2026-01-30 21:49:44,1118924,-1460.000,-3317.000,7747.000,63.000,-105.000,82.000,NA,0.000,0
2026-01-30 21:49:44,1118964,-1503.000,-3266.000,7910.000,-143.000,-163.000,-4.000,NA,0.000,0
2026-01-30 21:49:44,1119007,-1527.000,-3239.000,7229.000,-133.000,-87.000,-61.000,NA,0.000,0
2026-01-30 21:49:44,1119044,-1454.000,-3201.000,7047.000,-126.000,-156.000,-144.000,NA,0.000,0
2026-01-30 21:49:44,1119084,-1364.000,-3501.000,7455.000,-36.000,-76.000,-172.000,NA,0.000,0
2026-01-30 21:49:44,1119124,-1174.000,-2907.000,7325.000,384.000,97.000,-37.000,NA,0.000,0
2026-01-30 21:49:44,1119164,-1419.000,-3102.000,7584.000,319.000,225.000,-35.000,NA,0.000,0
2026-01-30 21:49:44,1119204,-1400.000,-3719.000,8416.000,51.000,99.000,-122.000,NA,0.000,0
2026-01-30 21:49:44,1119244,-1577.000,-3139.000,7811.000,332.000,64.000,39.000,NA,0.000,0
2026-01-30 21:49:45,1119284,-1711.000,-3177.000,7917.000,-219.000,3.000,-10.000,NA,0.000,0
2026-01-30 21:49:45,1119324,-1501.000,-3580.000,8191.000,-575.000,-342.000,-158.000,NA,0.000,0
2026-01-30 21:49:45,1119364,-1562.000,-3363.000,7785.000,-368.000,-302.000,-62.000,NA,0.000,0
2026-01-30 21:49:45,1119404,-1282.000,-3091.000,7541.000,-277.000,-212.000,31.000,NA,0.000,0
2026-01-30 21:49:45,1119444,-1473.000,-3416.000,7516.000,-176.000,-310.000,-48.000,NA,0.000,0
2026-01-30 21:49:45,1119484,-1322.000,-3438.000,7930.000,-235.000,-461.000,-200.000,NA,0.000,0
2026-01-30 21:49:45,1119524,-1310.000,-3230.000,7397.000,-274.000,-74.000,-45.000,NA,0.000,0
2026-01-30 21:49:45,1119564,-1299.000,-3498.000,7219.000,-98.000,31.000,48.000,NA,0.000,0
2026-01-30 21:49:45,1119604,-1226.000,-3944.000,7860.000,97.000,50.000,14.000,NA,0.000,0
2026-01-30 21:49:45,1119644,-1500.000,-3325.000,7911.000,499.000,51.000,35.000,NA,0.000,0
2026-01-30 21:49:45,1119684,-1454.000,-3359.000,7919.000,18.000,78.000,-57.000,NA,0.000,0
2026-01-30 21:49:45,1119724,-1434.000,-3309.000,7596.000,32.000,-30.000,-126.000,NA,0.000,0
2026-01-30 21:49:45,1119764,-1235.000,-3067.000,7515.000,27.000,-108.000,-117.000,NA,0.000,0
2026-01-30 21:49:45,1119804,-1126.000,-3115.000,7483.000,94.000,136.000,-11.000,NA,0.000,0
2026-01-30 21:49:45,1119844,-1160.000,-3129.000,7624.000,207.000,172.000,32.000,NA,0.000,0
2026-01-30 21:49:45,1119884,-1290.000,-3155.000,7955.000,261.000,-23.000,-25.000,NA,0.000,0
2026-01-30 21:49:45,1119924,-1363.000,-2929.000,7378.000,-215.000,-30.000,-41.000,NA,0.000,0
2026-01-30 21:49:45,1119964,-1194.000,-3646.000,7512.000,-180.000,131.000,69.000,NA,0.000,0
2026-01-30 21:49:45,1120004,-1607.000,-3257.000,7568.000,497.000,192.000,151.000,NA,0.000,0
2026-01-30 21:49:45,1120044,-1803.000,-3267.000,8028.000,317.000,-66.000,37.000,NA,0.000,0
2026-01-30 21:49:45,1120084,-1432.000,-3517.000,8343.000,-186.000,-183.000,-114.000,NA,0.000,0
2026-01-30 21:49:45,1120124,-1532.000,-2916.000,7340.000,-126.000,-94.000,-47.000,NA,0.000,0
2026-01-30 21:49:45,1120164,-1415.000,-3508.000,7257.000,-453.000,-43.000,-25.000,NA,0.000,0
2026-01-30 21:49:45,1120204,-1425.000,-3787.000,7888.000,27.000,156.000,29.000,NA,0.000,0
2026-01-30 21:49:45,1120244,-1263.000,-3615.000,8013.000,271.000,110.000,82.000,NA,0.000,0
2026-01-30 21:49:46,1120284,-1564.000,-3192.000,7952.000,56.000,-64.000,-70.000,NA,0.000,0
2026-01-30 21:49:46,1120324,-1442.000,-3721.000,7925.000,-486.000,-264.000,-193.000,NA,0.000,0
2026-01-30 21:49:46,1120364,-1319.000,-3635.000,7439.000,-94.000,31.000,-12.000,NA,0.000,0
2026-01-30 21:49:46,1120404,-1583.000,-2963.000,7102.000,448.000,60.000,19.000,NA,0.000,0
2026-01-30 21:49:46,1120444,-1485.000,-3019.000,7983.000,-58.000,-214.000,-242.000,NA,0.000,0
2026-01-30 21:49:46,1120484,-1217.000,-2861.000,7626.000,-380.000,-237.000,-347.000,NA,0.000,0
2026-01-30 21:49:46,1120524,-1100.000,-3080.000,6773.000,-500.000,158.000,-92.000,NA,0.000,0
2026-01-30 21:49:46,1120564,-1088.000,-3538.000,7396.000,377.000,522.000,284.000,NA,0.000,0
2026-01-30 21:49:46,1120604,-1784.000,-3644.000,8216.000,782.000,363.000,231.000,NA,0.000,0
2026-01-30 21:49:46,1120644,-1977.000,-3721.000,9316.000,312.000,-184.000,-44.000,NA,0.000,0
2026-01-30 21:49:46,1120684,-1690.000,-2919.000,7751.000,-813.000,-451.000,-300.000,NA,0.000,0
2026-01-30 21:49:46,1120724,-1389.000,-3321.000,7120.000,-842.000,-317.000,-323.000,NA,0.000,0
2026-01-30 21:49:46,1120764,-1261.000,-3463.000,7274.000,-148.000,-48.000,-299.000,NA,0.000,0
2026-01-30 21:49:46,1120805,-1211.000,-3363.000,7479.000,603.000,161.000,-231.000,NA,0.000,0
2026-01-30 21:49:46,1120844,-1447.000,-2830.000,7515.000,1116.000,156.000,-192.000,NA,0.000,0
2026-01-30 21:49:46,1120884,-1593.000,-2851.000,7984.000,461.000,216.000,-270.000,NA,0.000,0
2026-01-30 21:49:46,1120924,-1491.000,-3209.000,7911.000,214.000,190.000,-279.000,NA,0.000,0
2026-01-30 21:49:46,1120964,-1713.000,-2971.000,7699.000,300.000,318.000,-304.000,NA,0.000,0
2026-01-30 21:49:46,1121006,-1892.000,-2771.000,7629.000,338.000,182.000,-395.000,NA,0.000,0
2026-01-30 21:49:46,1121044,-1783.000,-2588.000,8000.000,319.000,7.000,-373.000,NA,0.000,0
2026-01-30 21:49:46,1121084,-1648.000,-2005.000,7783.000,463.000,-9.000,-315.000,NA,0.000,0
2026-01-30 21:49:46,1121124,-1762.000,-2060.000,7638.000,159.000,184.000,-143.000,NA,0.000,0
2026-01-30 21:49:46,1121164,-1666.000,-2434.000,7801.000,51.000,168.000,36.000,NA,0.000,0
2026-01-30 21:49:46,1121204,-1504.000,-2761.000,7990.000,-78.000,83.000,168.000,NA,0.000,0
2026-01-30 21:49:46,1121244,-1580.000,-2500.000,8139.000,-106.000,-124.000,205.000,NA,0.000,0
2026-01-30 21:49:47,1121284,-1680.000,-2778.000,7873.000,-526.000,-381.000,184.000,NA,0.000,0
2026-01-30 21:49:47,1121324,-1416.000,-3225.000,7974.000,-704.000,-502.000,129.000,NA,0.000,0
2026-01-30 21:49:47,1121364,-1558.000,-2894.000,7528.000,-158.000,-286.000,246.000,NA,0.000,0
2026-01-30 21:49:47,1121404,-1295.000,-3029.000,7863.000,-166.000,-229.000,252.000,NA,0.000,0
2026-01-30 21:49:47,1121444,-1339.000,-3426.000,8111.000,-254.000,-257.000,167.000,NA,0.000,0
2026-01-30 21:49:47,1121484,-1207.000,-3141.000,7891.000,-162.000,-215.000,164.000,NA,0.000,0
2026-01-30 21:49:47,1121524,-1180.000,-3343.000,7830.000,-207.000,-124.000,135.000,NA,0.000,0
2026-01-30 21:49:47,1121564,-1080.000,-3655.000,8006.000,-46.000,33.000,176.000,NA,0.000,0
2026-01-30 21:49:47,1121604,-943.000,-3449.000,8178.000,231.000,36.000,155.000,NA,0.000,0
2026-01-30 21:49:47,1121644,-1089.000,-3079.000,7984.000,138.000,15.000,13.000,NA,0.000,0
2026-01-30 21:49:47,1121684,-949.000,-3202.000,7914.000,-184.000,-148.000,-125.000,NA,0.000,0
2026-01-30 21:49:47,1121724,-899.000,-3119.000,7526.000,-155.000,-138.000,-157.000,NA,0.000,0
2026-01-30 21:49:47,1121764,-768.000,-3069.000,7773.000,15.000,167.000,-41.000,NA,0.000,0
2026-01-30 21:49:47,1121804,-1017.000,-3248.000,7538.000,106.000,281.000,112.000,NA,0.000,0
2026-01-30 21:49:47,1121844,-1074.000,-3440.000,7997.000,120.000,-37.000,44.000,NA,0.000,0
2026-01-30 21:49:47,1121884,-1254.000,-2810.000,8079.000,97.000,-166.000,28.000,NA,0.000,0
2026-01-30 21:49:47,1121924,-1248.000,-3117.000,7684.000,-317.000,79.000,90.000,NA,0.000,0
2026-01-30 21:49:47,1121964,-1239.000,-3422.000,7474.000,-253.000,31.000,75.000,NA,0.000,0
2026-01-30 21:49:47,1122004,-1087.000,-3530.000,7921.000,-160.000,-130.000,13.000,NA,0.000,0
2026-01-30 21:49:47,1122044,-1082.000,-3024.000,7801.000,-15.000,-63.000,62.000,NA,0.000,0
2026-01-30 21:49:47,1122084,-1094.000,-3531.000,7641.000,-185.000,134.000,190.000,NA,0.000,0
2026-01-30 21:49:47,1122124,-1303.000,-3730.000,7894.000,166.000,49.000,190.000,NA,0.000,0
2026-01-30 21:49:47,1122164,-1348.000,-3577.000,8364.000,93.000,-92.000,49.000,NA,0.000,0
2026-01-30 21:49:47,1122204,-1325.000,-3249.000,7432.000,-416.000,-158.000,-14.000,NA,0.000,0
2026-01-30 21:49:47,1122244,-1189.000,-3544.000,7330.000,-356.000,-96.000,4.000,NA,0.000,0
2026-01-30 21:49:48,1122284,-1119.000,-3544.000,7529.000,-148.000,26.000,28.000,NA,0.000,0
2026-01-30 21:49:48,1122324,-1298.000,-3399.000,7391.000,152.000,182.000,90.000,NA,0.000,0
2026-01-30 21:49:48,1122364,-1402.000,-3741.000,7598.000,36.000,132.000,-39.000,NA,0.000,0
2026-01-30 21:49:48,1122404,-1367.000,-3471.000,7834.000,135.000,34.000,-46.000,NA,0.000,0
2026-01-30 21:49:48,1122444,-1138.000,-3394.000,7806.000,-58.000,129.000,-31.000,NA,0.000,0
2026-01-30 21:49:48,1122484,-1374.000,-3343.000,7268.000,-31.000,187.000,39.000,NA,0.000,0
2026-01-30 21:49:48,1122524,-1333.000,-3800.000,7590.000,-51.000,9.000,-16.000,NA,0.000,0
2026-01-30 21:49:48,1122564,-1301.000,-2947.000,7680.000,165.000,-132.000,20.000,NA,0.000,0
2026-01-30 21:49:48,1122604,-1425.000,-3223.000,7372.000,-243.000,-122.000,43.000,NA,0.000,0
2026-01-30 21:49:48,1122644,-1489.000,-3531.000,7318.000,-271.000,-256.000,-34.000,NA,0.000,0
2026-01-30 21:49:48,1122684,-1144.000,-3490.000,7442.000,-113.000,-200.000,-9.000,NA,0.000,0
2026-01-30 21:49:48,1122724,-1218.000,-3186.000,7411.000,23.000,-16.000,52.000,NA,0.000,0
2026-01-30 21:49:48,1122764,-1106.000,-3640.000,7726.000,58.000,124.000,46.000,NA,0.000,0
2026-01-30 21:49:48,1122806,-1102.000,-3800.000,7949.000,285.000,182.000,27.000,NA,0.000,0
2026-01-30 21:49:48,1122845,-1211.000,-3410.000,8057.000,525.000,264.000,35.000,NA,0.000,0
2026-01-30 21:49:48,1122884,-1259.000,-3330.000,7909.000,319.000,44.000,-70.000,NA,0.000,0
2026-01-30 21:49:48,1122924,-1211.000,-3641.000,8052.000,119.000,-218.000,-147.000,NA,0.000,0
2026-01-30 21:49:48,1122964,-1242.000,-2619.000,8350.000,704.000,214.000,107.000,NA,0.000,0
2026-01-30 21:49:48,1123006,-1260.000,-3177.000,7919.000,-165.000,298.000,11.000,NA,0.000,0
2026-01-30 21:49:48,1123044,-1256.000,-3918.000,7873.000,-393.000,-140.000,-125.000,NA,0.000,0
2026-01-30 21:49:48,1123084,-1265.000,-3073.000,7575.000,135.000,-532.000,-27.000,NA,0.000,0
2026-01-30 21:49:48,1123124,-1473.000,-2656.000,7855.000,-184.000,-574.000,55.000,NA,0.000,0
2026-01-30 21:49:48,1123164,-1519.000,-3626.000,7797.000,-610.000,-336.000,120.000,NA,0.000,0
2026-01-30 21:49:48,1123204,-1160.000,-3578.000,7762.000,-157.000,-97.000,198.000,NA,0.000,0
2026-01-30 21:49:48,1123244,-1067.000,-3486.000,7481.000,-185.000,-240.000,21.000,NA,0.000,0
2026-01-30 21:49:49,1123284,-1117.000,-3684.000,7686.000,-172.000,-521.000,-80.000,NA,0.000,0
2026-01-30 21:49:49,1123324,-1396.000,-3328.000,7548.000,139.000,-321.000,117.000,NA,0.000,0
2026-01-30 21:49:49,1123364,-1526.000,-2751.000,7599.000,443.000,34.000,-30.000,NA,0.000,0
2026-01-30 21:49:49,1123404,-1368.000,-2951.000,7218.000,-23.000,-12.000,-327.000,NA,0.000,0
2026-01-30 21:49:49,1123444,-1234.000,-2386.000,6754.000,71.000,-175.000,-550.000,NA,0.000,0
2026-01-30 21:49:49,1123484,-996.000,-2016.000,6657.000,-92.000,65.000,-618.000,NA,0.000,0
2026-01-30 21:49:49,1123524,-936.000,-1963.000,6591.000,90.000,559.000,-379.000,NA,0.000,0
2026-01-30 21:49:49,1123564,-1538.000,-2953.000,6634.000,348.000,1116.000,-40.000,NA,0.000,0
2026-01-30 21:49:49,1123604,-1785.000,-2913.000,8222.000,1555.000,973.000,195.000,NA,0.000,0
2026-01-30 21:49:49,1123644,-2051.000,-2515.000,9391.000,1222.000,515.000,254.000,NA,0.000,0
2026-01-30 21:49:49,1123684,-2241.000,-2754.000,9364.000,-108.000,20.000,251.000,NA,0.000,0
2026-01-30 21:49:49,1123724,-1981.000,-3318.000,8231.000,-1179.000,-556.000,251.000,NA,0.000,0
2026-01-30 21:49:49,1123764,-1651.000,-3530.000,7810.000,-1001.000,-748.000,221.000,NA,0.000,0
2026-01-30 21:49:49,1123804,-1472.000,-3415.000,7890.000,-465.000,-812.000,191.000,NA,0.000,0
2026-01-30 21:49:49,1123844,-1254.000,-2997.000,7871.000,-462.000,-703.000,126.000,NA,0.000,0
2026-01-30 21:49:49,1123884,-1185.000,-3342.000,7285.000,-729.000,-469.000,57.000,NA,0.000,0
2026-01-30 21:49:49,1123924,-1167.000,-3512.000,7149.000,-445.000,-274.000,-21.000,NA,0.000,0
2026-01-30 21:49:49,1123964,-875.000,-3498.000,7540.000,-31.000,-129.000,-68.000,NA,0.000,0
2026-01-30 21:49:49,1124004,-887.000,-3330.000,7664.000,135.000,49.000,-52.000,NA,0.000,0
2026-01-30 21:49:49,1124044,-908.000,-3260.000,7769.000,167.000,218.000,12.000,NA,0.000,0
2026-01-30 21:49:49,1124084,-962.000,-3741.000,8032.000,98.000,197.000,20.000,NA,0.000,0
2026-01-30 21:49:49,1124124,-932.000,-3390.000,8152.000,276.000,172.000,91.000,NA,0.000,0
2026-01-30 21:49:49,1124164,-1160.000,-3181.000,7838.000,95.000,-58.000,-15.000,NA,0.000,0
2026-01-30 21:49:49,1124204,-923.000,-3595.000,8107.000,-143.000,-243.000,-85.000,NA,0.000,0
2026-01-30 21:49:49,1124244,-866.000,-2746.000,7795.000,46.000,-77.000,7.000,NA,0.000,0
2026-01-30 21:49:50,1124284,-812.000,-2908.000,7125.000,-369.000,-25.000,-45.000,NA,0.000,0
2026-01-30 21:49:50,1124324,-1087.000,-3633.000,7039.000,-285.000,-91.000,-60.000,NA,0.000,0
2026-01-30 21:49:50,1124364,-988.000,-3588.000,7748.000,273.000,-47.000,73.000,NA,0.000,0
2026-01-30 21:49:50,1124404,-1217.000,-2537.000,7754.000,618.000,107.000,-21.000,NA,0.000,0
2026-01-30 21:49:50,1124444,-981.000,-3605.000,8192.000,-319.000,20.000,-174.000,NA,0.000,0
2026-01-30 21:49:50,1124484,-870.000,-3301.000,7454.000,29.000,162.000,69.000,NA,0.000,0
2026-01-30 21:49:50,1124524,-694.000,-3632.000,7668.000,361.000,286.000,163.000,NA,0.000,0
2026-01-30 21:49:50,1124564,-961.000,-3594.000,8525.000,575.000,167.000,132.000,NA,0.000,0
2026-01-30 21:49:50,1124604,-1205.000,-3117.000,8353.000,285.000,-97.000,-17.000,NA,0.000,0
2026-01-30 21:49:50,1124644,-1117.000,-2762.000,7800.000,-333.000,-267.000,-208.000,NA,0.000,0
2026-01-30 21:49:50,1124684,-952.000,-2958.000,7013.000,-712.000,-260.000,-276.000,NA,0.000,0
2026-01-30 21:49:50,1124724,-819.000,-2649.000,6562.000,-472.000,-89.000,-211.000,NA,0.000,0
2026-01-30 21:49:50,1124766,-748.000,-3089.000,6602.000,-155.000,110.000,-15.000,NA,0.000,0
2026-01-30 21:49:50,1124805,-841.000,-3319.000,7139.000,488.000,401.000,243.000,NA,0.000,0
2026-01-30 21:49:50,1124844,-1518.000,-3478.000,8092.000,949.000,435.000,385.000,NA,0.000,0
2026-01-30 21:49:50,1124884,-1809.000,-3631.000,8889.000,306.000,-25.000,169.000,NA,0.000,0
2026-01-30 21:49:50,1124924,-1650.000,-3557.000,8584.000,-320.000,-205.000,45.000,NA,0.000,0
2026-01-30 21:49:50,1124964,-1383.000,-3449.000,7668.000,-652.000,-204.000,16.000,NA,0.000,0
2026-01-30 21:49:50,1125006,-1162.000,-3704.000,7785.000,-344.000,-133.000,-32.000,NA,0.000,0
2026-01-30 21:49:50,1125044,-1025.000,-3492.000,7599.000,-62.000,-42.000,-102.000,NA,0.000,0
2026-01-30 21:49:50,1125084,-1014.000,-3364.000,7575.000,249.000,45.000,-98.000,NA,0.000,0
2026-01-30 21:49:50,1125124,-1133.000,-3078.000,7883.000,397.000,153.000,-132.000,NA,0.000,0
2026-01-30 21:49:50,1125164,-1097.000,-3357.000,7939.000,204.000,321.000,-50.000,NA,0.000,0
2026-01-30 21:49:50,1125204,-1313.000,-3441.000,7931.000,385.000,376.000,-4.000,NA,0.000,0
2026-01-30 21:49:50,1125244,-1135.000,-3229.000,8268.000,57.000,86.000,-82.000,NA,0.000,0
2026-01-30 21:49:51,1125284,-1216.000,-2948.000,7980.000,27.000,-55.000,0.000,NA,0.000,0
2026-01-30 21:49:51,1125324,-1333.000,-3345.000,7764.000,-261.000,-157.000,-3.000,NA,0.000,0
2026-01-30 21:49:51,1125364,-1380.000,-3211.000,7700.000,-306.000,-240.000,39.000,NA,0.000,0
2026-01-30 21:49:51,1125404,-1319.000,-3276.000,7582.000,-321.000,-288.000,37.000,NA,0.000,0
2026-01-30 21:49:51,1125444,-1151.000,-3323.000,7622.000,-341.000,-265.000,13.000,NA,0.000,0
2026-01-30 21:49:51,1125484,-1015.000,-3197.000,7485.000,-297.000,-129.000,22.000,NA,0.000,0
2026-01-30 21:49:51,1125524,-1279.000,-3559.000,7131.000,-261.000,-78.000,37.000,NA,0.000,0
2026-01-30 21:49:51,1125564,-1274.000,-3601.000,7714.000,157.000,-73.000,-1.000,NA,0.000,0
2026-01-30 21:49:51,1125604,-1193.000,-3043.000,7481.000,204.000,89.000,24.000,NA,0.000,0
2026-01-30 21:49:51,1125644,-1278.000,-3688.000,7518.000,-165.000,-35.000,-77.000,NA,0.000,0
2026-01-30 21:49:51,1125684,-1199.000,-3354.000,7838.000,100.000,-167.000,-93.000,NA,0.000,0
2026-01-30 21:49:51,1125724,-1120.000,-3311.000,7617.000,-6.000,149.000,-12.000,NA,0.000,0
2026-01-30 21:49:51,1125764,-1290.000,-3565.000,7526.000,337.000,211.000,25.000,NA,0.000,0
2026-01-30 21:49:51,1125804,-1408.000,-3229.000,8066.000,443.000,-59.000,-115.000,NA,0.000,0
2026-01-30 21:49:51,1125844,-1122.000,-3314.000,8193.000,-268.000,-48.000,-166.000,NA,0.000,0
2026-01-30 21:49:51,1125884,-1219.000,-3436.000,7434.000,-91.000,274.000,79.000,NA,0.000,0
2026-01-30 21:49:51,1125924,-1311.000,-3690.000,7605.000,319.000,277.000,112.000,NA,0.000,0
2026-01-30 21:49:51,1125964,-1134.000,-3399.000,8624.000,450.000,-27.000,-82.000,NA,0.000,0
2026-01-30 21:49:51,1126004,-1207.000,-2679.000,7537.000,-29.000,-115.000,-60.000,NA,0.000,0
2026-01-30 21:49:51,1126044,-1317.000,-3582.000,7378.000,-347.000,-118.000,-67.000,NA,0.000,0
2026-01-30 21:49:51,1126084,-1047.000,-3361.000,7907.000,75.000,-29.000,43.000,NA,0.000,0
2026-01-30 21:49:51,1126124,-1443.000,-2913.000,7422.000,98.000,77.000,107.000,NA,0.000,0
2026-01-30 21:49:51,1126164,-1214.000,-3995.000,7738.000,-444.000,-42.000,17.000,NA,0.000,0
2026-01-30 21:49:51,1126204,-1336.000,-3277.000,7823.000,126.000,-76.000,0.000,NA,0.000,0
2026-01-30 21:49:51,1126244,-1462.000,-3131.000,7377.000,-152.000,-107.000,-33.000,NA,0.000,0
2026-01-30 21:49:52,1126284,-1340.000,-3744.000,7751.000,-193.000,33.000,36.000,NA,0.000,0
2026-01-30 21:49:52,1126324,-1074.000,-3601.000,7803.000,179.000,188.000,88.000,NA,0.000,0
2026-01-30 21:49:52,1126364,-1385.000,-3192.000,8092.000,401.000,207.000,25.000,NA,0.000,0
2026-01-30 21:49:52,1126404,-1508.000,-3355.000,7971.000,141.000,-98.000,-128.000,NA,0.000,0
2026-01-30 21:49:52,1126444,-1441.000,-2663.000,7622.000,15.000,-228.000,-211.000,NA,0.000,0
2026-01-30 21:49:52,1126484,-940.000,-3092.000,7843.000,-229.000,137.000,-191.000,NA,0.000,0
2026-01-30 21:49:52,1126524,-1283.000,-2983.000,7028.000,450.000,712.000,100.000,NA,0.000,0
2026-01-30 21:49:52,1126564,-1714.000,-2465.000,7018.000,851.000,189.000,-91.000,NA,0.000,0
2026-01-30 21:49:52,1126604,-1407.000,-2770.000,8596.000,-4.000,-393.000,-472.000,NA,0.000,0
2026-01-30 21:49:52,1126644,-1358.000,-2175.000,7880.000,-166.000,53.000,-353.000,NA,0.000,0
2026-01-30 21:49:52,1126684,-1641.000,-2118.000,6209.000,35.000,905.000,38.000,NA,0.000,0
2026-01-30 21:49:52,1126724,-1968.000,-3101.000,6907.000,957.000,930.000,193.000,NA,0.000,0
2026-01-30 21:49:52,1126764,-1900.000,-2644.000,9665.000,1014.000,276.000,-44.000,NA,0.000,0
2026-01-30 21:49:52,1126806,-2368.000,-1701.000,8066.000,456.000,200.000,39.000,NA,0.000,0
2026-01-30 21:49:52,1126844,-2353.000,-2158.000,8092.000,-271.000,94.000,62.000,NA,0.000,0
2026-01-30 21:49:52,1126884,-1976.000,-3117.000,8583.000,-393.000,77.000,190.000,NA,0.000,0
2026-01-30 21:49:52,1126924,-1982.000,-2938.000,8399.000,-304.000,-99.000,283.000,NA,0.000,0
2026-01-30 21:49:52,1126964,-2022.000,-3097.000,8225.000,-510.000,-501.000,185.000,NA,0.000,0
2026-01-30 21:49:52,1127006,-1861.000,-3261.000,8439.000,-745.000,-623.000,107.000,NA,0.000,0
2026-01-30 21:49:52,1127044,-1840.000,-2965.000,7753.000,-893.000,-753.000,29.000,NA,0.000,0
2026-01-30 21:49:52,1127084,-1489.000,-2732.000,7617.000,-1152.000,-767.000,-63.000,NA,0.000,0
2026-01-30 21:49:52,1127124,-867.000,-3494.000,7171.000,-1606.000,-549.000,56.000,NA,0.000,0
2026-01-30 21:49:52,1127164,-1238.000,-3293.000,6534.000,238.000,-227.000,278.000,NA,0.000,0
2026-01-30 21:49:52,1127204,-1732.000,-3147.000,7673.000,1.000,-754.000,-332.000,NA,0.000,0
2026-01-30 21:49:52,1127244,-1163.000,-3188.000,8319.000,-625.000,-855.000,-439.000,NA,0.000,0
2026-01-30 21:49:53,1127284,-990.000,-2525.000,6658.000,-608.000,-191.000,42.000,NA,0.000,0
2026-01-30 21:49:53,1127324,-1106.000,-3174.000,5952.000,-264.000,275.000,340.000,NA,0.000,0
2026-01-30 21:49:53,1127364,-1406.000,-4239.000,7276.000,423.000,288.000,359.000,NA,0.000,0
2026-01-30 21:49:53,1127404,-1717.000,-4345.000,9203.000,789.000,-13.000,67.000,NA,0.000,0
2026-01-30 21:49:53,1127444,-1915.000,-2836.000,8544.000,792.000,-82.000,-24.000,NA,0.000,0
2026-01-30 21:49:53,1127484,-1488.000,-3434.000,7746.000,-593.000,98.000,-278.000,NA,0.000,0
2026-01-30 21:49:53,1127524,-1277.000,-3534.000,7276.000,410.000,202.000,-172.000,NA,0.000,0
2026-01-30 21:49:53,1127564,-1271.000,-3178.000,7877.000,804.000,383.000,-90.000,NA,0.000,0
2026-01-30 21:49:53,1127604,-1266.000,-3107.000,8193.000,845.000,449.000,-104.000,NA,0.000,0
2026-01-30 21:49:53,1127644,-1319.000,-3015.000,8280.000,511.000,335.000,-165.000,NA,0.000,0
2026-01-30 21:49:53,1127684,-1480.000,-2960.000,7773.000,178.000,20.000,-231.000,NA,0.000,0
2026-01-30 21:49:53,1127724,-1452.000,-2655.000,7840.000,222.000,-113.000,-204.000,NA,0.000,0
2026-01-30 21:49:53,1127764,-1546.000,-2561.000,7624.000,-83.000,-41.000,-133.000,NA,0.000,0
2026-01-30 21:49:53,1127804,-1570.000,-3255.000,7532.000,-255.000,-7.000,-88.000,NA,0.000,0
2026-01-30 21:49:53,1127844,-1546.000,-3024.000,7812.000,239.000,-42.000,73.000,NA,0.000,0
2026-01-30 21:49:53,1127884,-1486.000,-3091.000,8017.000,99.000,-22.000,95.000,NA,0.000,0
2026-01-30 21:49:53,1127924,-1912.000,-3488.000,8372.000,111.000,34.000,-43.000,NA,0.000,0
2026-01-30 21:49:53,1127964,-1936.000,-2887.000,8256.000,497.000,-12.000,-105.000,NA,0.000,0
2026-01-30 21:49:53,1128004,-1824.000,-2766.000,7866.000,36.000,-68.000,-240.000,NA,0.000,0
2026-01-30 21:49:53,1128044,-1712.000,-2542.000,7636.000,93.000,-176.000,-325.000,NA,0.000,0
2026-01-30 21:49:53,1128084,-1773.000,-2468.000,7608.000,420.000,75.000,-300.000,NA,0.000,0
2026-01-30 21:49:53,1128124,-1870.000,-2062.000,7637.000,655.000,320.000,-228.000,NA,0.000,0
2026-01-30 21:49:53,1128164,-2220.000,-1914.000,7539.000,662.000,407.000,-219.000,NA,0.000,0
2026-01-30 21:49:53,1128204,-2320.000,-2005.000,7539.000,355.000,-71.000,-345.000,NA,0.000,0
2026-01-30 21:49:53,1128244,-2033.000,-2009.000,8287.000,65.000,-178.000,-341.000,NA,0.000,0
2026-01-30 21:49:54,1128284,-2264.000,-1731.000,7258.000,78.000,494.000,87.000,NA,0.000,0
2026-01-30 21:49:54,1128324,-2709.000,-2268.000,7736.000,745.000,459.000,77.000,NA,0.000,0
2026-01-30 21:49:54,1128364,-2432.000,-1956.000,9158.000,753.000,-107.000,-136.000,NA,0.000,0
2026-01-30 21:49:54,1128404,-2267.000,-1696.000,8666.000,-194.000,-283.000,-261.000,NA,0.000,0
2026-01-30 21:49:54,1128444,-2218.000,-1808.000,7469.000,-515.000,-138.000,-168.000,NA,0.000,0
2026-01-30 21:49:54,1128484,-2388.000,-1891.000,7400.000,-42.000,-52.000,-40.000,NA,0.000,0
2026-01-30 21:49:54,1128524,-2183.000,-2347.000,8609.000,-8.000,-21.000,89.000,NA,0.000,0
2026-01-30 21:49:54,1128564,-2149.000,-2097.000,8597.000,-93.000,-15.000,93.000,NA,0.000,0
2026-01-30 21:49:54,1128604,-2001.000,-2271.000,8347.000,-577.000,-21.000,35.000,NA,0.000,0
2026-01-30 21:49:54,1128644,-2041.000,-2496.000,8104.000,-542.000,-179.000,42.000,NA,0.000,0
2026-01-30 21:49:54,1128684,-1795.000,-2407.000,8253.000,-467.000,-452.000,-67.000,NA,0.000,0
2026-01-30 21:49:54,1128724,-1772.000,-2323.000,7996.000,-507.000,-431.000,-71.000,NA,0.000,0
2026-01-30 21:49:54,1128766,-1850.000,-2180.000,7518.000,-388.000,-242.000,32.000,NA,0.000,0
2026-01-30 21:49:54,1128804,-1849.000,-2681.000,7540.000,-261.000,-155.000,55.000,NA,0.000,0
2026-01-30 21:49:54,1128844,-1647.000,-2746.000,8372.000,43.000,-115.000,150.000,NA,0.000,0
2026-01-30 21:49:54,1128884,-1969.000,-2187.000,7901.000,211.000,-68.000,154.000,NA,0.000,0
2026-01-30 21:49:54,1128924,-1852.000,-2924.000,8300.000,-213.000,-98.000,-8.000,NA,0.000,0
2026-01-30 21:49:54,1128964,-2043.000,-2671.000,7949.000,71.000,-97.000,-52.000,NA,0.000,0
2026-01-30 21:49:54,1129007,-1996.000,-2354.000,7682.000,-55.000,-24.000,-224.000,NA,0.000,0
2026-01-30 21:49:54,1129045,-2214.000,-2330.000,7347.000,74.000,48.000,-276.000,NA,0.000,0
2026-01-30 21:49:54,1129084,-1948.000,-2089.000,7566.000,486.000,106.000,-326.000,NA,0.000,0
2026-01-30 21:49:54,1129124,-2030.000,-1598.000,7624.000,458.000,256.000,-367.000,NA,0.000,0
2026-01-30 21:49:54,1129164,-1927.000,-2058.000,7788.000,119.000,579.000,-248.000,NA,0.000,0
2026-01-30 21:49:54,1129204,-2289.000,-2073.000,7606.000,714.000,744.000,-71.000,NA,0.000,0
2026-01-30 21:49:54,1129244,-2151.000,-1856.000,8527.000,907.000,352.000,-89.000,NA,0.000,0
2026-01-30 21:49:55,1129284,-1949.000,-2004.000,9331.000,106.000,206.000,-149.000,NA,0.000,0
2026-01-30 21:49:55,1129324,-2014.000,-1921.000,8444.000,-249.000,267.000,-92.000,NA,0.000,0
2026-01-30 21:49:55,1129364,-2197.000,-2200.000,7783.000,-238.000,108.000,-15.000,NA,0.000,0
2026-01-30 21:49:55,1129404,-1737.000,-2578.000,8566.000,-217.000,-239.000,2.000,NA,0.000,0
2026-01-30 21:49:55,1129444,-1821.000,-1972.000,7730.000,-502.000,-510.000,41.000,NA,0.000,0
2026-01-30 21:49:55,1129484,-1786.000,-2787.000,8139.000,-772.000,-405.000,73.000,NA,0.000,0
2026-01-30 21:49:55,1129524,-2070.000,-2358.000,7720.000,-267.000,-254.000,184.000,NA,0.000,0
2026-01-30 21:49:55,1129564,-1776.000,-2866.000,7943.000,-465.000,-357.000,128.000,NA,0.000,0
2026-01-30 21:49:55,1129604,-1703.000,-3212.000,8132.000,-528.000,-333.000,134.000,NA,0.000,0
2026-01-30 21:49:55,1129644,-1729.000,-2665.000,7890.000,-259.000,-310.000,197.000,NA,0.000,0
2026-01-30 21:49:55,1129684,-1939.000,-3223.000,7721.000,-357.000,-276.000,232.000,NA,0.000,0
2026-01-30 21:49:55,1129724,-1861.000,-3434.000,8052.000,-226.000,-541.000,116.000,NA,0.000,0
2026-01-30 21:49:55,1129764,-1775.000,-2996.000,8179.000,21.000,-447.000,-32.000,NA,0.000,0
2026-01-30 21:49:55,1129804,-1696.000,-2677.000,7110.000,-256.000,-287.000,-173.000,NA,0.000,0
2026-01-30 21:49:55,1129844,-1878.000,-2663.000,6876.000,-152.000,-373.000,-287.000,NA,0.000,0
2026-01-30 21:49:55,1129884,-1403.000,-2539.000,7429.000,-200.000,-258.000,-298.000,NA,0.000,0
2026-01-30 21:49:55,1129924,-1167.000,-3096.000,7489.000,-133.000,625.000,78.000,NA,0.000,0
2026-01-30 21:49:55,1129964,-1813.000,-3161.000,6938.000,914.000,908.000,267.000,NA,0.000,0
2026-01-30 21:49:55,1130004,-2101.000,-3424.000,8831.000,1069.000,484.000,22.000,NA,0.000,0
2026-01-30 21:49:55,1130044,-2009.000,-3303.000,9852.000,425.000,85.000,-301.000,NA,0.000,0
2026-01-30 21:49:55,1130084,-2086.000,-2552.000,8768.000,93.000,207.000,-324.000,NA,0.000,0
2026-01-30 21:49:55,1130124,-2552.000,-1681.000,6910.000,-81.000,233.000,-402.000,NA,0.000,0
2026-01-30 21:49:55,1130164,-1956.000,-2472.000,7380.000,-690.000,-504.000,-715.000,NA,0.000,0
2026-01-30 21:49:55,1130204,-1724.000,-2039.000,7265.000,568.000,384.000,-163.000,NA,0.000,0
2026-01-30 21:49:55,1130244,-1993.000,-1972.000,7110.000,668.000,1173.000,160.000,NA,0.000,0
2026-01-30 21:49:56,1130284,-2830.000,-2475.000,8123.000,1005.000,1105.000,134.000,NA,0.000,0
2026-01-30 21:49:56,1130324,-2209.000,-3355.000,10030.000,329.000,85.000,-239.000,NA,0.000,0
2026-01-30 21:49:56,1130364,-2398.000,-1806.000,8669.000,191.000,-222.000,-193.000,NA,0.000,0
2026-01-30 21:49:56,1130404,-2101.000,-1723.000,7295.000,-963.000,-459.000,-273.000,NA,0.000,0
2026-01-30 21:49:56,1130444,-1660.000,-2730.000,7523.000,-995.000,44.000,-63.000,NA,0.000,0
2026-01-30 21:49:56,1130484,-2000.000,-2636.000,7284.000,77.000,183.000,133.000,NA,0.000,0
2026-01-30 21:49:56,1130524,-1890.000,-2044.000,7974.000,252.000,-184.000,-53.000,NA,0.000,0
2026-01-30 21:49:56,1130564,-1436.000,-3031.000,8020.000,-877.000,-542.000,-12.000,NA,0.000,0
2026-01-30 21:49:56,1130604,-1822.000,-2872.000,7239.000,-399.000,-125.000,387.000,NA,0.000,0
2026-01-30 21:49:56,1130644,-1885.000,-3556.000,7951.000,-249.000,-93.000,492.000,NA,0.000,0
2026-01-30 21:49:56,1130684,-1722.000,-4066.000,8909.000,-596.000,-565.000,342.000,NA,0.000,0
2026-01-30 21:49:56,1130724,-1626.000,-4244.000,8692.000,-955.000,-790.000,164.000,NA,0.000,0
2026-01-30 21:49:56,1130766,-1602.000,-3334.000,7422.000,-774.000,-930.000,54.000,NA,0.000,0
2026-01-30 21:49:56,1130805,-1149.000,-3679.000,7297.000,-1240.000,-881.000,-78.000,NA,0.000,0
2026-01-30 21:49:56,1130844,-1169.000,-3818.000,6687.000,-707.000,-474.000,23.000,NA,0.000,0
2026-01-30 21:49:56,1130884,-1433.000,-3283.000,6165.000,70.000,-474.000,-126.000,NA,0.000,0
2026-01-30 21:49:56,1130924,-917.000,-3214.000,7055.000,110.000,-563.000,-327.000,NA,0.000,0
2026-01-30 21:49:56,1130964,-739.000,-3125.000,6708.000,521.000,439.000,7.000,NA,0.000,0
2026-01-30 21:49:56,1131006,-963.000,-3397.000,6612.000,878.000,948.000,178.000,NA,0.000,0
2026-01-30 21:49:56,1131044,-1256.000,-3890.000,7955.000,1178.000,795.000,-5.000,NA,0.000,0
2026-01-30 21:49:56,1131084,-1391.000,-4086.000,9390.000,976.000,437.000,-253.000,NA,0.000,0
2026-01-30 21:49:56,1131124,-1430.000,-2892.000,8853.000,666.000,269.000,-204.000,NA,0.000,0
2026-01-30 21:49:56,1131164,-1239.000,-2818.000,7949.000,-441.000,250.000,-258.000,NA,0.000,0
2026-01-30 21:49:56,1131204,-1104.000,-3838.000,7536.000,-894.000,263.000,-213.000,NA,0.000,0
2026-01-30 21:49:56,1131244,-1011.000,-3819.000,7735.000,125.000,108.000,-68.000,NA,0.000,0
2026-01-30 21:49:57,1131284,-1189.000,-3142.000,7886.000,307.000,-113.000,-40.000,NA,0.000,0
2026-01-30 21:49:57,1131324,-1309.000,-3276.000,7375.000,-312.000,-487.000,-38.000,NA,0.000,0
2026-01-30 21:49:57,1131364,-1113.000,-3853.000,7952.000,-546.000,-332.000,86.000,NA,0.000,0
2026-01-30 21:49:57,1131404,-1518.000,-3302.000,7492.000,320.000,100.000,212.000,NA,0.000,0
2026-01-30 21:49:57,1131444,-1449.000,-3694.000,7681.000,-117.000,-78.000,-111.000,NA,0.000,0
2026-01-30 21:49:57,1131484,-1360.000,-3243.000,7199.000,-272.000,-814.000,-394.000,NA,0.000,0
2026-01-30 21:49:57,1131524,-510.000,-3584.000,7813.000,-726.000,-555.000,-349.000,NA,0.000,0
2026-01-30 21:49:57,1131564,-804.000,-3324.000,7087.000,463.000,952.000,276.000,NA,0.000,0
2026-01-30 21:49:57,1131604,-1581.000,-3548.000,6519.000,1289.000,1146.000,243.000,NA,0.000,0
2026-01-30 21:49:57,1131644,-1363.000,-4802.000,9349.000,767.000,350.000,-307.000,NA,0.000,0
2026-01-30 21:49:57,1131684,-658.000,-3843.000,10001.000,912.000,41.000,-242.000,NA,0.000,0
2026-01-30 21:49:57,1131724,-1695.000,-2485.000,7184.000,-504.000,49.000,-91.000,NA,0.000,0
2026-01-30 21:49:57,1131764,-1185.000,-4526.000,7869.000,-1342.000,-20.000,38.000,NA,0.000,0
2026-01-30 21:49:57,1131804,-1562.000,-3096.000,7570.000,512.000,-476.000,-159.000,NA,0.000,0
2026-01-30 21:49:57,1131844,-1475.000,-2392.000,7805.000,-798.000,-977.000,-385.000,NA,0.000,0
2026-01-30 21:49:57,1131884,-1142.000,-2537.000,6550.000,-1802.000,-795.000,-192.000,NA,0.000,0
2026-01-30 21:49:57,1131924,-1011.000,-3104.000,5722.000,-1513.000,-241.000,162.000,NA,0.000,0
2026-01-30 21:49:57,1131964,-1122.000,-4328.000,6705.000,-824.000,284.000,436.000,NA,0.000,0
2026-01-30 21:49:57,1132004,-1791.000,-4809.000,8113.000,450.000,403.000,301.000,NA,0.000,0
2026-01-30 21:49:57,1132044,-1976.000,-4962.000,9508.000,140.000,-212.000,-272.000,NA,0.000,0
2026-01-30 21:49:57,1132084,-1516.000,-3731.000,7594.000,-125.000,-512.000,-520.000,NA,0.000,0
2026-01-30 21:49:57,1132124,-917.000,-3478.000,6805.000,-122.000,-102.000,-252.000,NA,0.000,0
2026-01-30 21:49:57,1132164,-1045.000,-3523.000,6781.000,297.000,277.000,-70.000,NA,0.000,0
2026-01-30 21:49:57,1132204,-1101.000,-4166.000,7564.000,351.000,236.000,-154.000,NA,0.000,0
2026-01-30 21:49:57,1132244,-1079.000,-4215.000,8135.000,346.000,209.000,-99.000,NA,0.000,0
2026-01-30 21:49:58,1132284,-1511.000,-3465.000,7673.000,645.000,173.000,-104.000,NA,0.000,0
2026-01-30 21:49:58,1132324,-1425.000,-4065.000,7960.000,-228.000,145.000,-229.000,NA,0.000,0
2026-01-30 21:49:58,1132364,-1652.000,-3807.000,7521.000,81.000,69.000,-139.000,NA,0.000,0
2026-01-30 21:49:58,1132404,-1556.000,-3340.000,7290.000,-151.000,-183.000,-112.000,NA,0.000,0
2026-01-30 21:49:58,1132444,-1191.000,-3568.000,7297.000,-674.000,-339.000,-151.000,NA,0.000,0
2026-01-30 21:49:58,1132484,-1484.000,-3755.000,6631.000,-547.000,-316.000,20.000,NA,0.000,0
2026-01-30 21:49:58,1132524,-1531.000,-4308.000,7172.000,-552.000,-280.000,100.000,NA,0.000,0
2026-01-30 21:49:58,1132564,-1293.000,-4193.000,7657.000,99.000,-361.000,33.000,NA,0.000,0
2026-01-30 21:49:58,1132604,-1405.000,-4059.000,7446.000,-363.000,-294.000,-116.000,NA,0.000,0
2026-01-30 21:49:58,1132644,-1530.000,-4143.000,6991.000,-488.000,-317.000,-160.000,NA,0.000,0
2026-01-30 21:49:58,1132684,-1381.000,-3905.000,6763.000,-34.000,-204.000,-243.000,NA,0.000,0
2026-01-30 21:49:58,1132724,-973.000,-3960.000,7147.000,46.000,41.000,-251.000,NA,0.000,0
2026-01-30 21:49:58,1132766,-1176.000,-3999.000,6728.000,314.000,479.000,-143.000,NA,0.000,0
2026-01-30 21:49:58,1132804,-985.000,-4264.000,7235.000,611.000,619.000,-85.000,NA,0.000,0
2026-01-30 21:49:58,1132844,-1223.000,-4296.000,8372.000,1170.000,606.000,-173.000,NA,0.000,0
2026-01-30 21:49:58,1132884,-1082.000,-3902.000,8655.000,793.000,364.000,-282.000,NA,0.000,0
2026-01-30 21:49:58,1132924,-1510.000,-3223.000,7927.000,597.000,287.000,-282.000,NA,0.000,0
2026-01-30 21:49:58,1132964,-1330.000,-3843.000,7736.000,-97.000,141.000,-370.000,NA,0.000,0
2026-01-30 21:49:58,1133006,-1095.000,-3841.000,7528.000,-86.000,90.000,-283.000,NA,0.000,0
2026-01-30 21:49:58,1133044,-1145.000,-3550.000,7236.000,286.000,288.000,-84.000,NA,0.000,0
2026-01-30 21:49:58,1133084,-1248.000,-3690.000,7349.000,287.000,338.000,-68.000,NA,0.000,0
2026-01-30 21:49:58,1133124,-1114.000,-3763.000,7885.000,391.000,192.000,-103.000,NA,0.000,0
2026-01-30 21:49:58,1133164,-1249.000,-3679.000,8028.000,96.000,77.000,-74.000,NA,0.000,0
2026-01-30 21:49:58,1133204,-1502.000,-3510.000,7684.000,-58.000,-44.000,-99.000,NA,0.000,0
2026-01-30 21:49:58,1133244,-1261.000,-3870.000,7715.000,-404.000,-167.000,-119.000,NA,0.000,0
2026-01-30 21:49:59,1133284,-1152.000,-3594.000,7260.000,-297.000,-92.000,-66.000,NA,0.000,0
2026-01-30 21:49:59,1133324,-1223.000,-3634.000,6957.000,-189.000,-18.000,-70.000,NA,0.000,0
2026-01-30 21:49:59,1133364,-1262.000,-4003.000,7456.000,-397.000,-144.000,-98.000,NA,0.000,0
2026-01-30 21:49:59,1133404,-1439.000,-3987.000,7567.000,-43.000,60.000,-79.000,NA,0.000,0
2026-01-30 21:49:59,1133444,-1304.000,-3676.000,7434.000,-102.000,51.000,-44.000,NA,0.000,0
2026-01-30 21:49:59,1133484,-1526.000,-4106.000,7304.000,-211.000,75.000,-116.000,NA,0.000,0
2026-01-30 21:49:59,1133524,-1308.000,-3718.000,7469.000,43.000,-240.000,-207.000,NA,0.000,0
2026-01-30 21:49:59,1133564,-1084.000,-3577.000,7534.000,-12.000,5.000,-134.000,NA,0.000,0
2026-01-30 21:49:59,1133604,-1641.000,-3685.000,6995.000,-43.000,287.000,-115.000,NA,0.000,0
2026-01-30 21:49:59,1133644,-1284.000,-4187.000,7792.000,264.000,159.000,-167.000,NA,0.000,0
2026-01-30 21:49:59,1133684,-1192.000,-3565.000,7699.000,394.000,211.000,-144.000,NA,0.000,0
2026-01-30 21:49:59,1133724,-1303.000,-3897.000,7475.000,40.000,351.000,-172.000,NA,0.000,0
2026-01-30 21:49:59,1133764,-1504.000,-4129.000,7629.000,287.000,307.000,-171.000,NA,0.000,0
2026-01-30 21:49:59,1133804,-1430.000,-3883.000,7946.000,397.000,144.000,-139.000,NA,0.000,0
2026-01-30 21:49:59,1133844,-1421.000,-3589.000,7960.000,62.000,32.000,-199.000,NA,0.000,0
2026-01-30 21:49:59,1133884,-1375.000,-3874.000,7686.000,-207.000,127.000,-123.000,NA,0.000,0
2026-01-30 21:49:59,1133924,-1508.000,-3859.000,7330.000,124.000,79.000,-88.000,NA,0.000,0
2026-01-30 21:49:59,1133964,-1250.000,-3952.000,7956.000,93.000,-37.000,-152.000,NA,0.000,0
2026-01-30 21:49:59,1134004,-1457.000,-3604.000,7236.000,-182.000,-28.000,-164.000,NA,0.000,0
2026-01-30 21:49:59,1134044,-1179.000,-3548.000,7159.000,-75.000,-64.000,-84.000,NA,0.000,0
2026-01-30 21:49:59,1134084,-1154.000,-3978.000,7370.000,-80.000,25.000,-125.000,NA,0.000,0
2026-01-30 21:49:59,1134124,-1135.000,-3521.000,7605.000,303.000,154.000,-85.000,NA,0.000,0
2026-01-30 21:49:59,1134164,-1373.000,-3494.000,7202.000,279.000,264.000,-93.000,NA,0.000,0
2026-01-30 21:49:59,1134204,-1325.000,-3541.000,7362.000,40.000,1.000,-272.000,NA,0.000,0
2026-01-30 21:49:59,1134244,-1193.000,-3551.000,7571.000,-48.000,-94.000,-216.000,NA,0.000,0
2026-01-30 21:50:00,1134284,-1301.000,-3671.000,7512.000,-26.000,334.000,56.000,NA,0.000,0
2026-01-30 21:50:00,1134324,-1353.000,-3530.000,7294.000,565.000,430.000,88.000,NA,0.000,0
2026-01-30 21:50:00,1134364,-1285.000,-3968.000,8243.000,33.000,-13.000,-215.000,NA,0.000,0
2026-01-30 21:50:00,1134404,-1338.000,-3141.000,7395.000,-138.000,-49.000,-121.000,NA,0.000,0
2026-01-30 21:50:00,1134444,-1495.000,-3113.000,6874.000,47.000,27.000,-143.000,NA,0.000,0
2026-01-30 21:50:00,1134484,-1079.000,-3867.000,8081.000,-110.000,4.000,-121.000,NA,0.000,0
2026-01-30 21:50:00,1134524,-1398.000,-3300.000,7512.000,93.000,231.000,23.000,NA,0.000,0
2026-01-30 21:50:00,1134564,-1178.000,-3745.000,7422.000,-35.000,205.000,-11.000,NA,0.000,0
2026-01-30 21:50:00,1134604,-1301.000,-3959.000,7946.000,143.000,-40.000,-107.000,NA,0.000,0
2026-01-30 21:50:00,1134644,-1447.000,-3756.000,8364.000,81.000,-128.000,-109.000,NA,0.000,0
2026-01-30 21:50:00,1134684,-1898.000,-3262.000,8079.000,99.000,11.000,-174.000,NA,0.000,0
2026-01-30 21:50:00,1134724,-1440.000,-3858.000,7844.000,-669.000,-62.000,-228.000,NA,0.000,0
2026-01-30 21:50:00,1134766,-1263.000,-3658.000,7303.000,99.000,115.000,-40.000,NA,0.000,0
2026-01-30 21:50:00,1134805,-1395.000,-3945.000,7623.000,174.000,173.000,2.000,NA,0.000,0
2026-01-30 21:50:00,1134844,-1605.000,-3900.000,8207.000,120.000,-124.000,-154.000,NA,0.000,0
2026-01-30 21:50:00,1134884,-1664.000,-3918.000,8092.000,-54.000,-41.000,-135.000,NA,0.000,0
2026-01-30 21:50:00,1134924,-1412.000,-3593.000,7429.000,-42.000,-60.000,-110.000,NA,0.000,0
2026-01-30 21:50:00,1134964,-1185.000,-3764.000,7572.000,-121.000,-34.000,-205.000,NA,0.000,0
2026-01-30 21:50:00,1135007,-1398.000,-3663.000,7044.000,13.000,196.000,-28.000,NA,0.000,0
2026-01-30 21:50:00,1135044,-1617.000,-3274.000,6854.000,330.000,136.000,-71.000,NA,0.000,0
2026-01-30 21:50:00,1135084,-1421.000,-3697.000,7435.000,-245.000,-125.000,-249.000,NA,0.000,0
2026-01-30 21:50:00,1135124,-1319.000,-3513.000,7735.000,57.000,-46.000,-176.000,NA,0.000,0
2026-01-30 21:50:00,1135164,-1552.000,-3255.000,7156.000,204.000,259.000,-120.000,NA,0.000,0
2026-01-30 21:50:00,1135204,-1377.000,-3772.000,7591.000,124.000,147.000,-140.000,NA,0.000,0
2026-01-30 21:50:00,1135244,-1715.000,-3050.000,7133.000,210.000,-6.000,-119.000,NA,0.000,0
2026-01-30 21:50:01,1135284,-1899.000,-3098.000,7351.000,-79.000,-178.000,-202.000,NA,0.000,0
2026-01-30 21:50:01,1135324,-1969.000,-3770.000,7582.000,-304.000,-128.000,-205.000,NA,0.000,0
2026-01-30 21:50:01,1135364,-2014.000,-3209.000,7703.000,420.000,229.000,-95.000,NA,0.000,0
2026-01-30 21:50:01,1135404,-1840.000,-3057.000,7422.000,305.000,228.000,-217.000,NA,0.000,0
2026-01-30 21:50:01,1135444,-1740.000,-3430.000,7803.000,272.000,204.000,-311.000,NA,0.000,0
2026-01-30 21:50:01,1135484,-1785.000,-3163.000,7893.000,607.000,331.000,-247.000,NA,0.000,0
2026-01-30 21:50:01,1135524,-1910.000,-2662.000,8170.000,1166.000,230.000,-253.000,NA,0.000,0
2026-01-30 21:50:01,1135564,-1603.000,-3183.000,8096.000,-188.000,-7.000,-265.000,NA,0.000,0
2026-01-30 21:50:01,1135604,-1553.000,-3069.000,7790.000,-153.000,-64.000,-181.000,NA,0.000,0
2026-01-30 21:50:01,1135644,-1416.000,-3211.000,7864.000,-264.000,-96.000,-86.000,NA,0.000,0
2026-01-30 21:50:01,1135684,-1421.000,-3290.000,7877.000,-342.000,-171.000,-34.000,NA,0.000,0
2026-01-30 21:50:01,1135724,-1533.000,-3673.000,7897.000,-551.000,-414.000,-20.000,NA,0.000,0
2026-01-30 21:50:01,1135764,-1446.000,-3558.000,7765.000,-707.000,-626.000,-3.000,NA,0.000,0
2026-01-30 21:50:01,1135804,-1487.000,-3660.000,7631.000,-815.000,-720.000,-115.000,NA,0.000,0
2026-01-30 21:50:01,1135844,-1344.000,-3571.000,7359.000,-993.000,-810.000,-52.000,NA,0.000,0
2026-01-30 21:50:01,1135884,-1159.000,-3804.000,7106.000,-916.000,-743.000,39.000,NA,0.000,0
2026-01-30 21:50:01,1135924,-1177.000,-3950.000,7023.000,-567.000,-475.000,-41.000,NA,0.000,0
2026-01-30 21:50:01,1135964,-1198.000,-4116.000,7300.000,-604.000,-542.000,-195.000,NA,0.000,0
2026-01-30 21:50:01,1136004,-991.000,-4501.000,7402.000,-573.000,-457.000,-274.000,NA,0.000,0
2026-01-30 21:50:01,1136044,-1151.000,-3945.000,7128.000,197.000,-132.000,-258.000,NA,0.000,0
2026-01-30 21:50:01,1136084,-817.000,-4086.000,7369.000,460.000,14.000,-323.000,NA,0.000,0
2026-01-30 21:50:01,1136124,-931.000,-4269.000,7335.000,770.000,253.000,-348.000,NA,0.000,0
2026-01-30 21:50:01,1136164,-1025.000,-3337.000,7532.000,1885.000,183.000,-396.000,NA,0.000,0
2026-01-30 21:50:01,1136204,-901.000,-3342.000,7927.000,1386.000,265.000,-324.000,NA,0.000,0
2026-01-30 21:50:01,1136244,-941.000,-3331.000,7879.000,1142.000,395.000,-165.000,NA,0.000,0
2026-01-30 21:50:02,1136284,-1173.000,-3327.000,8364.000,1260.000,132.000,-236.000,NA,0.000,0
2026-01-30 21:50:02,1136324,-1186.000,-3257.000,8578.000,665.000,-32.000,-290.000,NA,0.000,0
2026-01-30 21:50:02,1136364,-1165.000,-2591.000,8062.000,894.000,36.000,-298.000,NA,0.000,0
2026-01-30 21:50:02,1136404,-1269.000,-2478.000,7645.000,233.000,-21.000,-330.000,NA,0.000,0
2026-01-30 21:50:02,1136444,-970.000,-2817.000,7669.000,-6.000,20.000,-262.000,NA,0.000,0
2026-01-30 21:50:02,1136484,-1226.000,-2534.000,7699.000,617.000,249.000,-267.000,NA,0.000,0
2026-01-30 21:50:02,1136524,-1409.000,-2351.000,7898.000,372.000,383.000,-287.000,NA,0.000,0
2026-01-30 21:50:02,1136564,-1526.000,-2471.000,8101.000,569.000,542.000,-336.000,NA,0.000,0
2026-01-30 21:50:02,1136604,-1552.000,-2263.000,8070.000,461.000,462.000,-432.000,NA,0.000,0
2026-01-30 21:50:02,1136644,-1341.000,-1940.000,8248.000,25.000,447.000,-410.000,NA,0.000,0
2026-01-30 21:50:02,1136684,-1482.000,-2197.000,8314.000,-107.000,538.000,-304.000,NA,0.000,0
2026-01-30 21:50:02,1136724,-1690.000,-2286.000,8263.000,-26.000,605.000,-256.000,NA,0.000,0
2026-01-30 21:50:02,1136766,-1585.000,-2432.000,8248.000,-68.000,291.000,-195.000,NA,0.000,0
2026-01-30 21:50:02,1136805,-1418.000,-2369.000,8483.000,-343.000,88.000,-88.000,NA,0.000,0
2026-01-30 21:50:02,1136844,-1587.000,-2314.000,8134.000,-159.000,-37.000,69.000,NA,0.000,0
2026-01-30 21:50:02,1136884,-1528.000,-2730.000,8310.000,-805.000,-207.000,117.000,NA,0.000,0
2026-01-30 21:50:02,1136924,-1782.000,-2893.000,8137.000,-825.000,-399.000,155.000,NA,0.000,0
2026-01-30 21:50:02,1136964,-1537.000,-3272.000,7948.000,-1250.000,-588.000,146.000,NA,0.000,0
2026-01-30 21:50:02,1137006,-1536.000,-3432.000,7465.000,-1209.000,-511.000,215.000,NA,0.000,0
2026-01-30 21:50:02,1137044,-1265.000,-3475.000,7873.000,-406.000,-637.000,105.000,NA,0.000,0
2026-01-30 21:50:02,1137084,-1382.000,-3823.000,7674.000,-701.000,-389.000,152.000,NA,0.000,0
2026-01-30 21:50:02,1137124,-1183.000,-3307.000,7499.000,-50.000,-294.000,56.000,NA,0.000,0
2026-01-30 21:50:02,1137164,-1068.000,-3738.000,7434.000,-255.000,-79.000,-67.000,NA,0.000,0
2026-01-30 21:50:02,1137204,-1236.000,-3631.000,7390.000,365.000,84.000,-153.000,NA,0.000,0
2026-01-30 21:50:02,1137244,-1493.000,-3046.000,7335.000,968.000,76.000,-443.000,NA,0.000,0
2026-01-30 21:50:03,1137284,-1135.000,-2615.000,7597.000,550.000,61.000,-403.000,NA,0.000,0
2026-01-30 21:50:03,1137324,-957.000,-2771.000,7130.000,493.000,701.000,-77.000,NA,0.000,0
2026-01-30 21:50:03,1137364,-1230.000,-2873.000,7199.000,1348.000,1056.000,29.000,NA,0.000,0
2026-01-30 21:50:03,1137404,-1435.000,-3072.000,8665.000,1410.000,747.000,-231.000,NA,0.000,0
2026-01-30 21:50:03,1137444,-1798.000,-2660.000,9198.000,974.000,494.000,-367.000,NA,0.000,0
2026-01-30 21:50:03,1137484,-2059.000,-1889.000,8133.000,333.000,407.000,-497.000,NA,0.000,0
2026-01-30 21:50:03,1137524,-1470.000,-2391.000,8217.000,-151.000,306.000,-546.000,NA,0.000,0
2026-01-30 21:50:03,1137564,-1673.000,-2318.000,7557.000,361.000,656.000,-408.000,NA,0.000,0
2026-01-30 21:50:03,1137604,-1941.000,-1630.000,7667.000,595.000,486.000,-371.000,NA,0.000,0
2026-01-30 21:50:03,1137644,-1892.000,-1798.000,8143.000,-312.000,410.000,-411.000,NA,0.000,0
2026-01-30 21:50:03,1137684,-1912.000,-2163.000,8235.000,-88.000,319.000,-420.000,NA,0.000,0
2026-01-30 21:50:03,1137724,-2105.000,-2116.000,7896.000,310.000,568.000,-244.000,NA,0.000,0
2026-01-30 21:50:03,1137764,-2311.000,-1559.000,7961.000,490.000,414.000,-225.000,NA,0.000,0
2026-01-30 21:50:03,1137804,-2219.000,-2424.000,8417.000,-200.000,191.000,-188.000,NA,0.000,0
2026-01-30 21:50:03,1137844,-2424.000,-2041.000,8072.000,120.000,111.000,-1.000,NA,0.000,0
2026-01-30 21:50:03,1137884,-2288.000,-1845.000,8164.000,-87.000,-113.000,-38.000,NA,0.000,0
2026-01-30 21:50:03,1137924,-2077.000,-2208.000,8799.000,-451.000,-223.000,-88.000,NA,0.000,0
2026-01-30 21:50:03,1137964,-2555.000,-2469.000,7977.000,-445.000,-101.000,63.000,NA,0.000,0
2026-01-30 21:50:03,1138004,-2412.000,-2350.000,7819.000,-367.000,-325.000,61.000,NA,0.000,0
2026-01-30 21:50:03,1138044,-2064.000,-2417.000,7986.000,-564.000,-572.000,5.000,NA,0.000,0
2026-01-30 21:50:03,1138084,-2088.000,-2601.000,8005.000,-634.000,-431.000,78.000,NA,0.000,0
2026-01-30 21:50:03,1138124,-2381.000,-2404.000,7559.000,-77.000,-162.000,148.000,NA,0.000,0
2026-01-30 21:50:03,1138164,-2380.000,-2194.000,7701.000,-67.000,-529.000,-32.000,NA,0.000,0
2026-01-30 21:50:03,1138204,-1923.000,-2532.000,7725.000,-853.000,-640.000,-202.000,NA,0.000,0
2026-01-30 21:50:03,1138244,-2017.000,-2540.000,7067.000,-398.000,-53.000,55.000,NA,0.000,0
2026-01-30 21:50:04,1138284,-2172.000,-2680.000,7089.000,345.000,192.000,150.000,NA,0.000,0
2026-01-30 21:50:04,1138324,-2313.000,-2876.000,8174.000,488.000,50.000,24.000,NA,0.000,0
2026-01-30 21:50:04,1138364,-1869.000,-3268.000,8951.000,-126.000,-159.000,-72.000,NA,0.000,0
2026-01-30 21:50:04,1138404,-2198.000,-2591.000,7916.000,-50.000,-50.000,-161.000,NA,0.000,0
2026-01-30 21:50:04,1138444,-1741.000,-3012.000,7696.000,-547.000,-138.000,-244.000,NA,0.000,0
2026-01-30 21:50:04,1138484,-1961.000,-3044.000,7486.000,-114.000,42.000,-198.000,NA,0.000,0
2026-01-30 21:50:04,1138524,-1847.000,-2837.000,7595.000,48.000,5.000,-155.000,NA,0.000,0
2026-01-30 21:50:04,1138564,-1625.000,-3208.000,7913.000,-164.000,-63.000,-119.000,NA,0.000,0
2026-01-30 21:50:04,1138604,-1796.000,-3407.000,7542.000,-253.000,-13.000,-35.000,NA,0.000,0
2026-01-30 21:50:04,1138644,-1819.000,-3517.000,7842.000,-190.000,-158.000,-58.000,NA,0.000,0
2026-01-30 21:50:04,1138684,-1744.000,-3445.000,8010.000,-201.000,-232.000,-118.000,NA,0.000,0
2026-01-30 21:50:04,1138724,-1548.000,-3473.000,7625.000,-434.000,-282.000,-122.000,NA,0.000,0
2026-01-30 21:50:04,1138766,-1355.000,-3820.000,7384.000,-447.000,-140.000,-67.000,NA,0.000,0
2026-01-30 21:50:04,1138805,-1407.000,-3887.000,7513.000,-56.000,-177.000,-37.000,NA,0.000,0
2026-01-30 21:50:04,1138844,-1100.000,-4004.000,7869.000,-116.000,-135.000,-119.000,NA,0.000,0
2026-01-30 21:50:04,1138884,-1445.000,-3640.000,7764.000,135.000,-42.000,-164.000,NA,0.000,0
2026-01-30 21:50:04,1138924,-1254.000,-3943.000,7767.000,-23.000,54.000,-207.000,NA,0.000,0
2026-01-30 21:50:04,1138964,-1007.000,-3536.000,7603.000,285.000,88.000,-271.000,NA,0.000,0
2026-01-30 21:50:04,1139006,-959.000,-3469.000,7455.000,172.000,225.000,-235.000,NA,0.000,0
2026-01-30 21:50:04,1139044,-894.000,-3584.000,7717.000,458.000,347.000,-255.000,NA,0.000,0
2026-01-30 21:50:04,1139084,-1106.000,-3171.000,7746.000,716.000,398.000,-327.000,NA,0.000,0
2026-01-30 21:50:04,1139124,-1077.000,-3197.000,7957.000,257.000,228.000,-429.000,NA,0.000,0
2026-01-30 21:50:04,1139164,-986.000,-3095.000,7993.000,104.000,358.000,-307.000,NA,0.000,0
2026-01-30 21:50:04,1139204,-1026.000,-3033.000,7536.000,229.000,506.000,-191.000,NA,0.000,0
2026-01-30 21:50:04,1139244,-1067.000,-3210.000,7624.000,102.000,373.000,-168.000,NA,0.000,0
2026-01-30 21:50:05,1139284,-978.000,-3296.000,8324.000,276.000,127.000,-191.000,NA,0.000,0
2026-01-30 21:50:05,1139324,-1297.000,-3198.000,8000.000,-30.000,212.000,-90.000,NA,0.000,0
2026-01-30 21:50:05,1139364,-1400.000,-3268.000,7806.000,-62.000,-53.000,-170.000,NA,0.000,0
2026-01-30 21:50:05,1139404,-1149.000,-3119.000,7874.000,-230.000,-337.000,-205.000,NA,0.000,0
2026-01-30 21:50:05,1139444,-986.000,-3011.000,7541.000,-265.000,-167.000,-34.000,NA,0.000,0
2026-01-30 21:50:05,1139484,-997.000,-3564.000,7225.000,-116.000,54.000,80.000,NA,0.000,0
2026-01-30 21:50:05,1139524,-1079.000,-3541.000,7775.000,330.000,-33.000,-4.000,NA,0.000,0
2026-01-30 21:50:05,1139564,-1040.000,-3354.000,8272.000,-29.000,-260.000,-134.000,NA,0.000,0
2026-01-30 21:50:05,1139604,-1238.000,-3080.000,7528.000,-153.000,-282.000,-151.000,NA,0.000,0
2026-01-30 21:50:05,1139644,-1154.000,-3435.000,7490.000,-386.000,-260.000,-212.000,NA,0.000,0
2026-01-30 21:50:05,1139684,-888.000,-3288.000,7644.000,-6.000,-108.000,-93.000,NA,0.000,0
2026-01-30 21:50:05,1139724,-869.000,-3270.000,7486.000,251.000,19.000,-92.000,NA,0.000,0
2026-01-30 21:50:05,1139764,-819.000,-3338.000,7740.000,134.000,-35.000,-148.000,NA,0.000,0
2026-01-30 21:50:05,1139804,-855.000,-3474.000,7994.000,274.000,119.000,-159.000,NA,0.000,0
2026-01-30 21:50:05,1139844,-979.000,-3054.000,7805.000,521.000,86.000,-151.000,NA,0.000,0
2026-01-30 21:50:05,1139884,-707.000,-3288.000,8086.000,50.000,-9.000,-143.000,NA,0.000,0
2026-01-30 21:50:05,1139924,-805.000,-3206.000,7928.000,-30.000,-45.000,-186.000,NA,0.000,0
2026-01-30 21:50:05,1139964,-757.000,-3298.000,7680.000,-188.000,-51.000,-126.000,NA,0.000,0
2026-01-30 21:50:05,1140004,-952.000,-3173.000,7963.000,123.000,19.000,-47.000,NA,0.000,0
2026-01-30 21:50:05,1140044,-779.000,-3484.000,7932.000,-167.000,-90.000,-30.000,NA,0.000,0
2026-01-30 21:50:05,1140084,-772.000,-3144.000,7853.000,-107.000,-86.000,-55.000,NA,0.000,0
2026-01-30 21:50:05,1140124,-773.000,-3380.000,7747.000,-174.000,-112.000,-16.000,NA,0.000,0
2026-01-30 21:50:05,1140164,-723.000,-3620.000,7786.000,-239.000,-100.000,-60.000,NA,0.000,0
2026-01-30 21:50:05,1140204,-872.000,-3473.000,7832.000,-101.000,-148.000,-60.000,NA,0.000,0
2026-01-30 21:50:05,1140244,-783.000,-3478.000,7868.000,-204.000,-117.000,-35.000,NA,0.000,0
2026-01-30 21:50:06,1140284,-893.000,-3678.000,7713.000,-219.000,-136.000,-15.000,NA,0.000,0
2026-01-30 21:50:06,1140324,-790.000,-3666.000,7863.000,-164.000,-102.000,-7.000,NA,0.000,0
2026-01-30 21:50:06,1140364,-1034.000,-3567.000,7584.000,-201.000,-165.000,-39.000,NA,0.000,0
2026-01-30 21:50:06,1140404,-879.000,-3761.000,7592.000,-396.000,-258.000,-66.000,NA,0.000,0
2026-01-30 21:50:06,1140444,-882.000,-3640.000,7402.000,-86.000,-152.000,-37.000,NA,0.000,0
2026-01-30 21:50:06,1140484,-910.000,-3545.000,7320.000,44.000,31.000,-49.000,NA,0.000,0
2026-01-30 21:50:06,1140524,-1017.000,-3999.000,7691.000,-41.000,-13.000,-90.000,NA,0.000,0
2026-01-30 21:50:06,1140564,-766.000,-3766.000,7704.000,201.000,93.000,-76.000,NA,0.000,0
2026-01-30 21:50:06,1140604,-935.000,-3423.000,7596.000,282.000,264.000,-86.000,NA,0.000,0
2026-01-30 21:50:06,1140644,-876.000,-3908.000,7739.000,241.000,234.000,-116.000,NA,0.000,0
2026-01-30 21:50:06,1140684,-1024.000,-3607.000,7899.000,444.000,120.000,-152.000,NA,0.000,0
2026-01-30 21:50:06,1140724,-715.000,-3421.000,7953.000,55.000,73.000,-206.000,NA,0.000,0
2026-01-30 21:50:06,1140766,-880.000,-3454.000,7413.000,49.000,243.000,-132.000,NA,0.000,0
2026-01-30 21:50:06,1140805,-784.000,-3604.000,7403.000,247.000,286.000,-108.000,NA,0.000,0
2026-01-30 21:50:06,1140844,-647.000,-3790.000,8038.000,383.000,257.000,-98.000,NA,0.000,0
2026-01-30 21:50:06,1140884,-739.000,-3343.000,8103.000,164.000,158.000,-124.000,NA,0.000,0
2026-01-30 21:50:06,1140924,-910.000,-3437.000,7701.000,53.000,206.000,-144.000,NA,0.000,0
2026-01-30 21:50:06,1140964,-704.000,-3262.000,7815.000,189.000,77.000,-168.000,NA,0.000,0
2026-01-30 21:50:06,1141006,-687.000,-3249.000,7839.000,67.000,234.000,-136.000,NA,0.000,0
2026-01-30 21:50:06,1141044,-881.000,-3132.000,7588.000,100.000,211.000,-120.000,NA,0.000,0
2026-01-30 21:50:06,1141084,-690.000,-3448.000,7575.000,53.000,68.000,-58.000,NA,0.000,0
2026-01-30 21:50:06,1141124,-769.000,-3110.000,7866.000,158.000,60.000,-52.000,NA,0.000,0
2026-01-30 21:50:06,1141164,-1051.000,-3204.000,7604.000,-110.000,50.000,-43.000,NA,0.000,0
2026-01-30 21:50:06,1141204,-953.000,-3416.000,7766.000,-33.000,29.000,-27.000,NA,0.000,0
2026-01-30 21:50:06,1141244,-907.000,-3170.000,7667.000,-123.000,-171.000,-110.000,NA,0.000,0
2026-01-30 21:50:07,1141284,-786.000,-3431.000,7779.000,-264.000,29.000,-43.000,NA,0.000,0
2026-01-30 21:50:07,1141324,-942.000,-3423.000,7535.000,210.000,175.000,45.000,NA,0.000,0
2026-01-30 21:50:07,1141364,-777.000,-3636.000,8138.000,201.000,194.000,-28.000,NA,0.000,0
2026-01-30 21:50:07,1141404,-1037.000,-3449.000,8384.000,238.000,134.000,-131.000,NA,0.000,0
2026-01-30 21:50:07,1141444,-1108.000,-3417.000,8187.000,129.000,83.000,-143.000,NA,0.000,0
2026-01-30 21:50:07,1141484,-1046.000,-3255.000,7830.000,2.000,27.000,-141.000,NA,0.000,0
2026-01-30 21:50:07,1141524,-890.000,-3242.000,7618.000,53.000,72.000,-126.000,NA,0.000,0
2026-01-30 21:50:07,1141564,-747.000,-2991.000,7580.000,136.000,125.000,-87.000,NA,0.000,0
2026-01-30 21:50:07,1141604,-1128.000,-2965.000,7705.000,276.000,135.000,-186.000,NA,0.000,0
2026-01-30 21:50:07,1141644,-1164.000,-2966.000,7973.000,247.000,165.000,-245.000,NA,0.000,0
2026-01-30 21:50:07,1141684,-1251.000,-2777.000,7929.000,346.000,343.000,-139.000,NA,0.000,0
2026-01-30 21:50:07,1141724,-1226.000,-2941.000,8028.000,383.000,372.000,-109.000,NA,0.000,0
2026-01-30 21:50:07,1141764,-1298.000,-3009.000,8360.000,234.000,251.000,-257.000,NA,0.000,0
2026-01-30 21:50:07,1141804,-1490.000,-3122.000,8344.000,185.000,258.000,-244.000,NA,0.000,0
2026-01-30 21:50:07,1141844,-1529.000,-2803.000,8167.000,406.000,280.000,-142.000,NA,0.000,0
2026-01-30 21:50:07,1141884,-1561.000,-2893.000,8236.000,181.000,60.000,-224.000,NA,0.000,0
2026-01-30 21:50:07,1141924,-1625.000,-2746.000,8507.000,238.000,45.000,-201.000,NA,0.000,0
2026-01-30 21:50:07,1141964,-1970.000,-2387.000,7934.000,374.000,174.000,-142.000,NA,0.000,0
2026-01-30 21:50:07,1142004,-1351.000,-2470.000,7730.000,-302.000,-201.000,-234.000,NA,0.000,0
2026-01-30 21:50:07,1142044,-1437.000,-2399.000,7307.000,-335.000,-78.000,-111.000,NA,0.000,0
2026-01-30 21:50:07,1142084,-1347.000,-2758.000,7288.000,-48.000,191.000,115.000,NA,0.000,0
2026-01-30 21:50:07,1142124,-1438.000,-2778.000,7890.000,390.000,220.000,208.000,NA,0.000,0
2026-01-30 21:50:07,1142164,-1323.000,-3047.000,8521.000,30.000,-142.000,39.000,NA,0.000,0
2026-01-30 21:50:07,1142204,-1216.000,-3272.000,8504.000,-550.000,-366.000,-68.000,NA,0.000,0
2026-01-30 21:50:07,1142244,-1376.000,-2822.000,7581.000,-410.000,-333.000,-50.000,NA,0.000,0
2026-01-30 21:50:08,1142284,-1264.000,-2948.000,7370.000,-567.000,-382.000,-112.000,NA,0.000,0
2026-01-30 21:50:08,1142324,-1066.000,-3295.000,7591.000,-320.000,-257.000,-45.000,NA,0.000,0
2026-01-30 21:50:08,1142364,-1145.000,-3098.000,7281.000,-40.000,-148.000,65.000,NA,0.000,0
2026-01-30 21:50:08,1142404,-1025.000,-3282.000,8050.000,-151.000,-318.000,-73.000,NA,0.000,0
2026-01-30 21:50:08,1142444,-1220.000,-3456.000,7998.000,-185.000,-103.000,-79.000,NA,0.000,0
2026-01-30 21:50:08,1142484,-1212.000,-3440.000,7805.000,112.000,96.000,-37.000,NA,0.000,0
2026-01-30 21:50:08,1142524,-804.000,-3360.000,7829.000,275.000,40.000,-170.000,NA,0.000,0
2026-01-30 21:50:08,1142564,-892.000,-3150.000,7884.000,141.000,-50.000,-243.000,NA,0.000,0
2026-01-30 21:50:08,1142604,-852.000,-3177.000,7929.000,87.000,144.000,-188.000,NA,0.000,0
2026-01-30 21:50:08,1142644,-994.000,-3212.000,7744.000,478.000,343.000,-77.000,NA,0.000,0
2026-01-30 21:50:08,1142684,-812.000,-3210.000,8214.000,479.000,143.000,-164.000,NA,0.000,0
2026-01-30 21:50:08,1142724,-875.000,-2892.000,8390.000,354.000,-23.000,-196.000,NA,0.000,0
2026-01-30 21:50:08,1142766,-828.000,-2922.000,7780.000,-159.000,-146.000,-106.000,NA,0.000,0
2026-01-30 21:50:08,1142804,-811.000,-3033.000,7760.000,-91.000,-61.000,20.000,NA,0.000,0
2026-01-30 21:50:08,1142845,-783.000,-3193.000,8035.000,-44.000,-50.000,61.000,NA,0.000,0
2026-01-30 21:50:08,1142884,-1038.000,-3071.000,7886.000,73.000,-147.000,2.000,NA,0.000,0
2026-01-30 21:50:08,1142924,-956.000,-3176.000,8122.000,-354.000,-448.000,-180.000,NA,0.000,0
2026-01-30 21:50:08,1142964,-848.000,-3029.000,7776.000,-419.000,-208.000,-93.000,NA,0.000,0
2026-01-30 21:50:08,1143007,-664.000,-3313.000,7309.000,-129.000,-16.000,24.000,NA,0.000,0
2026-01-30 21:50:08,1143045,-490.000,-3561.000,7603.000,-108.000,-26.000,13.000,NA,0.000,0
2026-01-30 21:50:08,1143084,-852.000,-3551.000,8052.000,172.000,54.000,-19.000,NA,0.000,0
2026-01-30 21:50:08,1143124,-883.000,-3233.000,8140.000,290.000,55.000,15.000,NA,0.000,0
2026-01-30 21:50:08,1143164,-805.000,-3447.000,7884.000,-93.000,12.000,-157.000,NA,0.000,0
2026-01-30 21:50:08,1143204,-810.000,-2938.000,7387.000,20.000,22.000,-185.000,NA,0.000,0
2026-01-30 21:50:08,1143244,-585.000,-2970.000,7394.000,184.000,222.000,-135.000,NA,0.000,0
2026-01-30 21:50:09,1143284,-603.000,-3136.000,7603.000,365.000,297.000,-90.000,NA,0.000,0
2026-01-30 21:50:09,1143324,-768.000,-2774.000,8167.000,648.000,249.000,-94.000,NA,0.000,0
2026-01-30 21:50:09,1143364,-836.000,-3074.000,8318.000,103.000,161.000,-109.000,NA,0.000,0
2026-01-30 21:50:09,1143404,-810.000,-3012.000,8119.000,102.000,161.000,19.000,NA,0.000,0
2026-01-30 21:50:09,1143444,-863.000,-2987.000,7974.000,3.000,4.000,-50.000,NA,0.000,0
2026-01-30 21:50:09,1143484,-797.000,-3156.000,8239.000,-120.000,-48.000,-85.000,NA,0.000,0
2026-01-30 21:50:09,1143524,-747.000,-2873.000,7638.000,78.000,78.000,12.000,NA,0.000,0
2026-01-30 21:50:09,1143564,-826.000,-3004.000,7744.000,55.000,73.000,-84.000,NA,0.000,0
2026-01-30 21:50:09,1143604,-916.000,-3251.000,7804.000,-182.000,7.000,-121.000,NA,0.000,0
2026-01-30 21:50:09,1143644,-867.000,-2659.000,7686.000,349.000,299.000,48.000,NA,0.000,0
2026-01-30 21:50:09,1143684,-856.000,-3172.000,7671.000,307.000,403.000,-6.000,NA,0.000,0
2026-01-30 21:50:09,1143724,-921.000,-3096.000,8250.000,405.000,199.000,-53.000,NA,0.000,0
2026-01-30 21:50:09,1143764,-1030.000,-2736.000,8183.000,77.000,-23.000,-92.000,NA,0.000,0
2026-01-30 21:50:09,1143804,-859.000,-2943.000,7766.000,-276.000,16.000,-72.000,NA,0.000,0
2026-01-30 21:50:09,1143844,-1031.000,-3038.000,7471.000,46.000,49.000,19.000,NA,0.000,0
2026-01-30 21:50:09,1143884,-757.000,-3143.000,8228.000,40.000,67.000,24.000,NA,0.000,0
2026-01-30 21:50:09,1143924,-846.000,-2849.000,7784.000,-161.000,-300.000,-116.000,NA,0.000,0
2026-01-30 21:50:09,1143964,-911.000,-3019.000,7622.000,-248.000,-46.000,-15.000,NA,0.000,0
2026-01-30 21:50:09,1144004,-1003.000,-2808.000,7193.000,38.000,-115.000,-8.000,NA,0.000,0
2026-01-30 21:50:09,1144044,-454.000,-3118.000,8086.000,101.000,135.000,2.000,NA,0.000,0
2026-01-30 21:50:09,1144084,-767.000,-2882.000,7727.000,280.000,260.000,-45.000,NA,0.000,0
2026-01-30 21:50:09,1144124,-740.000,-2834.000,7749.000,356.000,202.000,-219.000,NA,0.000,0
2026-01-30 21:50:09,1144164,-592.000,-2955.000,8303.000,360.000,141.000,-189.000,NA,0.000,0
2026-01-30 21:50:09,1144204,-639.000,-2510.000,8071.000,552.000,384.000,-140.000,NA,0.000,0
2026-01-30 21:50:09,1144244,-711.000,-2374.000,8278.000,586.000,454.000,-192.000,NA,0.000,0
2026-01-30 21:50:10,1144284,-511.000,-2775.000,8450.000,246.000,419.000,-235.000,NA,0.000,0
2026-01-30 21:50:10,1144324,-951.000,-2409.000,8105.000,329.000,349.000,-258.000,NA,0.000,0
2026-01-30 21:50:10,1144364,-1131.000,-2493.000,8476.000,-115.000,163.000,-295.000,NA,0.000,0
2026-01-30 21:50:10,1144404,-847.000,-2303.000,8265.000,-16.000,201.000,-106.000,NA,0.000,0
2026-01-30 21:50:10,1144444,-771.000,-2433.000,8012.000,-11.000,224.000,91.000,NA,0.000,0
2026-01-30 21:50:10,1144484,-750.000,-2397.000,8113.000,-58.000,-25.000,138.000,NA,0.000,0
2026-01-30 21:50:10,1144524,-985.000,-2572.000,8336.000,-80.000,-187.000,150.000,NA,0.000,0
2026-01-30 21:50:10,1144564,-1062.000,-2812.000,8171.000,-316.000,-280.000,192.000,NA,0.000,0
2026-01-30 21:50:10,1144604,-1066.000,-2582.000,7826.000,-211.000,-242.000,197.000,NA,0.000,0
2026-01-30 21:50:10,1144644,-1174.000,-2761.000,7857.000,-498.000,-341.000,87.000,NA,0.000,0
2026-01-30 21:50:10,1144684,-1102.000,-2886.000,7743.000,-356.000,-378.000,83.000,NA,0.000,0
2026-01-30 21:50:10,1144724,-716.000,-2816.000,7904.000,-352.000,-265.000,44.000,NA,0.000,0
2026-01-30 21:50:10,1144764,-960.000,-2860.000,7730.000,-339.000,-197.000,-1.000,NA,0.000,0
2026-01-30 21:50:10,1144806,-895.000,-3181.000,8001.000,-364.000,-262.000,-58.000,NA,0.000,0
2026-01-30 21:50:10,1144845,-1180.000,-3072.000,8002.000,-256.000,-223.000,-145.000,NA,0.000,0
2026-01-30 21:50:10,1144884,-1000.000,-2996.000,7969.000,-367.000,-279.000,-174.000,NA,0.000,0
2026-01-30 21:50:10,1144924,-816.000,-3152.000,7701.000,-436.000,-138.000,-120.000,NA,0.000,0
2026-01-30 21:50:10,1144964,-876.000,-3018.000,7660.000,-163.000,-185.000,-74.000,NA,0.000,0
2026-01-30 21:50:10,1145006,-886.000,-3069.000,7716.000,-128.000,-104.000,-75.000,NA,0.000,0
2026-01-30 21:50:10,1145044,-949.000,-3081.000,7794.000,-128.000,20.000,19.000,NA,0.000,0
2026-01-30 21:50:10,1145084,-886.000,-2981.000,7831.000,46.000,-6.000,-27.000,NA,0.000,0
2026-01-30 21:50:10,1145124,-981.000,-3320.000,8028.000,-223.000,-60.000,-96.000,NA,0.000,0
2026-01-30 21:50:10,1145164,-959.000,-3148.000,7836.000,-41.000,18.000,-17.000,NA,0.000,0
2026-01-30 21:50:10,1145204,-840.000,-3208.000,7604.000,42.000,37.000,19.000,NA,0.000,0
2026-01-30 21:50:10,1145244,-664.000,-3138.000,8016.000,114.000,-34.000,-62.000,NA,0.000,0
2026-01-30 21:50:11,1145284,-603.000,-3288.000,8344.000,187.000,247.000,-7.000,NA,0.000,0
2026-01-30 21:50:11,1145324,-913.000,-2758.000,7669.000,552.000,317.000,-19.000,NA,0.000,0
2026-01-30 21:50:11,1145364,-567.000,-3176.000,8158.000,40.000,-47.000,-121.000,NA,0.000,0
2026-01-30 21:50:11,1145404,-702.000,-2817.000,8204.000,173.000,5.000,-31.000,NA,0.000,0
2026-01-30 21:50:11,1145444,-609.000,-3036.000,8044.000,119.000,67.000,114.000,NA,0.000,0
2026-01-30 21:50:11,1145484,-869.000,-3105.000,8025.000,101.000,-36.000,-12.000,NA,0.000,0
2026-01-30 21:50:11,1145524,-659.000,-2901.000,8092.000,-71.000,-165.000,-54.000,NA,0.000,0
2026-01-30 21:50:11,1145564,-754.000,-2580.000,7730.000,-23.000,-56.000,19.000,NA,0.000,0
2026-01-30 21:50:11,1145604,-781.000,-2825.000,7650.000,6.000,-42.000,-44.000,NA,0.000,0
2026-01-30 21:50:11,1145644,-666.000,-3320.000,8444.000,52.000,116.000,52.000,NA,0.000,0
2026-01-30 21:50:11,1145684,-819.000,-3010.000,7914.000,318.000,377.000,164.000,NA,0.000,0
2026-01-30 21:50:11,1145724,-935.000,-3244.000,7807.000,221.000,152.000,11.000,NA,0.000,0
2026-01-30 21:50:11,1145764,-617.000,-3397.000,8548.000,72.000,-80.000,-76.000,NA,0.000,0
2026-01-30 21:50:11,1145804,-1059.000,-2523.000,7524.000,359.000,117.000,82.000,NA,0.000,0
2026-01-30 21:50:11,1145844,-881.000,-3247.000,7661.000,26.000,164.000,-2.000,NA,0.000,0
2026-01-30 21:50:11,1145884,-765.000,-2985.000,7984.000,551.000,256.000,98.000,NA,0.000,0
2026-01-30 21:50:11,1145924,-954.000,-2534.000,7801.000,585.000,343.000,137.000,NA,0.000,0
2026-01-30 21:50:11,1145964,-930.000,-2895.000,7951.000,193.000,134.000,21.000,NA,0.000,0
2026-01-30 21:50:11,1146004,-1059.000,-3104.000,8279.000,264.000,220.000,147.000,NA,0.000,0
2026-01-30 21:50:11,1146044,-1078.000,-2386.000,7929.000,559.000,204.000,220.000,NA,0.000,0
2026-01-30 21:50:11,1146084,-1160.000,-2804.000,7981.000,351.000,182.000,59.000,NA,0.000,0
2026-01-30 21:50:11,1146124,-689.000,-2837.000,8220.000,-4.000,-120.000,-80.000,NA,0.000,0
2026-01-30 21:50:11,1146164,-660.000,-2292.000,7584.000,147.000,89.000,4.000,NA,0.000,0
2026-01-30 21:50:11,1146204,-655.000,-2531.000,7576.000,68.000,5.000,-44.000,NA,0.000,0
2026-01-30 21:50:11,1146244,-819.000,-2627.000,8270.000,430.000,117.000,-7.000,NA,0.000,0
2026-01-30 21:50:12,1146284,-976.000,-2288.000,8053.000,353.000,303.000,48.000,NA,0.000,0
2026-01-30 21:50:12,1146324,-1316.000,-2221.000,7797.000,-33.000,31.000,-116.000,NA,0.000,0
2026-01-30 21:50:12,1146364,-767.000,-2803.000,8439.000,-422.000,-97.000,-200.000,NA,0.000,0
2026-01-30 21:50:12,1146404,-1173.000,-2193.000,7595.000,181.000,144.000,27.000,NA,0.000,0
2026-01-30 21:50:12,1146444,-1038.000,-2429.000,7824.000,286.000,96.000,33.000,NA,0.000,0
2026-01-30 21:50:12,1146484,-1319.000,-2702.000,8400.000,346.000,-93.000,-94.000,NA,0.000,0
2026-01-30 21:50:12,1146524,-1144.000,-2327.000,8782.000,17.000,-227.000,-115.000,NA,0.000,0
2026-01-30 21:50:12,1146564,-1448.000,-1860.000,7450.000,1.000,25.000,-18.000,NA,0.000,0
2026-01-30 21:50:12,1146604,-1148.000,-2520.000,7690.000,-252.000,-214.000,-261.000,NA,0.000,0
2026-01-30 21:50:12,1146644,-1288.000,-2131.000,7920.000,239.000,-10.000,-102.000,NA,0.000,0
2026-01-30 21:50:12,1146684,-1508.000,-1907.000,7804.000,338.000,231.000,-168.000,NA,0.000,0
2026-01-30 21:50:12,1146724,-1328.000,-2079.000,8498.000,177.000,120.000,-353.000,NA,0.000,0
2026-01-30 21:50:12,1146764,-1173.000,-2428.000,8665.000,252.000,352.000,-289.000,NA,0.000,0
2026-01-30 21:50:12,1146806,-1512.000,-1687.000,8224.000,758.000,448.000,-200.000,NA,0.000,0
2026-01-30 21:50:12,1146845,-1535.000,-1552.000,8738.000,765.000,266.000,-194.000,NA,0.000,0
2026-01-30 21:50:12,1146884,-1505.000,-1786.000,9083.000,402.000,2.000,-106.000,NA,0.000,0
2026-01-30 21:50:12,1146924,-1475.000,-1778.000,8893.000,118.000,-114.000,18.000,NA,0.000,0
2026-01-30 21:50:12,1146964,-1647.000,-1682.000,7594.000,-434.000,-125.000,60.000,NA,0.000,0
2026-01-30 21:50:12,1147006,-1281.000,-1912.000,8121.000,-365.000,-154.000,160.000,NA,0.000,0
2026-01-30 21:50:12,1147044,-1359.000,-2145.000,8245.000,-216.000,-315.000,157.000,NA,0.000,0
2026-01-30 21:50:12,1147084,-1218.000,-2072.000,8172.000,-486.000,-308.000,41.000,NA,0.000,0
2026-01-30 21:50:12,1147124,-1353.000,-1868.000,7514.000,-445.000,-143.000,159.000,NA,0.000,0
2026-01-30 21:50:12,1147164,-1202.000,-1850.000,7451.000,-70.000,-129.000,247.000,NA,0.000,0
2026-01-30 21:50:12,1147204,-1217.000,-2236.000,8066.000,45.000,-260.000,205.000,NA,0.000,0
2026-01-30 21:50:12,1147244,-1225.000,-2536.000,8566.000,-102.000,-247.000,66.000,NA,0.000,0
2026-01-30 21:50:13,1147284,-1395.000,-2141.000,8117.000,49.000,-4.000,70.000,NA,0.000,0
2026-01-30 21:50:13,1147324,-1035.000,-2470.000,8049.000,-102.000,-53.000,-45.000,NA,0.000,0
2026-01-30 21:50:13,1147364,-1398.000,-2307.000,8127.000,336.000,236.000,-7.000,NA,0.000,0
2026-01-30 21:50:13,1147404,-1572.000,-1864.000,8114.000,592.000,296.000,-81.000,NA,0.000,0
2026-01-30 21:50:13,1147444,-1555.000,-2038.000,8810.000,336.000,223.000,-266.000,NA,0.000,0
2026-01-30 21:50:13,1147484,-1568.000,-1783.000,8301.000,412.000,293.000,-252.000,NA,0.000,0
2026-01-30 21:50:13,1147524,-1849.000,-1600.000,7798.000,604.000,388.000,-315.000,NA,0.000,0
2026-01-30 21:50:13,1147564,-1687.000,-1446.000,8262.000,1014.000,372.000,-322.000,NA,0.000,0
2026-01-30 21:50:13,1147604,-1879.000,-1252.000,8362.000,1401.000,477.000,-378.000,NA,0.000,0
2026-01-30 21:50:13,1147644,-2002.000,-990.000,8230.000,1057.000,401.000,-391.000,NA,0.000,0
2026-01-30 21:50:13,1147684,-1876.000,-892.000,8472.000,417.000,240.000,-362.000,NA,0.000,0
2026-01-30 21:50:13,1147724,-1926.000,-743.000,8259.000,819.000,349.000,-237.000,NA,0.000,0
2026-01-30 21:50:13,1147764,-1721.000,-784.000,8313.000,364.000,204.000,7.000,NA,0.000,0
2026-01-30 21:50:13,1147804,-1503.000,-1111.000,8829.000,206.000,21.000,108.000,NA,0.000,0
2026-01-30 21:50:13,1147844,-1550.000,-1231.000,8844.000,-149.000,-168.000,116.000,NA,0.000,0
2026-01-30 21:50:13,1147884,-1483.000,-1231.000,8597.000,-362.000,-347.000,211.000,NA,0.000,0
2026-01-30 21:50:13,1147924,-1594.000,-1252.000,8241.000,-401.000,-502.000,224.000,NA,0.000,0
2026-01-30 21:50:13,1147964,-1294.000,-1239.000,8139.000,-396.000,-541.000,257.000,NA,0.000,0
2026-01-30 21:50:13,1148004,-1392.000,-1587.000,7869.000,-456.000,-333.000,269.000,NA,0.000,0
2026-01-30 21:50:13,1148044,-1268.000,-1683.000,7857.000,-132.000,-332.000,269.000,NA,0.000,0
2026-01-30 21:50:13,1148084,-1393.000,-1573.000,8030.000,302.000,-393.000,223.000,NA,0.000,0
2026-01-30 21:50:13,1148124,-976.000,-1886.000,8081.000,31.000,-397.000,152.000,NA,0.000,0
2026-01-30 21:50:13,1148164,-1149.000,-1747.000,8132.000,633.000,-240.000,86.000,NA,0.000,0
2026-01-30 21:50:13,1148204,-1047.000,-1679.000,8409.000,591.000,-66.000,72.000,NA,0.000,0
2026-01-30 21:50:13,1148244,-1220.000,-1592.000,8331.000,417.000,12.000,-11.000,NA,0.000,0
2026-01-30 21:50:14,1148284,-1067.000,-1578.000,8100.000,175.000,-107.000,-85.000,NA,0.000,0
2026-01-30 21:50:14,1148324,-1083.000,-1433.000,7970.000,404.000,74.000,-92.000,NA,0.000,0
2026-01-30 21:50:14,1148364,-1059.000,-1004.000,7865.000,426.000,211.000,-24.000,NA,0.000,0
2026-01-30 21:50:14,1148404,-1101.000,-1599.000,8383.000,323.000,349.000,-84.000,NA,0.000,0
2026-01-30 21:50:14,1148444,-1129.000,-1419.000,8634.000,515.000,324.000,24.000,NA,0.000,0
2026-01-30 21:50:14,1148484,-1049.000,-1558.000,8537.000,-7.000,186.000,103.000,NA,0.000,0
2026-01-30 21:50:14,1148524,-1199.000,-1475.000,8493.000,362.000,208.000,207.000,NA,0.000,0
2026-01-30 21:50:14,1148564,-1341.000,-1541.000,8618.000,-48.000,40.000,126.000,NA,0.000,0
2026-01-30 21:50:14,1148604,-1278.000,-1993.000,8489.000,-920.000,-93.000,105.000,NA,0.000,0
2026-01-30 21:50:14,1148644,-1192.000,-1447.000,8020.000,175.000,29.000,137.000,NA,0.000,0
2026-01-30 21:50:14,1148684,-1161.000,-1449.000,7863.000,-144.000,18.000,113.000,NA,0.000,0
2026-01-30 21:50:14,1148724,-1209.000,-1668.000,8114.000,-60.000,-89.000,91.000,NA,0.000,0
2026-01-30 21:50:14,1148764,-1171.000,-1879.000,8088.000,-45.000,-102.000,129.000,NA,0.000,0
2026-01-30 21:50:14,1148805,-1333.000,-1624.000,8073.000,54.000,-25.000,135.000,NA,0.000,0
2026-01-30 21:50:14,1148844,-1130.000,-1729.000,8423.000,-28.000,-79.000,16.000,NA,0.000,0
2026-01-30 21:50:14,1148884,-1222.000,-1878.000,8285.000,-37.000,24.000,-22.000,NA,0.000,0
2026-01-30 21:50:14,1148924,-1060.000,-1818.000,8042.000,63.000,68.000,-118.000,NA,0.000,0
2026-01-30 21:50:14,1148964,-1042.000,-1813.000,8433.000,261.000,95.000,-178.000,NA,0.000,0
2026-01-30 21:50:14,1149006,-1066.000,-1599.000,8618.000,384.000,177.000,-150.000,NA,0.000,0
2026-01-30 21:50:14,1149044,-1297.000,-1221.000,8315.000,309.000,39.000,-228.000,NA,0.000,0
2026-01-30 21:50:14,1149084,-1114.000,-1482.000,8455.000,-161.000,-110.000,-240.000,NA,0.000,0
2026-01-30 21:50:14,1149124,-1107.000,-1539.000,8039.000,105.000,160.000,-124.000,NA,0.000,0
2026-01-30 21:50:14,1149164,-1075.000,-1277.000,8031.000,592.000,245.000,-30.000,NA,0.000,0
2026-01-30 21:50:14,1149204,-957.000,-1716.000,8723.000,363.000,87.000,-3.000,NA,0.000,0
2026-01-30 21:50:14,1149244,-1321.000,-1383.000,9063.000,72.000,-172.000,43.000,NA,0.000,0
2026-01-30 21:50:15,1149284,-1477.000,-1433.000,8732.000,-210.000,-135.000,49.000,NA,0.000,0
2026-01-30 21:50:15,1149324,-1175.000,-1587.000,8332.000,-254.000,-180.000,87.000,NA,0.000,0
2026-01-30 21:50:15,1149364,-995.000,-1569.000,8087.000,-241.000,-56.000,30.000,NA,0.000,0
2026-01-30 21:50:15,1149404,-897.000,-1642.000,7956.000,4.000,-9.000,69.000,NA,0.000,0
2026-01-30 21:50:15,1149444,-1099.000,-1644.000,8350.000,108.000,-117.000,12.000,NA,0.000,0
2026-01-30 21:50:15,1149484,-1153.000,-1596.000,8649.000,-10.000,-102.000,15.000,NA,0.000,0
2026-01-30 21:50:15,1149524,-1165.000,-1412.000,7940.000,-32.000,12.000,-3.000,NA,0.000,0
2026-01-30 21:50:15,1149564,-1120.000,-1425.000,7895.000,26.000,10.000,-39.000,NA,0.000,0
2026-01-30 21:50:15,1149604,-820.000,-1638.000,8111.000,-11.000,9.000,-93.000,NA,0.000,0
2026-01-30 21:50:15,1149644,-1140.000,-1258.000,8146.000,254.000,211.000,25.000,NA,0.000,0
2026-01-30 21:50:15,1149684,-925.000,-1739.000,8455.000,118.000,32.000,20.000,NA,0.000,0
2026-01-30 21:50:15,1149724,-1103.000,-1562.000,8617.000,-2.000,-37.000,25.000,NA,0.000,0
2026-01-30 21:50:15,1149764,-1294.000,-1197.000,8186.000,-58.000,9.000,36.000,NA,0.000,0
2026-01-30 21:50:15,1149804,-909.000,-1651.000,8205.000,-99.000,-40.000,23.000,NA,0.000,0
2026-01-30 21:50:15,1149844,-1043.000,-1337.000,8326.000,68.000,-75.000,1.000,NA,0.000,0
2026-01-30 21:50:15,1149884,-1234.000,-1208.000,7979.000,-82.000,-116.000,-14.000,NA,0.000,0
2026-01-30 21:50:15,1149924,-947.000,-1574.000,8189.000,-123.000,-91.000,39.000,NA,0.000,0
2026-01-30 21:50:15,1149964,-1076.000,-1501.000,8314.000,247.000,5.000,119.000,NA,0.000,0
2026-01-30 21:50:15,1150004,-1354.000,-1773.000,8876.000,219.000,-64.000,17.000,NA,0.000,0
2026-01-30 21:50:15,1150044,-1010.000,-1808.000,8866.000,-262.000,-230.000,-7.000,NA,0.000,0
2026-01-30 21:50:15,1150084,-1245.000,-1281.000,8268.000,-203.000,-251.000,-13.000,NA,0.000,0
2026-01-30 21:50:15,1150124,-1240.000,-1605.000,8250.000,-344.000,-270.000,-73.000,NA,0.000,0
2026-01-30 21:50:15,1150164,-925.000,-1686.000,8206.000,-22.000,-102.000,-12.000,NA,0.000,0
2026-01-30 21:50:15,1150204,-800.000,-1572.000,8198.000,120.000,-13.000,-30.000,NA,0.000,0
2026-01-30 21:50:15,1150244,-959.000,-1393.000,8289.000,158.000,-115.000,-100.000,NA,0.000,0
2026-01-30 21:50:16,1150284,-902.000,-1618.000,8392.000,-44.000,-80.000,-147.000,NA,0.000,0
2026-01-30 21:50:16,1150324,-902.000,-1378.000,7931.000,75.000,-19.000,-45.000,NA,0.000,0
2026-01-30 21:50:16,1150364,-1025.000,-1457.000,8043.000,141.000,-115.000,-70.000,NA,0.000,0
2026-01-30 21:50:16,1150404,-920.000,-1465.000,8324.000,-604.000,-341.000,-124.000,NA,0.000,0
2026-01-30 21:50:16,1150444,-846.000,-1210.000,7717.000,-293.000,46.000,43.000,NA,0.000,0
2026-01-30 21:50:16,1150484,-1055.000,-1360.000,7489.000,286.000,159.000,36.000,NA,0.000,0
2026-01-30 21:50:16,1150524,-998.000,-1888.000,8929.000,194.000,-73.000,15.000,NA,0.000,0
2026-01-30 21:50:16,1150564,-979.000,-1441.000,9203.000,99.000,-101.000,19.000,NA,0.000,0
2026-01-30 21:50:16,1150604,-1238.000,-1454.000,8089.000,-187.000,31.000,67.000,NA,0.000,0
2026-01-30 21:50:16,1150644,-819.000,-2039.000,8156.000,-200.000,-94.000,47.000,NA,0.000,0
2026-01-30 21:50:16,1150684,-932.000,-1349.000,8347.000,167.000,-126.000,-9.000,NA,0.000,0
2026-01-30 21:50:16,1150724,-823.000,-1491.000,8332.000,-300.000,-122.000,-35.000,NA,0.000,0
2026-01-30 21:50:16,1150764,-900.000,-1449.000,7596.000,-251.000,-141.000,-22.000,NA,0.000,0
2026-01-30 21:50:16,1150806,-936.000,-1436.000,8047.000,184.000,49.000,44.000,NA,0.000,0
2026-01-30 21:50:16,1150845,-970.000,-1619.000,8263.000,326.000,348.000,20.000,NA,0.000,0
2026-01-30 21:50:16,1150884,-1299.000,-1423.000,7885.000,435.000,121.000,-73.000,NA,0.000,0
2026-01-30 21:50:16,1150924,-545.000,-1618.000,9269.000,-148.000,-177.000,-170.000,NA,0.000,0
2026-01-30 21:50:16,1150964,-1274.000,-974.000,7606.000,76.000,244.000,-109.000,NA,0.000,0
