datetime_local,uptime_ms,acc_x,acc_y,acc_z,gyro_x,gyro_y,gyro_z,speed_mps,turn_rate_deg_s,gps_valid
2026-01-30 21:39:26,500844,-703.000,-3690.000,7518.000,-59.000,-43.000,860.000,NA,0.000,0
2026-01-30 21:39:26,500884,-726.000,-3905.000,7819.000,-349.000,193.000,180.000,NA,0.000,0
2026-01-30 21:39:26,500924,-730.000,-4056.000,7733.000,214.000,206.000,457.000,NA,0.000,0
2026-01-30 21:39:26,500964,-660.000,-3959.000,7725.000,-30.000,269.000,238.000,NA,0.000,0
2026-01-30 21:39:26,501004,-559.000,-3784.000,7692.000,-216.000,98.000,-36.000,NA,0.000,0
2026-01-30 21:39:26,501044,-465.000,-3825.000,7664.000,-151.000,-177.000,130.000,NA,0.000,0
2026-01-30 21:39:26,501084,-413.000,-3716.000,7580.000,-24.000,-270.000,263.000,NA,0.000,0
2026-01-30 21:39:26,501124,-614.000,-3778.000,7553.000,-210.000,-130.000,220.000,NA,0.000,0
2026-01-30 21:39:26,501164,-669.000,-3727.000,7427.000,-360.000,-61.000,31.000,NA,0.000,0
2026-01-30 21:39:26,501204,-689.000,-4064.000,7493.000,-149.000,35.000,60.000,NA,0.000,0
2026-01-30 21:39:26,501244,-473.000,-4048.000,7576.000,404.000,-58.000,-16.000,NA,0.000,0
2026-01-30 21:39:27,501284,-395.000,-3969.000,7597.000,241.000,-59.000,39.000,NA,0.000,0
2026-01-30 21:39:27,501324,-399.000,-4015.000,7394.000,-161.000,-8.000,168.000,NA,0.000,0
2026-01-30 21:39:27,501364,-522.000,-4157.000,6890.000,-81.000,-19.000,242.000,NA,0.000,0
2026-01-30 21:39:27,501404,-639.000,-4436.000,6242.000,444.000,-161.000,809.000,NA,0.000,0
2026-01-30 21:39:27,501444,-1049.000,-4517.000,5870.000,1356.000,-868.000,1747.000,NA,0.000,0
2026-01-30 21:39:27,501484,-168.000,-5449.000,5740.000,2796.000,-1615.000,722.000,NA,0.000,0
2026-01-30 21:39:27,501524,873.000,-3032.000,7297.000,4206.000,-2033.000,2308.000,NA,0.000,0
2026-01-30 21:39:27,501564,-222.000,-3219.000,7239.000,2734.000,-1380.000,3349.000,NA,0.000,0
2026-01-30 21:39:27,501604,175.000,-1305.000,8192.000,2012.000,-2052.000,4197.000,NA,0.000,0
2026-01-30 21:39:27,501644,-383.000,-3203.000,7423.000,658.000,-2121.000,4822.000,NA,0.000,0
2026-01-30 21:39:27,501684,-197.000,-2435.000,7953.000,3626.000,-2255.000,4413.000,NA,0.000,0
2026-01-30 21:39:27,501724,370.000,-727.000,8617.000,4639.000,-2183.000,4206.000,NA,0.000,0
2026-01-30 21:39:27,501764,-46.000,-433.000,8683.000,4330.000,-1995.000,3711.000,NA,0.000,0
2026-01-30 21:39:27,501804,352.000,628.000,9099.000,4691.000,-2142.000,2695.000,NA,0.000,0
2026-01-30 21:39:27,501844,594.000,647.000,9372.000,3405.000,-2413.000,2439.000,NA,0.000,0
2026-01-30 21:39:27,501884,2362.000,2658.000,10117.000,1216.000,-1802.000,2297.000,NA,0.000,0
2026-01-30 21:39:27,501924,86.000,-391.000,9641.000,-371.000,-237.000,1597.000,NA,0.000,0
2026-01-30 21:39:27,501964,1219.000,758.000,9690.000,1951.000,-1158.000,179.000,NA,0.000,0
2026-01-30 21:39:27,502004,657.000,-1225.000,8718.000,-1119.000,66.000,220.000,NA,0.000,0
2026-01-30 21:39:27,502044,149.000,-1720.000,8336.000,715.000,389.000,291.000,NA,0.000,0
2026-01-30 21:39:27,502084,1069.000,124.000,9184.000,1371.000,53.000,692.000,NA,0.000,0
2026-01-30 21:39:27,502124,1334.000,-103.000,8071.000,132.000,408.000,802.000,NA,0.000,0
2026-01-30 21:39:27,502164,777.000,-884.000,7125.000,-843.000,841.000,834.000,NA,0.000,0
2026-01-30 21:39:27,502204,1016.000,587.000,8112.000,637.000,457.000,886.000,NA,0.000,0
2026-01-30 21:39:27,502244,-161.000,40.000,8222.000,1544.000,388.000,677.000,NA,0.000,0
2026-01-30 21:39:28,502284,-206.000,568.000,9626.000,2217.000,234.000,12.000,NA,0.000,0
2026-01-30 21:39:28,502324,-152.000,1018.000,9704.000,2341.000,594.000,-552.000,NA,0.000,0
2026-01-30 21:39:28,502364,-466.000,2034.000,8037.000,1907.000,1015.000,-997.000,NA,0.000,0
2026-01-30 21:39:28,502404,-1094.000,2462.000,7555.000,93.000,1181.000,-411.000,NA,0.000,0
2026-01-30 21:39:28,502444,71.000,2045.000,7504.000,-174.000,-166.000,-4.000,NA,0.000,0
2026-01-30 21:39:28,502484,440.000,1133.000,7079.000,-844.000,-516.000,101.000,NA,0.000,0
2026-01-30 21:39:28,502524,357.000,-427.000,7591.000,-1204.000,-1510.000,169.000,NA,0.000,0
2026-01-30 21:39:28,502564,2558.000,714.000,9763.000,-1065.000,-2610.000,589.000,NA,0.000,0
2026-01-30 21:39:28,502604,2602.000,-876.000,9885.000,-2522.000,-1237.000,929.000,NA,0.000,0
2026-01-30 21:39:28,502646,1926.000,-922.000,8097.000,335.000,-308.000,380.000,NA,0.000,0
2026-01-30 21:39:28,502685,571.000,1048.000,8312.000,2107.000,790.000,349.000,NA,0.000,0
2026-01-30 21:39:28,502724,387.000,1997.000,8103.000,1366.000,479.000,236.000,NA,0.000,0
2026-01-30 21:39:28,502764,-357.000,1215.000,8455.000,525.000,344.000,-154.000,NA,0.000,0
2026-01-30 21:39:28,502804,246.000,1763.000,9140.000,609.000,-486.000,-222.000,NA,0.000,0
2026-01-30 21:39:28,502845,403.000,1747.000,8498.000,489.000,-317.000,-512.000,NA,0.000,0
2026-01-30 21:39:28,502884,411.000,1952.000,8459.000,-467.000,-246.000,-538.000,NA,0.000,0
2026-01-30 21:39:28,502924,607.000,768.000,8530.000,-1348.000,-516.000,-347.000,NA,0.000,0
2026-01-30 21:39:28,502964,369.000,46.000,8167.000,-716.000,-419.000,-338.000,NA,0.000,0
2026-01-30 21:39:28,503004,919.000,830.000,8693.000,-155.000,-829.000,-37.000,NA,0.000,0
2026-01-30 21:39:28,503044,1309.000,952.000,8451.000,-717.000,-645.000,127.000,NA,0.000,0
2026-01-30 21:39:28,503084,1046.000,371.000,8277.000,-1139.000,-320.000,-63.000,NA,0.000,0
2026-01-30 21:39:28,503124,1055.000,-309.000,8428.000,-737.000,-405.000,-98.000,NA,0.000,0
2026-01-30 21:39:28,503164,1199.000,266.000,8800.000,-301.000,-467.000,109.000,NA,0.000,0
2026-01-30 21:39:28,503204,1324.000,91.000,8527.000,-573.000,-391.000,119.000,NA,0.000,0
2026-01-30 21:39:28,503244,1211.000,-421.000,8055.000,-278.000,-444.000,2.000,NA,0.000,0
2026-01-30 21:39:29,503284,1412.000,51.000,8103.000,428.000,-547.000,-29.000,NA,0.000,0
2026-01-30 21:39:29,503324,1642.000,548.000,8640.000,326.000,-188.000,27.000,NA,0.000,0
2026-01-30 21:39:29,503364,1421.000,273.000,8489.000,303.000,299.000,10.000,NA,0.000,0
2026-01-30 21:39:29,503404,809.000,385.000,8148.000,715.000,476.000,-141.000,NA,0.000,0
2026-01-30 21:39:29,503444,894.000,656.000,8334.000,670.000,196.000,-34.000,NA,0.000,0
2026-01-30 21:39:29,503484,1274.000,695.000,8461.000,307.000,44.000,41.000,NA,0.000,0
2026-01-30 21:39:29,503524,1355.000,550.000,8380.000,291.000,170.000,-49.000,NA,0.000,0
2026-01-30 21:39:29,503564,1276.000,667.000,8513.000,168.000,105.000,-71.000,NA,0.000,0
2026-01-30 21:39:29,503604,1156.000,603.000,8475.000,30.000,50.000,-54.000,NA,0.000,0
2026-01-30 21:39:29,503644,1001.000,619.000,8260.000,215.000,-39.000,-89.000,NA,0.000,0
2026-01-30 21:39:29,503684,911.000,776.000,8127.000,296.000,-172.000,6.000,NA,0.000,0
2026-01-30 21:39:29,503724,1368.000,1035.000,8415.000,-260.000,-304.000,173.000,NA,0.000,0
2026-01-30 21:39:29,503764,1605.000,343.000,8594.000,-851.000,-173.000,238.000,NA,0.000,0
2026-01-30 21:39:29,503804,1513.000,-211.000,8476.000,-265.000,-79.000,68.000,NA,0.000,0
2026-01-30 21:39:29,503844,1453.000,504.000,8495.000,519.000,-119.000,-59.000,NA,0.000,0
2026-01-30 21:39:29,503884,1371.000,498.000,8356.000,81.000,71.000,-19.000,NA,0.000,0
2026-01-30 21:39:29,503924,1035.000,442.000,7758.000,399.000,100.000,-158.000,NA,0.000,0
2026-01-30 21:39:29,503964,1008.000,781.000,7678.000,386.000,-24.000,-184.000,NA,0.000,0
2026-01-30 21:39:29,504004,1553.000,963.000,8481.000,-296.000,-74.000,61.000,NA,0.000,0
2026-01-30 21:39:29,504044,1554.000,475.000,8633.000,-344.000,302.000,114.000,NA,0.000,0
2026-01-30 21:39:29,504084,1086.000,287.000,8191.000,360.000,354.000,-103.000,NA,0.000,0
2026-01-30 21:39:29,504124,916.000,884.000,7947.000,825.000,76.000,-179.000,NA,0.000,0
2026-01-30 21:39:29,504164,1250.000,1345.000,7939.000,395.000,-217.000,-100.000,NA,0.000,0
2026-01-30 21:39:29,504204,1747.000,1174.000,8343.000,-202.000,-186.000,102.000,NA,0.000,0
2026-01-30 21:39:29,504244,2088.000,1066.000,8655.000,-354.000,110.000,217.000,NA,0.000,0
2026-01-30 21:39:30,504284,1718.000,682.000,8106.000,110.000,182.000,-38.000,NA,0.000,0
2026-01-30 21:39:30,504324,1692.000,992.000,8482.000,-32.000,-87.000,-53.000,NA,0.000,0
2026-01-30 21:39:30,504364,1690.000,769.000,8586.000,-383.000,-176.000,114.000,NA,0.000,0
2026-01-30 21:39:30,504404,1616.000,389.000,8040.000,-258.000,-292.000,36.000,NA,0.000,0
2026-01-30 21:39:30,504444,1876.000,544.000,7708.000,95.000,-439.000,-55.000,NA,0.000,0
2026-01-30 21:39:30,504484,2046.000,1076.000,7829.000,343.000,-344.000,-83.000,NA,0.000,0
2026-01-30 21:39:30,504524,2165.000,1157.000,7964.000,90.000,-106.000,-141.000,NA,0.000,0
2026-01-30 21:39:30,504564,2253.000,966.000,8371.000,142.000,182.000,-20.000,NA,0.000,0
2026-01-30 21:39:30,504604,2139.000,1281.000,8227.000,721.000,477.000,-62.000,NA,0.000,0
2026-01-30 21:39:30,504644,1732.000,1563.000,7775.000,826.000,347.000,-181.000,NA,0.000,0
2026-01-30 21:39:30,504686,2125.000,1766.000,8308.000,-119.000,24.000,31.000,NA,0.000,0
2026-01-30 21:39:30,504725,2391.000,1112.000,8939.000,-1113.000,187.000,232.000,NA,0.000,0
2026-01-30 21:39:30,504764,1980.000,197.000,8601.000,-877.000,508.000,127.000,NA,0.000,0
2026-01-30 21:39:30,504804,1381.000,310.000,8050.000,113.000,249.000,-113.000,NA,0.000,0
2026-01-30 21:39:30,504844,1358.000,856.000,7848.000,276.000,-303.000,-26.000,NA,0.000,0
2026-01-30 21:39:30,504884,1960.000,939.000,7807.000,-308.000,-639.000,244.000,NA,0.000,0
2026-01-30 21:39:30,504924,2288.000,577.000,7675.000,-652.000,-397.000,222.000,NA,0.000,0
2026-01-30 21:39:30,504964,2122.000,131.000,7717.000,-519.000,0.000,159.000,NA,0.000,0
2026-01-30 21:39:30,505004,1939.000,177.000,7991.000,70.000,198.000,171.000,NA,0.000,0
2026-01-30 21:39:30,505044,1346.000,853.000,7807.000,794.000,346.000,-37.000,NA,0.000,0
2026-01-30 21:39:30,505084,1848.000,1429.000,8998.000,195.000,167.000,357.000,NA,0.000,0
2026-01-30 21:39:30,505124,1811.000,1117.000,9123.000,-604.000,491.000,425.000,NA,0.000,0
2026-01-30 21:39:30,505164,1125.000,67.000,8504.000,-218.000,490.000,94.000,NA,0.000,0
2026-01-30 21:39:30,505204,1176.000,579.000,8401.000,544.000,-100.000,53.000,NA,0.000,0
2026-01-30 21:39:30,505244,1752.000,1020.000,8463.000,97.000,-523.000,290.000,NA,0.000,0
2026-01-30 21:39:31,505284,2111.000,539.000,8144.000,-557.000,-264.000,391.000,NA,0.000,0
2026-01-30 21:39:31,505324,1818.000,-102.000,7917.000,-641.000,-28.000,309.000,NA,0.000,0
2026-01-30 21:39:31,505364,2011.000,131.000,8286.000,-375.000,-277.000,413.000,NA,0.000,0
2026-01-30 21:39:31,505404,2395.000,-342.000,8183.000,-569.000,-182.000,487.000,NA,0.000,0
2026-01-30 21:39:31,505444,2085.000,-173.000,7932.000,331.000,238.000,206.000,NA,0.000,0
2026-01-30 21:39:31,505484,1965.000,703.000,8391.000,755.000,422.000,72.000,NA,0.000,0
2026-01-30 21:39:31,505524,1805.000,629.000,8443.000,224.000,682.000,51.000,NA,0.000,0
2026-01-30 21:39:31,505564,1352.000,187.000,8206.000,552.000,895.000,-114.000,NA,0.000,0
2026-01-30 21:39:31,505604,999.000,525.000,8170.000,1388.000,763.000,-46.000,NA,0.000,0
2026-01-30 21:39:31,505644,1058.000,1312.000,8453.000,1412.000,348.000,58.000,NA,0.000,0
2026-01-30 21:39:31,505684,1309.000,554.000,8582.000,770.000,195.000,101.000,NA,0.000,0
2026-01-30 21:39:31,505724,1563.000,541.000,8256.000,1401.000,109.000,220.000,NA,0.000,0
2026-01-30 21:39:31,505764,1407.000,996.000,7853.000,2096.000,576.000,-7.000,NA,0.000,0
2026-01-30 21:39:31,505804,1194.000,1811.000,8461.000,1054.000,702.000,-153.000,NA,0.000,0
2026-01-30 21:39:31,505844,1339.000,1965.000,8704.000,-63.000,710.000,-295.000,NA,0.000,0
2026-01-30 21:39:31,505884,916.000,-220.000,8506.000,-877.000,660.000,-640.000,NA,0.000,0
2026-01-30 21:39:31,505924,725.000,763.000,8115.000,1634.000,497.000,-751.000,NA,0.000,0
2026-01-30 21:39:31,505964,1063.000,1738.000,8375.000,1477.000,429.000,-190.000,NA,0.000,0
2026-01-30 21:39:31,506004,1204.000,1200.000,8296.000,1302.000,846.000,-202.000,NA,0.000,0
2026-01-30 21:39:31,506044,1074.000,2144.000,8098.000,2417.000,1045.000,-411.000,NA,0.000,0
2026-01-30 21:39:31,506084,471.000,2160.000,7850.000,1606.000,1326.000,-314.000,NA,0.000,0
2026-01-30 21:39:31,506124,-84.000,1773.000,7586.000,1565.000,1050.000,-297.000,NA,0.000,0
2026-01-30 21:39:31,506164,-171.000,2784.000,7788.000,1736.000,658.000,-75.000,NA,0.000,0
2026-01-30 21:39:31,506204,213.000,2810.000,8441.000,260.000,355.000,107.000,NA,0.000,0
2026-01-30 21:39:31,506244,201.000,2718.000,8745.000,-486.000,480.000,190.000,NA,0.000,0
2026-01-30 21:39:32,506284,-161.000,1713.000,8387.000,-244.000,483.000,35.000,NA,0.000,0
2026-01-30 21:39:32,506324,-165.000,2641.000,8081.000,882.000,95.000,114.000,NA,0.000,0
2026-01-30 21:39:32,506364,121.000,2694.000,8114.000,-72.000,-342.000,415.000,NA,0.000,0
2026-01-30 21:39:32,506404,592.000,2249.000,8224.000,-786.000,-540.000,438.000,NA,0.000,0
2026-01-30 21:39:32,506444,659.000,1902.000,8455.000,-1127.000,-429.000,464.000,NA,0.000,0
2026-01-30 21:39:32,506484,616.000,1268.000,8437.000,-898.000,-327.000,342.000,NA,0.000,0
2026-01-30 21:39:32,506524,766.000,1743.000,8358.000,-5.000,-277.000,344.000,NA,0.000,0
2026-01-30 21:39:32,506564,781.000,1846.000,8428.000,-284.000,43.000,483.000,NA,0.000,0
2026-01-30 21:39:32,506604,358.000,1422.000,7747.000,273.000,252.000,349.000,NA,0.000,0
2026-01-30 21:39:32,506644,386.000,2024.000,7449.000,707.000,21.000,429.000,NA,0.000,0
2026-01-30 21:39:32,506707,1213.000,1507.000,8505.000,-1376.000,-141.000,628.000,NA,0.000,0
2026-01-30 21:39:32,506764,874.000,900.000,8354.000,-834.000,221.000,348.000,NA,0.000,0
2026-01-30 21:39:32,506804,432.000,1370.000,8257.000,246.000,263.000,299.000,NA,0.000,0
2026-01-30 21:39:32,506844,549.000,1970.000,8185.000,360.000,90.000,532.000,NA,0.000,0
2026-01-30 21:39:32,506886,518.000,2001.000,8165.000,164.000,178.000,536.000,NA,0.000,0
2026-01-30 21:39:32,506924,677.000,1689.000,8597.000,39.000,295.000,488.000,NA,0.000,0
2026-01-30 21:39:32,506964,454.000,1614.000,8229.000,514.000,387.000,247.000,NA,0.000,0
2026-01-30 21:39:32,507004,314.000,2247.000,8186.000,768.000,224.000,141.000,NA,0.000,0
2026-01-30 21:39:32,507044,544.000,1912.000,8292.000,-159.000,-23.000,246.000,NA,0.000,0
2026-01-30 21:39:32,507084,704.000,1525.000,8579.000,-402.000,4.000,241.000,NA,0.000,0
2026-01-30 21:39:32,507124,482.000,1441.000,8298.000,154.000,169.000,270.000,NA,0.000,0
2026-01-30 21:39:32,507164,211.000,2003.000,7692.000,839.000,162.000,336.000,NA,0.000,0
2026-01-30 21:39:32,507204,577.000,2625.000,7939.000,623.000,76.000,405.000,NA,0.000,0
2026-01-30 21:39:32,507244,383.000,2431.000,8441.000,-492.000,327.000,456.000,NA,0.000,0
2026-01-30 21:39:33,507284,144.000,1476.000,8456.000,-446.000,235.000,233.000,NA,0.000,0
2026-01-30 21:39:33,507324,350.000,2233.000,7935.000,1166.000,-58.000,136.000,NA,0.000,0
2026-01-30 21:39:33,507364,585.000,2751.000,7767.000,772.000,-37.000,182.000,NA,0.000,0
2026-01-30 21:39:33,507404,788.000,2601.000,8306.000,-173.000,120.000,108.000,NA,0.000,0
2026-01-30 21:39:33,507444,540.000,1859.000,8564.000,-675.000,369.000,110.000,NA,0.000,0
2026-01-30 21:39:33,507484,261.000,1689.000,8170.000,131.000,307.000,159.000,NA,0.000,0
2026-01-30 21:39:33,507524,432.000,2404.000,8089.000,621.000,7.000,180.000,NA,0.000,0
2026-01-30 21:39:33,507564,820.000,2625.000,8338.000,-22.000,-146.000,298.000,NA,0.000,0
2026-01-30 21:39:33,507604,616.000,2034.000,7690.000,72.000,41.000,171.000,NA,0.000,0
2026-01-30 21:39:33,507644,644.000,2283.000,7703.000,670.000,-11.000,-19.000,NA,0.000,0
2026-01-30 21:39:33,507684,984.000,2666.000,7991.000,343.000,-101.000,99.000,NA,0.000,0
2026-01-30 21:39:33,507724,62.000,1898.000,7065.000,227.000,444.000,-174.000,NA,0.000,0
2026-01-30 21:39:33,507764,446.000,2488.000,7497.000,707.000,26.000,77.000,NA,0.000,0
2026-01-30 21:39:33,507804,1296.000,3581.000,8398.000,453.000,-143.000,315.000,NA,0.000,0
2026-01-30 21:39:33,507844,1132.000,3382.000,8622.000,-198.000,585.000,-42.000,NA,0.000,0
2026-01-30 21:39:33,507884,77.000,2660.000,8216.000,571.000,1002.000,-371.000,NA,0.000,0
2026-01-30 21:39:33,507924,-179.000,3140.000,7848.000,1123.000,374.000,-43.000,NA,0.000,0
2026-01-30 21:39:33,507964,390.000,3521.000,7851.000,209.000,-294.000,318.000,NA,0.000,0
2026-01-30 21:39:33,508004,632.000,2687.000,8217.000,-945.000,-207.000,135.000,NA,0.000,0
2026-01-30 21:39:33,508044,631.000,1920.000,7985.000,-751.000,-50.000,-24.000,NA,0.000,0
2026-01-30 21:39:33,508084,569.000,2534.000,7643.000,278.000,-109.000,42.000,NA,0.000,0
2026-01-30 21:39:33,508124,654.000,2892.000,8135.000,-384.000,5.000,248.000,NA,0.000,0
2026-01-30 21:39:33,508164,281.000,2381.000,8242.000,-934.000,244.000,315.000,NA,0.000,0
2026-01-30 21:39:33,508204,210.000,1696.000,7999.000,-279.000,113.000,338.000,NA,0.000,0
2026-01-30 21:39:33,508244,127.000,2215.000,7714.000,486.000,-124.000,356.000,NA,0.000,0
2026-01-30 21:39:34,508284,405.000,2642.000,8069.000,53.000,-186.000,360.000,NA,0.000,0
2026-01-30 21:39:34,508324,271.000,2379.000,8306.000,-593.000,170.000,300.000,NA,0.000,0
2026-01-30 21:39:34,508364,-193.000,1454.000,8332.000,-788.000,288.000,218.000,NA,0.000,0
2026-01-30 21:39:34,508404,-48.000,1437.000,8304.000,-243.000,-6.000,413.000,NA,0.000,0
2026-01-30 21:39:34,508444,329.000,1895.000,8603.000,40.000,-196.000,630.000,NA,0.000,0
2026-01-30 21:39:34,508484,434.000,1592.000,8472.000,-124.000,84.000,390.000,NA,0.000,0
2026-01-30 21:39:34,508524,266.000,1643.000,8198.000,257.000,161.000,340.000,NA,0.000,0
2026-01-30 21:39:34,508564,240.000,2010.000,8293.000,259.000,170.000,396.000,NA,0.000,0
2026-01-30 21:39:34,508604,216.000,1879.000,8459.000,-84.000,199.000,507.000,NA,0.000,0
2026-01-30 21:39:34,508644,339.000,1558.000,8386.000,-20.000,185.000,490.000,NA,0.000,0
2026-01-30 21:39:34,508684,297.000,1812.000,8184.000,305.000,157.000,418.000,NA,0.000,0
2026-01-30 21:39:34,508726,440.000,1926.000,8222.000,-23.000,95.000,415.000,NA,0.000,0
2026-01-30 21:39:34,508765,387.000,1694.000,8492.000,-319.000,207.000,385.000,NA,0.000,0
2026-01-30 21:39:34,508804,294.000,1686.000,8426.000,-14.000,225.000,404.000,NA,0.000,0
2026-01-30 21:39:34,508844,380.000,1790.000,8024.000,319.000,119.000,377.000,NA,0.000,0
2026-01-30 21:39:34,508886,389.000,2018.000,8277.000,119.000,191.000,310.000,NA,0.000,0
2026-01-30 21:39:34,508924,380.000,2079.000,8521.000,70.000,343.000,301.000,NA,0.000,0
2026-01-30 21:39:34,508964,24.000,1968.000,8254.000,423.000,526.000,203.000,NA,0.000,0
2026-01-30 21:39:34,509004,-51.000,2308.000,8157.000,488.000,359.000,227.000,NA,0.000,0
2026-01-30 21:39:34,509044,34.000,2085.000,8078.000,-45.000,128.000,364.000,NA,0.000,0
2026-01-30 21:39:34,509084,128.000,2001.000,8051.000,69.000,87.000,288.000,NA,0.000,0
2026-01-30 21:39:34,509124,129.000,2280.000,8366.000,-62.000,135.000,321.000,NA,0.000,0
2026-01-30 21:39:34,509164,260.000,1966.000,8392.000,-424.000,94.000,385.000,NA,0.000,0
2026-01-30 21:39:34,509204,-82.000,1834.000,7979.000,-150.000,155.000,281.000,NA,0.000,0
2026-01-30 21:39:34,509244,83.000,2109.000,8126.000,-245.000,-332.000,557.000,NA,0.000,0
2026-01-30 21:39:35,509284,340.000,2046.000,8192.000,-251.000,-248.000,520.000,NA,0.000,0
2026-01-30 21:39:35,509324,281.000,1875.000,8403.000,-256.000,-33.000,293.000,NA,0.000,0
2026-01-30 21:39:35,509364,205.000,1893.000,8411.000,70.000,-42.000,267.000,NA,0.000,0
2026-01-30 21:39:35,509404,252.000,2210.000,8413.000,139.000,-172.000,324.000,NA,0.000,0
2026-01-30 21:39:35,509444,296.000,2153.000,8303.000,-147.000,-288.000,401.000,NA,0.000,0
2026-01-30 21:39:35,509484,271.000,1758.000,7822.000,-302.000,-379.000,401.000,NA,0.000,0
2026-01-30 21:39:35,509524,341.000,1882.000,7732.000,-143.000,-610.000,377.000,NA,0.000,0
2026-01-30 21:39:35,509564,755.000,2302.000,8278.000,-575.000,-734.000,440.000,NA,0.000,0
2026-01-30 21:39:35,509604,458.000,1879.000,8059.000,-821.000,-188.000,184.000,NA,0.000,0
2026-01-30 21:39:35,509644,129.000,1538.000,7700.000,-74.000,-172.000,-18.000,NA,0.000,0
2026-01-30 21:39:35,509684,-90.000,2389.000,7747.000,927.000,-288.000,-44.000,NA,0.000,0
2026-01-30 21:39:35,509724,106.000,3233.000,8017.000,322.000,-439.000,142.000,NA,0.000,0
2026-01-30 21:39:35,509764,338.000,2772.000,8249.000,-1132.000,-216.000,255.000,NA,0.000,0
2026-01-30 21:39:35,509804,-8.000,2043.000,8105.000,-1447.000,-10.000,217.000,NA,0.000,0
2026-01-30 21:39:35,509844,222.000,1861.000,8466.000,-1783.000,-531.000,480.000,NA,0.000,0
2026-01-30 21:39:35,509884,629.000,1396.000,8683.000,-2176.000,-925.000,723.000,NA,0.000,0
2026-01-30 21:39:35,509924,946.000,935.000,8306.000,-1644.000,-983.000,580.000,NA,0.000,0
2026-01-30 21:39:35,509964,977.000,849.000,8076.000,-797.000,-831.000,273.000,NA,0.000,0
2026-01-30 21:39:35,510004,891.000,1578.000,8597.000,-831.000,-569.000,313.000,NA,0.000,0
2026-01-30 21:39:35,510044,913.000,957.000,8514.000,-1144.000,-545.000,440.000,NA,0.000,0
2026-01-30 21:39:35,510084,968.000,821.000,8390.000,-895.000,-529.000,522.000,NA,0.000,0
2026-01-30 21:39:35,510124,1222.000,676.000,8543.000,-946.000,-523.000,617.000,NA,0.000,0
2026-01-30 21:39:35,510164,1409.000,677.000,8518.000,-578.000,-422.000,568.000,NA,0.000,0
2026-01-30 21:39:35,510204,1286.000,445.000,8149.000,-462.000,-278.000,390.000,NA,0.000,0
2026-01-30 21:39:35,510244,1009.000,466.000,8153.000,-127.000,-128.000,215.000,NA,0.000,0
2026-01-30 21:39:36,510284,867.000,876.000,8402.000,295.000,-144.000,167.000,NA,0.000,0
2026-01-30 21:39:36,510324,1215.000,1158.000,8343.000,279.000,-159.000,258.000,NA,0.000,0
2026-01-30 21:39:36,510364,1123.000,983.000,8100.000,195.000,292.000,32.000,NA,0.000,0
2026-01-30 21:39:36,510404,1169.000,1062.000,8251.000,262.000,375.000,-119.000,NA,0.000,0
2026-01-30 21:39:36,510444,1118.000,923.000,8522.000,-146.000,481.000,-48.000,NA,0.000,0
2026-01-30 21:39:36,510484,1188.000,735.000,8564.000,-483.000,323.000,91.000,NA,0.000,0
2026-01-30 21:39:36,510524,1201.000,67.000,8407.000,-539.000,241.000,142.000,NA,0.000,0
2026-01-30 21:39:36,510564,1274.000,447.000,8323.000,148.000,95.000,54.000,NA,0.000,0
2026-01-30 21:39:36,510604,1140.000,442.000,8052.000,255.000,112.000,-94.000,NA,0.000,0
2026-01-30 21:39:36,510644,920.000,693.000,7931.000,770.000,192.000,-247.000,NA,0.000,0
2026-01-30 21:39:36,510684,967.000,1290.000,8264.000,751.000,267.000,-241.000,NA,0.000,0
2026-01-30 21:39:36,510726,981.000,1114.000,8505.000,76.000,457.000,-56.000,NA,0.000,0
2026-01-30 21:39:36,510765,968.000,1209.000,8277.000,746.000,341.000,-120.000,NA,0.000,0
2026-01-30 21:39:36,510804,1033.000,1560.000,8185.000,962.000,70.000,-31.000,NA,0.000,0
2026-01-30 21:39:36,510844,1284.000,2223.000,8347.000,588.000,-164.000,112.000,NA,0.000,0
2026-01-30 21:39:36,510886,1383.000,1058.000,8245.000,-739.000,133.000,173.000,NA,0.000,0
2026-01-30 21:39:36,510924,1061.000,794.000,8034.000,-473.000,231.000,33.000,NA,0.000,0
2026-01-30 21:39:36,510964,946.000,1245.000,7863.000,247.000,-87.000,-141.000,NA,0.000,0
2026-01-30 21:39:36,511004,1436.000,1809.000,8258.000,129.000,-337.000,198.000,NA,0.000,0
2026-01-30 21:39:36,511044,1832.000,1880.000,8364.000,-207.000,-168.000,397.000,NA,0.000,0
2026-01-30 21:39:36,511084,1692.000,1126.000,7785.000,-282.000,133.000,182.000,NA,0.000,0
2026-01-30 21:39:36,511124,1616.000,1313.000,8538.000,-118.000,102.000,-19.000,NA,0.000,0
2026-01-30 21:39:36,511164,1382.000,1335.000,7878.000,141.000,167.000,-124.000,NA,0.000,0
2026-01-30 21:39:36,511204,861.000,1058.000,7725.000,-17.000,253.000,-311.000,NA,0.000,0
2026-01-30 21:39:36,511244,1432.000,1566.000,8917.000,-250.000,154.000,11.000,NA,0.000,0
2026-01-30 21:39:37,511284,1341.000,1350.000,8839.000,-65.000,435.000,-82.000,NA,0.000,0
2026-01-30 21:39:37,511324,850.000,899.000,7883.000,145.000,401.000,-230.000,NA,0.000,0
2026-01-30 21:39:37,511364,554.000,1233.000,7789.000,375.000,19.000,-279.000,NA,0.000,0
2026-01-30 21:39:37,511404,1068.000,1789.000,8792.000,-49.000,-272.000,-24.000,NA,0.000,0
2026-01-30 21:39:37,511444,1403.000,1585.000,9159.000,-477.000,107.000,226.000,NA,0.000,0
2026-01-30 21:39:37,511484,677.000,512.000,7732.000,-54.000,400.000,-125.000,NA,0.000,0
2026-01-30 21:39:37,511524,212.000,916.000,7584.000,65.000,-211.000,-245.000,NA,0.000,0
2026-01-30 21:39:37,511564,1081.000,1820.000,9138.000,-199.000,-244.000,76.000,NA,0.000,0
2026-01-30 21:39:37,511604,825.000,1280.000,8826.000,-209.000,602.000,-84.000,NA,0.000,0
2026-01-30 21:39:37,511644,27.000,896.000,7866.000,538.000,595.000,-372.000,NA,0.000,0
2026-01-30 21:39:37,511684,-78.000,1208.000,7922.000,504.000,-40.000,-294.000,NA,0.000,0
2026-01-30 21:39:37,511724,588.000,2018.000,8498.000,91.000,-480.000,33.000,NA,0.000,0
2026-01-30 21:39:37,511764,798.000,1138.000,8663.000,-1024.000,-139.000,46.000,NA,0.000,0
2026-01-30 21:39:37,511804,683.000,717.000,8868.000,-226.000,74.000,-145.000,NA,0.000,0
2026-01-30 21:39:37,511844,458.000,1031.000,8617.000,441.000,-7.000,-197.000,NA,0.000,0
2026-01-30 21:39:37,511884,332.000,1517.000,7862.000,758.000,-134.000,-237.000,NA,0.000,0
2026-01-30 21:39:37,511924,620.000,1913.000,8054.000,220.000,-289.000,-206.000,NA,0.000,0
2026-01-30 21:39:37,511964,705.000,1438.000,8407.000,-175.000,168.000,-238.000,NA,0.000,0
2026-01-30 21:39:37,512004,-16.000,1423.000,7761.000,578.000,519.000,-512.000,NA,0.000,0
2026-01-30 21:39:37,512044,13.000,1700.000,7806.000,291.000,78.000,-353.000,NA,0.000,0
2026-01-30 21:39:37,512084,499.000,1996.000,8644.000,-206.000,8.000,-216.000,NA,0.000,0
2026-01-30 21:39:37,512124,151.000,1696.000,8546.000,130.000,506.000,-427.000,NA,0.000,0
2026-01-30 21:39:37,512164,-536.000,1470.000,7841.000,368.000,416.000,-536.000,NA,0.000,0
2026-01-30 21:39:37,512204,-374.000,1817.000,8320.000,180.000,-100.000,-336.000,NA,0.000,0
2026-01-30 21:39:37,512244,241.000,2053.000,8861.000,-447.000,-337.000,-72.000,NA,0.000,0
2026-01-30 21:39:38,512284,210.000,1159.000,8827.000,-579.000,-105.000,-124.000,NA,0.000,0
2026-01-30 21:39:38,512324,-105.000,821.000,7967.000,-9.000,-280.000,-156.000,NA,0.000,0
2026-01-30 21:39:38,512364,67.000,1216.000,7644.000,506.000,-744.000,-184.000,NA,0.000,0
2026-01-30 21:39:38,512404,759.000,1864.000,8109.000,321.000,-655.000,33.000,NA,0.000,0
2026-01-30 21:39:38,512444,660.000,2093.000,8111.000,90.000,32.000,-182.000,NA,0.000,0
2026-01-30 21:39:38,512484,264.000,1512.000,8514.000,-371.000,415.000,-218.000,NA,0.000,0
2026-01-30 21:39:38,512524,-155.000,1578.000,8346.000,10.000,363.000,-146.000,NA,0.000,0
2026-01-30 21:39:38,512564,27.000,1502.000,8471.000,-534.000,-219.000,89.000,NA,0.000,0
2026-01-30 21:39:38,512604,519.000,1121.000,8542.000,-879.000,-383.000,331.000,NA,0.000,0
2026-01-30 21:39:38,512644,685.000,885.000,8359.000,-615.000,-305.000,157.000,NA,0.000,0
2026-01-30 21:39:38,512684,1101.000,647.000,8764.000,-1099.000,-411.000,380.000,NA,0.000,0
2026-01-30 21:39:38,512726,1003.000,279.000,8374.000,-728.000,-329.000,255.000,NA,0.000,0
2026-01-30 21:39:38,512765,1160.000,202.000,8326.000,-318.000,-365.000,96.000,NA,0.000,0
2026-01-30 21:39:38,512804,1023.000,747.000,8502.000,607.000,26.000,-112.000,NA,0.000,0
2026-01-30 21:39:38,512844,521.000,1183.000,8199.000,878.000,342.000,-378.000,NA,0.000,0
2026-01-30 21:39:38,512886,497.000,1586.000,8504.000,953.000,584.000,-337.000,NA,0.000,0
2026-01-30 21:39:38,512924,-18.000,1781.000,8056.000,1232.000,848.000,-370.000,NA,0.000,0
2026-01-30 21:39:38,512964,-274.000,2422.000,8073.000,1153.000,777.000,-421.000,NA,0.000,0
2026-01-30 21:39:38,513004,-44.000,2363.000,8886.000,-127.000,541.000,-189.000,NA,0.000,0
2026-01-30 21:39:38,513044,39.000,1750.000,9418.000,-238.000,430.000,-217.000,NA,0.000,0
2026-01-30 21:39:38,513084,78.000,1102.000,8835.000,-208.000,37.000,-58.000,NA,0.000,0
2026-01-30 21:39:38,513124,383.000,1106.000,7785.000,194.000,-419.000,-111.000,NA,0.000,0
2026-01-30 21:39:38,513164,749.000,1294.000,7710.000,91.000,-599.000,-265.000,NA,0.000,0
2026-01-30 21:39:38,513204,960.000,1248.000,8463.000,-377.000,-15.000,-316.000,NA,0.000,0
2026-01-30 21:39:38,513244,478.000,1902.000,8302.000,603.000,605.000,-622.000,NA,0.000,0
2026-01-30 21:39:39,513284,-546.000,1574.000,7532.000,1207.000,736.000,-759.000,NA,0.000,0
2026-01-30 21:39:39,513324,-621.000,2668.000,7855.000,1253.000,417.000,-761.000,NA,0.000,0
2026-01-30 21:39:39,513364,-411.000,2502.000,8835.000,-264.000,347.000,-301.000,NA,0.000,0
2026-01-30 21:39:39,513404,-231.000,1644.000,9107.000,-660.000,493.000,-116.000,NA,0.000,0
2026-01-30 21:39:39,513444,-306.000,1151.000,8599.000,-716.000,-139.000,179.000,NA,0.000,0
2026-01-30 21:39:39,513484,23.000,1153.000,8085.000,-457.000,-771.000,245.000,NA,0.000,0
2026-01-30 21:39:39,513524,458.000,1285.000,8081.000,-333.000,-842.000,144.000,NA,0.000,0
2026-01-30 21:39:39,513564,726.000,1541.000,8609.000,-358.000,-419.000,-3.000,NA,0.000,0
2026-01-30 21:39:39,513604,468.000,1089.000,8333.000,-370.000,23.000,-147.000,NA,0.000,0
2026-01-30 21:39:39,513644,84.000,1312.000,7817.000,206.000,-38.000,-247.000,NA,0.000,0
2026-01-30 21:39:39,513684,-4.000,1563.000,7864.000,64.000,-269.000,-100.000,NA,0.000,0
2026-01-30 21:39:39,513724,432.000,1659.000,8755.000,-798.000,-264.000,91.000,NA,0.000,0
2026-01-30 21:39:39,513764,536.000,1118.000,9136.000,-869.000,33.000,237.000,NA,0.000,0
2026-01-30 21:39:39,513804,186.000,941.000,8344.000,-41.000,-89.000,62.000,NA,0.000,0
2026-01-30 21:39:39,513844,154.000,1717.000,8141.000,532.000,-356.000,-23.000,NA,0.000,0
2026-01-30 21:39:39,513884,486.000,1340.000,8294.000,-511.000,-479.000,13.000,NA,0.000,0
2026-01-30 21:39:39,513924,842.000,1152.000,8967.000,-439.000,41.000,-14.000,NA,0.000,0
2026-01-30 21:39:39,513964,170.000,1172.000,8869.000,219.000,491.000,-207.000,NA,0.000,0
2026-01-30 21:39:39,514004,-102.000,1010.000,8129.000,445.000,184.000,-183.000,NA,0.000,0
2026-01-30 21:39:39,514044,150.000,1148.000,7556.000,347.000,-300.000,-72.000,NA,0.000,0
2026-01-30 21:39:39,514084,688.000,1613.000,8174.000,-113.000,-385.000,-22.000,NA,0.000,0
2026-01-30 21:39:39,514124,634.000,1081.000,8921.000,-504.000,151.000,-21.000,NA,0.000,0
2026-01-30 21:39:39,514164,92.000,818.000,8521.000,183.000,234.000,-186.000,NA,0.000,0
2026-01-30 21:39:39,514204,398.000,1352.000,8047.000,701.000,-263.000,35.000,NA,0.000,0
2026-01-30 21:39:39,514244,453.000,1543.000,7648.000,186.000,-296.000,-135.000,NA,0.000,0
2026-01-30 21:39:40,514284,868.000,1190.000,8650.000,-580.000,-118.000,-40.000,NA,0.000,0
2026-01-30 21:39:40,514324,612.000,1253.000,8837.000,228.000,412.000,-239.000,NA,0.000,0
2026-01-30 21:39:40,514364,-20.000,1086.000,7824.000,866.000,439.000,-404.000,NA,0.000,0
2026-01-30 21:39:40,514404,46.000,1978.000,7271.000,1481.000,22.000,-371.000,NA,0.000,0
2026-01-30 21:39:40,514444,285.000,2448.000,7857.000,377.000,-86.000,-317.000,NA,0.000,0
2026-01-30 21:39:40,514484,686.000,2138.000,9387.000,-892.000,447.000,-142.000,NA,0.000,0
2026-01-30 21:39:40,514524,123.000,1192.000,9097.000,-382.000,855.000,-334.000,NA,0.000,0
2026-01-30 21:39:40,514564,-567.000,1381.000,7927.000,1166.000,127.000,-505.000,NA,0.000,0
2026-01-30 21:39:40,514604,-270.000,2344.000,7644.000,1204.000,-442.000,-387.000,NA,0.000,0
2026-01-30 21:39:40,514644,366.000,2770.000,8644.000,-109.000,-301.000,-175.000,NA,0.000,0
2026-01-30 21:39:40,514684,396.000,2023.000,9135.000,-613.000,400.000,-168.000,NA,0.000,0
2026-01-30 21:39:40,514726,-153.000,1297.000,8245.000,65.000,502.000,-333.000,NA,0.000,0
2026-01-30 21:39:40,514765,-350.000,1712.000,7350.000,1100.000,-99.000,-279.000,NA,0.000,0
2026-01-30 21:39:40,514804,83.000,2580.000,7782.000,485.000,-515.000,-165.000,NA,0.000,0
2026-01-30 21:39:40,514844,419.000,2258.000,8550.000,-643.000,-51.000,-2.000,NA,0.000,0
2026-01-30 21:39:40,514884,-207.000,1580.000,8118.000,-319.000,450.000,-153.000,NA,0.000,0
2026-01-30 21:39:40,514924,-13.000,1279.000,8391.000,-779.000,-2.000,49.000,NA,0.000,0
2026-01-30 21:39:40,514964,19.000,1329.000,8135.000,-713.000,-401.000,-2.000,NA,0.000,0
2026-01-30 21:39:40,515004,170.000,1167.000,8553.000,-540.000,-520.000,77.000,NA,0.000,0
2026-01-30 21:39:40,515044,250.000,1523.000,8705.000,-3.000,-510.000,157.000,NA,0.000,0
2026-01-30 21:39:40,515084,221.000,1594.000,8080.000,539.000,-396.000,165.000,NA,0.000,0
2026-01-30 21:39:40,515124,341.000,1720.000,7407.000,433.000,-535.000,92.000,NA,0.000,0
2026-01-30 21:39:40,515164,990.000,1998.000,8275.000,-582.000,-563.000,213.000,NA,0.000,0
2026-01-30 21:39:40,515204,1106.000,1506.000,9262.000,-1222.000,82.000,228.000,NA,0.000,0
2026-01-30 21:39:40,515244,367.000,120.000,7992.000,-356.000,368.000,42.000,NA,0.000,0
2026-01-30 21:39:41,515284,-167.000,1111.000,6664.000,1459.000,-56.000,-208.000,NA,0.000,0
2026-01-30 21:39:41,515324,759.000,2365.000,7277.000,-74.000,-821.000,168.000,NA,0.000,0
2026-01-30 21:39:41,515364,1746.000,2429.000,9785.000,-2653.000,61.000,325.000,NA,0.000,0
2026-01-30 21:39:41,515404,1106.000,-310.000,10042.000,-2003.000,1536.000,103.000,NA,0.000,0
2026-01-30 21:39:41,515444,-553.000,641.000,8653.000,1354.000,1421.000,-527.000,NA,0.000,0
2026-01-30 21:39:41,515484,-1026.000,1713.000,8201.000,1513.000,53.000,-420.000,NA,0.000,0
2026-01-30 21:39:41,515524,173.000,2349.000,8532.000,285.000,-1064.000,86.000,NA,0.000,0
2026-01-30 21:39:41,515564,1108.000,1763.000,9089.000,-727.000,-619.000,310.000,NA,0.000,0
2026-01-30 21:39:41,515604,699.000,1021.000,8748.000,-56.000,297.000,-17.000,NA,0.000,0
2026-01-30 21:39:41,515644,314.000,616.000,7979.000,676.000,229.000,-215.000,NA,0.000,0
2026-01-30 21:39:41,515684,-122.000,1518.000,6534.000,1627.000,-193.000,-337.000,NA,0.000,0
2026-01-30 21:39:41,515724,1122.000,2717.000,8356.000,-754.000,-692.000,245.000,NA,0.000,0
2026-01-30 21:39:41,515764,1813.000,1344.000,9487.000,-2170.000,424.000,360.000,NA,0.000,0
2026-01-30 21:39:41,515804,129.000,85.000,7696.000,22.000,1224.000,-496.000,NA,0.000,0
2026-01-30 21:39:41,515844,-374.000,1470.000,7887.000,1558.000,431.000,-587.000,NA,0.000,0
2026-01-30 21:39:41,515884,-99.000,2945.000,8429.000,782.000,-313.000,-216.000,NA,0.000,0
2026-01-30 21:39:41,515924,586.000,2318.000,9230.000,-807.000,-65.000,20.000,NA,0.000,0
2026-01-30 21:39:41,515964,265.000,1104.000,8482.000,-365.000,524.000,-80.000,NA,0.000,0
2026-01-30 21:39:41,516004,-70.000,1453.000,7969.000,525.000,306.000,-248.000,NA,0.000,0
2026-01-30 21:39:41,516044,83.000,1983.000,8268.000,112.000,-186.000,-62.000,NA,0.000,0
2026-01-30 21:39:41,516084,531.000,1632.000,8569.000,-588.000,-41.000,157.000,NA,0.000,0
2026-01-30 21:39:41,516124,264.000,1012.000,8346.000,-633.000,42.000,114.000,NA,0.000,0
2026-01-30 21:39:41,516164,266.000,1047.000,8299.000,-410.000,-218.000,152.000,NA,0.000,0
2026-01-30 21:39:41,516204,489.000,1268.000,8462.000,-388.000,-473.000,177.000,NA,0.000,0
2026-01-30 21:39:41,516244,711.000,1091.000,8457.000,-451.000,-438.000,210.000,NA,0.000,0
2026-01-30 21:39:42,516284,721.000,963.000,8370.000,-188.000,-260.000,76.000,NA,0.000,0
2026-01-30 21:39:42,516324,625.000,1003.000,8397.000,115.000,-161.000,68.000,NA,0.000,0
2026-01-30 21:39:42,516364,564.000,1296.000,8103.000,249.000,-183.000,60.000,NA,0.000,0
2026-01-30 21:39:42,516404,570.000,1252.000,7860.000,196.000,-189.000,5.000,NA,0.000,0
2026-01-30 21:39:42,516444,597.000,1332.000,8070.000,30.000,-30.000,-1.000,NA,0.000,0
2026-01-30 21:39:42,516484,576.000,1347.000,8365.000,33.000,162.000,-2.000,NA,0.000,0
2026-01-30 21:39:42,516524,498.000,1161.000,8445.000,35.000,147.000,-3.000,NA,0.000,0
2026-01-30 21:39:42,516564,464.000,1294.000,8392.000,211.000,78.000,-43.000,NA,0.000,0
2026-01-30 21:39:42,516604,521.000,1380.000,8296.000,166.000,-3.000,-55.000,NA,0.000,0
2026-01-30 21:39:42,516644,544.000,1364.000,8264.000,110.000,65.000,-66.000,NA,0.000,0
2026-01-30 21:39:42,516684,520.000,1434.000,8339.000,104.000,89.000,-58.000,NA,0.000,0
2026-01-30 21:39:42,516727,475.000,1248.000,8115.000,109.000,118.000,-13.000,NA,0.000,0
2026-01-30 21:39:42,516764,445.000,1414.000,8071.000,177.000,92.000,-49.000,NA,0.000,0
2026-01-30 21:39:42,516804,486.000,1499.000,8419.000,-19.000,54.000,-19.000,NA,0.000,0
2026-01-30 21:39:42,516844,288.000,1385.000,8478.000,-71.000,161.000,-37.000,NA,0.000,0
2026-01-30 21:39:42,516887,367.000,1326.000,8282.000,-40.000,-175.000,66.000,NA,0.000,0
2026-01-30 21:39:42,516925,464.000,1266.000,8261.000,-85.000,-232.000,71.000,NA,0.000,0
2026-01-30 21:39:42,516964,556.000,1369.000,8352.000,-103.000,-191.000,60.000,NA,0.000,0
2026-01-30 21:39:42,517004,552.000,1107.000,8379.000,-202.000,-131.000,103.000,NA,0.000,0
2026-01-30 21:39:42,517044,503.000,1175.000,8113.000,91.000,-138.000,13.000,NA,0.000,0
2026-01-30 21:39:42,517084,593.000,1459.000,8090.000,143.000,-226.000,68.000,NA,0.000,0
2026-01-30 21:39:42,517124,624.000,1419.000,8168.000,-136.000,-154.000,78.000,NA,0.000,0
2026-01-30 21:39:42,517164,643.000,1186.000,8333.000,-255.000,-74.000,95.000,NA,0.000,0
2026-01-30 21:39:42,517204,639.000,1032.000,8231.000,-142.000,-76.000,115.000,NA,0.000,0
2026-01-30 21:39:42,517244,822.000,1237.000,8194.000,-138.000,-189.000,99.000,NA,0.000,0
2026-01-30 21:39:43,517284,849.000,1153.000,8303.000,-172.000,-54.000,70.000,NA,0.000,0
2026-01-30 21:39:43,517324,686.000,1146.000,8293.000,-79.000,56.000,-21.000,NA,0.000,0
2026-01-30 21:39:43,517364,729.000,1268.000,8641.000,17.000,111.000,-8.000,NA,0.000,0
2026-01-30 21:39:43,517404,510.000,1330.000,8655.000,14.000,200.000,-40.000,NA,0.000,0
2026-01-30 21:39:43,517444,435.000,1103.000,8366.000,31.000,62.000,-33.000,NA,0.000,0
2026-01-30 21:39:43,517484,447.000,1200.000,8285.000,187.000,-49.000,-29.000,NA,0.000,0
2026-01-30 21:39:43,517524,644.000,1403.000,8448.000,139.000,-129.000,35.000,NA,0.000,0
2026-01-30 21:39:43,517564,611.000,1275.000,8366.000,78.000,-41.000,45.000,NA,0.000,0
2026-01-30 21:39:43,517604,612.000,1302.000,8306.000,172.000,-60.000,34.000,NA,0.000,0
2026-01-30 21:39:43,517644,681.000,1417.000,8137.000,166.000,-147.000,51.000,NA,0.000,0
2026-01-30 21:39:43,517684,752.000,1329.000,8051.000,64.000,-96.000,39.000,NA,0.000,0
2026-01-30 21:39:43,517724,711.000,1322.000,8087.000,-12.000,-6.000,21.000,NA,0.000,0
2026-01-30 21:39:43,517764,683.000,1308.000,8118.000,-106.000,-21.000,59.000,NA,0.000,0
2026-01-30 21:39:43,517804,727.000,1254.000,8198.000,-141.000,-46.000,74.000,NA,0.000,0
2026-01-30 21:39:43,517844,736.000,1183.000,8560.000,-350.000,5.000,60.000,NA,0.000,0
2026-01-30 21:39:43,517884,610.000,1054.000,8706.000,-257.000,63.000,66.000,NA,0.000,0
2026-01-30 21:39:43,517924,519.000,1093.000,8533.000,-2.000,-130.000,58.000,NA,0.000,0
2026-01-30 21:39:43,517964,742.000,1177.000,8398.000,29.000,-347.000,195.000,NA,0.000,0
2026-01-30 21:39:43,518004,1085.000,1352.000,8238.000,172.000,-277.000,103.000,NA,0.000,0
2026-01-30 21:39:43,518044,1242.000,1163.000,8481.000,-310.000,19.000,121.000,NA,0.000,0
2026-01-30 21:39:43,518084,690.000,1073.000,8046.000,114.000,314.000,-121.000,NA,0.000,0
2026-01-30 21:39:43,518124,318.000,985.000,7517.000,481.000,114.000,-110.000,NA,0.000,0
2026-01-30 21:39:43,518164,692.000,1987.000,8278.000,-175.000,-52.000,161.000,NA,0.000,0
2026-01-30 21:39:43,518204,1116.000,1010.000,9251.000,-1586.000,-23.000,473.000,NA,0.000,0
2026-01-30 21:39:43,518244,1184.000,65.000,8989.000,-970.000,71.000,294.000,NA,0.000,0
2026-01-30 21:39:44,518284,836.000,277.000,8604.000,216.000,-115.000,-9.000,NA,0.000,0
2026-01-30 21:39:44,518324,938.000,1094.000,8530.000,997.000,-229.000,-98.000,NA,0.000,0
2026-01-30 21:39:44,518364,542.000,1522.000,7345.000,1243.000,-65.000,-166.000,NA,0.000,0
2026-01-30 21:39:44,518404,1078.000,1558.000,7923.000,-111.000,-146.000,164.000,NA,0.000,0
2026-01-30 21:39:44,518444,1129.000,1384.000,8618.000,-616.000,382.000,179.000,NA,0.000,0
2026-01-30 21:39:44,518484,870.000,746.000,8638.000,-482.000,510.000,75.000,NA,0.000,0
2026-01-30 21:39:44,518524,750.000,729.000,8645.000,-101.000,185.000,64.000,NA,0.000,0
2026-01-30 21:39:44,518564,626.000,1175.000,8438.000,259.000,-49.000,-21.000,NA,0.000,0
2026-01-30 21:39:44,518604,767.000,1056.000,8375.000,-33.000,-142.000,44.000,NA,0.000,0
2026-01-30 21:39:44,518644,779.000,1163.000,8133.000,135.000,-58.000,20.000,NA,0.000,0
2026-01-30 21:39:44,518684,860.000,1096.000,8218.000,68.000,-57.000,-11.000,NA,0.000,0
2026-01-30 21:39:44,518724,1015.000,1313.000,8642.000,-6.000,80.000,70.000,NA,0.000,0
2026-01-30 21:39:44,518766,595.000,1141.000,8308.000,192.000,183.000,-34.000,NA,0.000,0
2026-01-30 21:39:44,518805,658.000,1203.000,8262.000,265.000,-76.000,67.000,NA,0.000,0
2026-01-30 21:39:44,518844,886.000,1548.000,8111.000,179.000,-158.000,99.000,NA,0.000,0
2026-01-30 21:39:44,518886,1105.000,1161.000,8130.000,-128.000,-168.000,140.000,NA,0.000,0
2026-01-30 21:39:44,518924,1331.000,1162.000,8080.000,0.000,-109.000,80.000,NA,0.000,0
2026-01-30 21:39:44,518964,1181.000,1287.000,8267.000,63.000,57.000,-11.000,NA,0.000,0
2026-01-30 21:39:44,519004,1106.000,1208.000,8392.000,24.000,179.000,-21.000,NA,0.000,0
2026-01-30 21:39:44,519044,886.000,1367.000,8110.000,337.000,182.000,-87.000,NA,0.000,0
2026-01-30 21:39:44,519084,1112.000,1714.000,8295.000,305.000,8.000,0.000,NA,0.000,0
2026-01-30 21:39:44,519124,1273.000,1530.000,8207.000,102.000,24.000,55.000,NA,0.000,0
2026-01-30 21:39:44,519164,1225.000,1469.000,8252.000,230.000,108.000,-68.000,NA,0.000,0
2026-01-30 21:39:44,519204,1279.000,1835.000,8259.000,426.000,58.000,-49.000,NA,0.000,0
2026-01-30 21:39:44,519244,1293.000,1855.000,8220.000,158.000,85.000,-20.000,NA,0.000,0
2026-01-30 21:39:45,519284,1156.000,1547.000,8146.000,-168.000,112.000,-23.000,NA,0.000,0
2026-01-30 21:39:45,519324,908.000,1309.000,8093.000,-236.000,100.000,-81.000,NA,0.000,0
2026-01-30 21:39:45,519364,767.000,1379.000,8045.000,23.000,60.000,-69.000,NA,0.000,0
2026-01-30 21:39:45,519404,867.000,1828.000,8157.000,-10.000,-17.000,-33.000,NA,0.000,0
2026-01-30 21:39:45,519444,1003.000,1523.000,8444.000,-460.000,-26.000,84.000,NA,0.000,0
2026-01-30 21:39:45,519484,880.000,1152.000,8296.000,-383.000,50.000,30.000,NA,0.000,0
2026-01-30 21:39:45,519524,895.000,1396.000,8312.000,-76.000,-188.000,114.000,NA,0.000,0
2026-01-30 21:39:45,519564,1073.000,1369.000,8467.000,-180.000,-109.000,166.000,NA,0.000,0
2026-01-30 21:39:45,519604,900.000,1038.000,8239.000,-301.000,89.000,67.000,NA,0.000,0
2026-01-30 21:39:45,519644,698.000,849.000,7989.000,42.000,44.000,-9.000,NA,0.000,0
2026-01-30 21:39:45,519684,794.000,1412.000,8313.000,486.000,10.000,-7.000,NA,0.000,0
2026-01-30 21:39:45,519724,873.000,1839.000,8637.000,103.000,187.000,116.000,NA,0.000,0
2026-01-30 21:39:45,519764,835.000,991.000,8603.000,-595.000,159.000,168.000,NA,0.000,0
2026-01-30 21:39:45,519804,944.000,693.000,8615.000,-161.000,-29.000,101.000,NA,0.000,0
2026-01-30 21:39:45,519844,917.000,1454.000,8543.000,370.000,-26.000,14.000,NA,0.000,0
2026-01-30 21:39:45,519884,647.000,1569.000,8802.000,163.000,150.000,-71.000,NA,0.000,0
2026-01-30 21:39:45,519924,738.000,919.000,8564.000,-270.000,70.000,170.000,NA,0.000,0
2026-01-30 21:39:45,519964,627.000,1116.000,7819.000,205.000,-4.000,-85.000,NA,0.000,0
2026-01-30 21:39:45,520004,886.000,1296.000,8226.000,111.000,-248.000,104.000,NA,0.000,0
2026-01-30 21:39:45,520044,1089.000,1435.000,8657.000,-294.000,-21.000,139.000,NA,0.000,0
2026-01-30 21:39:45,520084,838.000,1009.000,8859.000,-193.000,231.000,46.000,NA,0.000,0
2026-01-30 21:39:45,520124,541.000,733.000,8227.000,236.000,196.000,-52.000,NA,0.000,0
2026-01-30 21:39:45,520164,360.000,1362.000,7835.000,648.000,-126.000,-142.000,NA,0.000,0
2026-01-30 21:39:45,520204,888.000,1682.000,8351.000,-53.000,-265.000,163.000,NA,0.000,0
2026-01-30 21:39:45,520244,1004.000,1324.000,8271.000,-639.000,-48.000,207.000,NA,0.000,0
2026-01-30 21:39:46,520284,630.000,781.000,8614.000,98.000,-53.000,6.000,NA,0.000,0
2026-01-30 21:39:46,520324,916.000,1448.000,8574.000,216.000,-186.000,113.000,NA,0.000,0
2026-01-30 21:39:46,520364,727.000,1333.000,7556.000,512.000,-143.000,-33.000,NA,0.000,0
2026-01-30 21:39:46,520404,729.000,1208.000,7822.000,142.000,-230.000,-99.000,NA,0.000,0
2026-01-30 21:39:46,520444,970.000,1631.000,8981.000,-265.000,-1.000,3.000,NA,0.000,0
2026-01-30 21:39:46,520484,644.000,1006.000,8743.000,-191.000,314.000,-21.000,NA,0.000,0
2026-01-30 21:39:46,520524,149.000,1162.000,7394.000,944.000,186.000,-217.000,NA,0.000,0
2026-01-30 21:39:46,520564,455.000,1604.000,7477.000,646.000,-337.000,-87.000,NA,0.000,0
2026-01-30 21:39:46,520604,1261.000,2117.000,8951.000,-662.000,-210.000,160.000,NA,0.000,0
2026-01-30 21:39:46,520644,920.000,1004.000,8275.000,-687.000,530.000,34.000,NA,0.000,0
2026-01-30 21:39:46,520684,28.000,1501.000,7275.000,1541.000,105.000,-338.000,NA,0.000,0
2026-01-30 21:39:46,520726,550.000,2067.000,8077.000,127.000,-488.000,29.000,NA,0.000,0
2026-01-30 21:39:46,520765,1394.000,2070.000,9622.000,-1336.000,-234.000,317.000,NA,0.000,0
2026-01-30 21:39:46,520827,1.000,808.000,7009.000,1500.000,127.000,-343.000,NA,0.000,0
2026-01-30 21:39:46,520884,660.000,2327.000,7976.000,758.000,-628.000,43.000,NA,0.000,0
2026-01-30 21:39:46,520926,1469.000,2509.000,9554.000,-1244.000,-312.000,403.000,NA,0.000,0
2026-01-30 21:39:46,520964,792.000,-12.000,8603.000,-1064.000,486.000,85.000,NA,0.000,0
2026-01-30 21:39:46,521004,10.000,796.000,7378.000,1352.000,205.000,-295.000,NA,0.000,0
2026-01-30 21:39:46,521044,832.000,2537.000,8308.000,48.000,-666.000,204.000,NA,0.000,0
2026-01-30 21:39:46,521084,1369.000,1368.000,9278.000,-1624.000,16.000,309.000,NA,0.000,0
2026-01-30 21:39:46,521124,625.000,252.000,8098.000,-143.000,597.000,-63.000,NA,0.000,0
2026-01-30 21:39:46,521164,94.000,1378.000,7685.000,1025.000,120.000,-245.000,NA,0.000,0
2026-01-30 21:39:46,521204,801.000,2244.000,8662.000,-111.000,-423.000,164.000,NA,0.000,0
2026-01-30 21:39:46,521244,1051.000,1301.000,8953.000,-876.000,-23.000,150.000,NA,0.000,0
2026-01-30 21:39:47,521284,435.000,813.000,8204.000,238.000,331.000,-108.000,NA,0.000,0
2026-01-30 21:39:47,521324,384.000,1545.000,7871.000,665.000,10.000,-92.000,NA,0.000,0
2026-01-30 21:39:47,521364,792.000,1631.000,8391.000,-378.000,-321.000,107.000,NA,0.000,0
2026-01-30 21:39:47,521404,1102.000,918.000,8704.000,-727.000,42.000,178.000,NA,0.000,0
2026-01-30 21:39:47,521444,358.000,1273.000,7839.000,846.000,140.000,-231.000,NA,0.000,0
2026-01-30 21:39:47,521484,470.000,1834.000,8234.000,266.000,-182.000,-77.000,NA,0.000,0
2026-01-30 21:39:47,521524,700.000,1658.000,8703.000,-641.000,-66.000,115.000,NA,0.000,0
2026-01-30 21:39:47,521564,269.000,763.000,8115.000,-31.000,246.000,-151.000,NA,0.000,0
2026-01-30 21:39:47,521604,515.000,1278.000,7808.000,567.000,-255.000,-8.000,NA,0.000,0
2026-01-30 21:39:47,521644,922.000,2265.000,8157.000,183.000,-453.000,190.000,NA,0.000,0
2026-01-30 21:39:47,521684,1145.000,899.000,8504.000,-894.000,-158.000,216.000,NA,0.000,0
2026-01-30 21:39:47,521724,776.000,1088.000,8035.000,240.000,278.000,-149.000,NA,0.000,0
2026-01-30 21:39:47,521764,457.000,1509.000,8079.000,487.000,74.000,-244.000,NA,0.000,0
2026-01-30 21:39:47,521804,427.000,1744.000,7676.000,-197.000,-67.000,43.000,NA,0.000,0
2026-01-30 21:39:47,521844,886.000,1070.000,8515.000,-947.000,-240.000,197.000,NA,0.000,0
2026-01-30 21:39:47,521884,1446.000,1339.000,9817.000,-795.000,71.000,363.000,NA,0.000,0
2026-01-30 21:39:47,521924,824.000,531.000,8849.000,70.000,468.000,-27.000,NA,0.000,0
2026-01-30 21:39:47,521964,817.000,1217.000,8235.000,325.000,-51.000,-31.000,NA,0.000,0
2026-01-30 21:39:47,522004,956.000,1745.000,8086.000,310.000,-288.000,-66.000,NA,0.000,0
2026-01-30 21:39:47,522044,641.000,1201.000,8043.000,151.000,167.000,-273.000,NA,0.000,0
2026-01-30 21:39:47,522084,695.000,1789.000,8360.000,271.000,342.000,-40.000,NA,0.000,0
2026-01-30 21:39:47,522124,1015.000,1384.000,9263.000,-860.000,330.000,171.000,NA,0.000,0
2026-01-30 21:39:47,522164,904.000,1023.000,9269.000,-463.000,358.000,109.000,NA,0.000,0
2026-01-30 21:39:47,522204,989.000,1318.000,9343.000,528.000,-98.000,-79.000,NA,0.000,0
2026-01-30 21:39:47,522244,588.000,1667.000,7750.000,1085.000,-24.000,-257.000,NA,0.000,0
2026-01-30 21:39:48,522284,198.000,1488.000,6625.000,1392.000,-248.000,-427.000,NA,0.000,0
2026-01-30 21:39:48,522324,994.000,2422.000,7832.000,406.000,-533.000,-25.000,NA,0.000,0
2026-01-30 21:39:48,522364,1909.000,2637.000,9128.000,-542.000,68.000,245.000,NA,0.000,0
2026-01-30 21:39:48,522404,1133.000,1137.000,7838.000,28.000,765.000,-47.000,NA,0.000,0
2026-01-30 21:39:48,522444,1012.000,1501.000,7749.000,527.000,152.000,-154.000,NA,0.000,0
2026-01-30 21:39:48,522484,1445.000,2538.000,8668.000,377.000,-423.000,67.000,NA,0.000,0
2026-01-30 21:39:48,522524,1437.000,2168.000,8366.000,316.000,-51.000,-41.000,NA,0.000,0
2026-01-30 21:39:48,522564,1196.000,2084.000,7300.000,590.000,-41.000,22.000,NA,0.000,0
2026-01-30 21:39:48,522604,1501.000,2345.000,7841.000,-191.000,-322.000,71.000,NA,0.000,0
2026-01-30 21:39:48,522644,1605.000,1849.000,8503.000,-973.000,17.000,64.000,NA,0.000,0
2026-01-30 21:39:48,522684,1053.000,1270.000,8366.000,-483.000,490.000,-143.000,NA,0.000,0
2026-01-30 21:39:48,522724,723.000,1891.000,8188.000,28.000,351.000,-190.000,NA,0.000,0
2026-01-30 21:39:48,522764,754.000,1952.000,8372.000,-491.000,85.000,-59.000,NA,0.000,0
2026-01-30 21:39:48,522804,927.000,1718.000,8738.000,-699.000,35.000,85.000,NA,0.000,0
2026-01-30 21:39:48,522844,791.000,1399.000,8381.000,-349.000,198.000,-36.000,NA,0.000,0
2026-01-30 21:39:48,522884,596.000,1349.000,8265.000,-55.000,122.000,-213.000,NA,0.000,0
2026-01-30 21:39:48,522924,557.000,1603.000,8394.000,199.000,-9.000,-176.000,NA,0.000,0
2026-01-30 21:39:48,522964,377.000,1458.000,8171.000,297.000,-35.000,-69.000,NA,0.000,0
2026-01-30 21:39:48,523004,273.000,1524.000,7959.000,560.000,-71.000,-79.000,NA,0.000,0
2026-01-30 21:39:48,523044,642.000,2186.000,8496.000,564.000,-288.000,73.000,NA,0.000,0
2026-01-30 21:39:48,523084,982.000,1885.000,8561.000,-122.000,-166.000,186.000,NA,0.000,0
2026-01-30 21:39:48,523124,568.000,1178.000,7594.000,27.000,-32.000,-76.000,NA,0.000,0
2026-01-30 21:39:48,523164,523.000,770.000,6883.000,434.000,-330.000,-59.000,NA,0.000,0
2026-01-30 21:39:48,523204,917.000,2272.000,7457.000,546.000,-396.000,-6.000,NA,0.000,0
2026-01-30 21:39:48,523244,1172.000,2257.000,9045.000,-1043.000,126.000,252.000,NA,0.000,0
2026-01-30 21:39:49,523284,953.000,1124.000,8961.000,-1125.000,826.000,108.000,NA,0.000,0
2026-01-30 21:39:49,523324,68.000,1511.000,8424.000,206.000,539.000,-305.000,NA,0.000,0
2026-01-30 21:39:49,523364,532.000,2025.000,8919.000,-311.000,-533.000,133.000,NA,0.000,0
2026-01-30 21:39:49,523404,775.000,1261.000,8363.000,-481.000,-309.000,169.000,NA,0.000,0
2026-01-30 21:39:49,523444,723.000,1038.000,7944.000,-110.000,-88.000,-51.000,NA,0.000,0
2026-01-30 21:39:49,523484,966.000,1682.000,8885.000,43.000,-91.000,27.000,NA,0.000,0
2026-01-30 21:39:49,523524,530.000,1464.000,8620.000,93.000,207.000,-108.000,NA,0.000,0
2026-01-30 21:39:49,523564,231.000,1273.000,7822.000,563.000,142.000,-181.000,NA,0.000,0
2026-01-30 21:39:49,523604,419.000,1949.000,7904.000,592.000,-115.000,-59.000,NA,0.000,0
2026-01-30 21:39:49,523644,640.000,2177.000,8344.000,-91.000,-85.000,52.000,NA,0.000,0
2026-01-30 21:39:49,523684,653.000,1399.000,8520.000,-368.000,197.000,-19.000,NA,0.000,0
2026-01-30 21:39:49,523724,272.000,1654.000,7950.000,373.000,54.000,-152.000,NA,0.000,0
2026-01-30 21:39:49,523764,673.000,1884.000,8347.000,-182.000,-241.000,55.000,NA,0.000,0
2026-01-30 21:39:49,523804,829.000,1364.000,8508.000,-593.000,-89.000,149.000,NA,0.000,0
2026-01-30 21:39:49,523844,697.000,1357.000,8238.000,-19.000,17.000,-90.000,NA,0.000,0
2026-01-30 21:39:49,523884,715.000,1625.000,8441.000,149.000,-66.000,-81.000,NA,0.000,0
2026-01-30 21:39:49,523924,503.000,1746.000,8341.000,192.000,13.000,-180.000,NA,0.000,0
2026-01-30 21:39:49,523964,349.000,1810.000,8319.000,262.000,68.000,-205.000,NA,0.000,0
2026-01-30 21:39:49,524004,505.000,1884.000,8412.000,28.000,21.000,-19.000,NA,0.000,0
2026-01-30 21:39:49,524044,592.000,1821.000,8203.000,96.000,-117.000,0.000,NA,0.000,0
2026-01-30 21:39:49,524084,1035.000,1650.000,8204.000,-11.000,-288.000,67.000,NA,0.000,0
2026-01-30 21:39:49,524124,836.000,1796.000,8049.000,249.000,-32.000,-135.000,NA,0.000,0
2026-01-30 21:39:49,524164,708.000,1864.000,8014.000,320.000,-56.000,-123.000,NA,0.000,0
2026-01-30 21:39:49,524204,913.000,1984.000,8256.000,151.000,-129.000,-26.000,NA,0.000,0
2026-01-30 21:39:49,524244,1070.000,2248.000,8083.000,346.000,-105.000,-7.000,NA,0.000,0
2026-01-30 21:39:50,524284,1148.000,2113.000,7746.000,283.000,-177.000,-38.000,NA,0.000,0
2026-01-30 21:39:50,524324,1426.000,2090.000,8035.000,-43.000,-322.000,75.000,NA,0.000,0
2026-01-30 21:39:50,524364,1492.000,1960.000,8108.000,-85.000,-128.000,-17.000,NA,0.000,0
2026-01-30 21:39:50,524404,1591.000,2133.000,8186.000,214.000,-28.000,-23.000,NA,0.000,0
2026-01-30 21:39:50,524444,1514.000,2445.000,8007.000,416.000,-24.000,46.000,NA,0.000,0
2026-01-30 21:39:50,524484,1741.000,2500.000,8067.000,323.000,-191.000,-16.000,NA,0.000,0
2026-01-30 21:39:50,524524,1778.000,2524.000,7979.000,311.000,-62.000,-49.000,NA,0.000,0
2026-01-30 21:39:50,524564,1679.000,2554.000,7828.000,371.000,22.000,-138.000,NA,0.000,0
2026-01-30 21:39:50,524604,1761.000,2487.000,7920.000,-115.000,-82.000,19.000,NA,0.000,0
2026-01-30 21:39:50,524644,1809.000,2383.000,7889.000,-264.000,-210.000,69.000,NA,0.000,0
2026-01-30 21:39:50,524684,1997.000,2190.000,8090.000,-333.000,-51.000,226.000,NA,0.000,0
2026-01-30 21:39:50,524724,1938.000,2338.000,7738.000,-16.000,-44.000,-43.000,NA,0.000,0
2026-01-30 21:39:50,524764,1720.000,2438.000,7863.000,23.000,-5.000,-90.000,NA,0.000,0
2026-01-30 21:39:50,524805,1974.000,2687.000,8409.000,-426.000,-48.000,64.000,NA,0.000,0
2026-01-30 21:39:50,524844,1674.000,2082.000,7684.000,-409.000,141.000,65.000,NA,0.000,0
2026-01-30 21:39:50,524884,1449.000,1958.000,7132.000,58.000,-50.000,-117.000,NA,0.000,0
2026-01-30 21:39:50,524926,1872.000,2583.000,7838.000,-289.000,-296.000,-8.000,NA,0.000,0
2026-01-30 21:39:50,524964,2093.000,2175.000,8753.000,-920.000,190.000,142.000,NA,0.000,0
2026-01-30 21:39:50,525004,1253.000,1675.000,7944.000,-220.000,765.000,-319.000,NA,0.000,0
2026-01-30 21:39:50,525044,661.000,1655.000,8041.000,-59.000,459.000,-447.000,NA,0.000,0
2026-01-30 21:39:50,525084,859.000,2311.000,8622.000,-200.000,-95.000,-126.000,NA,0.000,0
2026-01-30 21:39:50,525124,1021.000,1798.000,8371.000,-445.000,-203.000,162.000,NA,0.000,0
2026-01-30 21:39:50,525164,1208.000,1442.000,7793.000,-242.000,-332.000,220.000,NA,0.000,0
2026-01-30 21:39:50,525204,1303.000,1420.000,7681.000,-7.000,-379.000,113.000,NA,0.000,0
2026-01-30 21:39:50,525244,1118.000,1790.000,7973.000,92.000,217.000,-141.000,NA,0.000,0
2026-01-30 21:39:51,525284,986.000,1963.000,8351.000,-422.000,389.000,4.000,NA,0.000,0
2026-01-30 21:39:51,525324,890.000,1561.000,8399.000,-626.000,315.000,92.000,NA,0.000,0
2026-01-30 21:39:51,525364,877.000,1084.000,8155.000,-141.000,125.000,-41.000,NA,0.000,0
2026-01-30 21:39:51,525404,1005.000,1784.000,8260.000,335.000,-14.000,-78.000,NA,0.000,0
2026-01-30 21:39:51,525444,1046.000,1819.000,8383.000,23.000,84.000,-93.000,NA,0.000,0
2026-01-30 21:39:51,525484,881.000,1452.000,8278.000,165.000,289.000,-175.000,NA,0.000,0
2026-01-30 21:39:51,525524,636.000,1879.000,8044.000,684.000,347.000,-226.000,NA,0.000,0
2026-01-30 21:39:51,525564,674.000,2166.000,8346.000,286.000,191.000,-142.000,NA,0.000,0
2026-01-30 21:39:51,525604,867.000,1432.000,8172.000,-219.000,67.000,-23.000,NA,0.000,0
2026-01-30 21:39:51,525644,699.000,1582.000,8061.000,364.000,19.000,-143.000,NA,0.000,0
2026-01-30 21:39:51,525684,950.000,2206.000,8522.000,357.000,-80.000,-34.000,NA,0.000,0
2026-01-30 21:39:51,525724,798.000,1926.000,8242.000,75.000,124.000,-108.000,NA,0.000,0
2026-01-30 21:39:51,525764,602.000,1768.000,7967.000,201.000,65.000,-177.000,NA,0.000,0
2026-01-30 21:39:51,525804,774.000,2042.000,8229.000,191.000,-81.000,-43.000,NA,0.000,0
2026-01-30 21:39:51,525844,801.000,1997.000,8071.000,44.000,-2.000,-67.000,NA,0.000,0
2026-01-30 21:39:51,525884,830.000,1655.000,8081.000,-55.000,26.000,-20.000,NA,0.000,0
2026-01-30 21:39:51,525924,895.000,1898.000,8164.000,33.000,4.000,-18.000,NA,0.000,0
2026-01-30 21:39:51,525964,884.000,1964.000,8436.000,-106.000,26.000,-26.000,NA,0.000,0
2026-01-30 21:39:51,526004,685.000,1996.000,8386.000,55.000,157.000,-85.000,NA,0.000,0
2026-01-30 21:39:51,526044,577.000,2085.000,8254.000,20.000,58.000,-125.000,NA,0.000,0
2026-01-30 21:39:51,526084,713.000,2010.000,8185.000,-186.000,-147.000,2.000,NA,0.000,0
2026-01-30 21:39:51,526124,971.000,1818.000,8381.000,-292.000,-156.000,19.000,NA,0.000,0
2026-01-30 21:39:51,526164,1030.000,1710.000,8465.000,-91.000,14.000,-17.000,NA,0.000,0
2026-01-30 21:39:51,526204,1029.000,2021.000,8192.000,253.000,-57.000,-40.000,NA,0.000,0
2026-01-30 21:39:51,526244,1273.000,2163.000,8197.000,286.000,-217.000,-23.000,NA,0.000,0
2026-01-30 21:39:52,526284,1428.000,2451.000,8293.000,450.000,-92.000,-145.000,NA,0.000,0
2026-01-30 21:39:52,526324,1240.000,2464.000,8056.000,696.000,83.000,-302.000,NA,0.000,0
2026-01-30 21:39:52,526364,1192.000,2611.000,7836.000,840.000,80.000,-355.000,NA,0.000,0
2026-01-30 21:39:52,526404,1386.000,3015.000,7916.000,859.000,-11.000,-339.000,NA,0.000,0
2026-01-30 21:39:52,526444,1414.000,2849.000,7732.000,546.000,72.000,-293.000,NA,0.000,0
2026-01-30 21:39:52,526484,1453.000,2812.000,7530.000,534.000,4.000,-290.000,NA,0.000,0
2026-01-30 21:39:52,526524,1486.000,3039.000,7704.000,372.000,-1.000,-274.000,NA,0.000,0
2026-01-30 21:39:52,526564,1521.000,3242.000,7999.000,1.000,70.000,-327.000,NA,0.000,0
2026-01-30 21:39:52,526604,1243.000,2884.000,8093.000,-136.000,170.000,-327.000,NA,0.000,0
2026-01-30 21:39:52,526644,1037.000,3015.000,7924.000,216.000,115.000,-286.000,NA,0.000,0
2026-01-30 21:39:52,526684,1063.000,3141.000,7602.000,176.000,-116.000,-186.000,NA,0.000,0
2026-01-30 21:39:52,526724,1185.000,3080.000,7560.000,-135.000,-289.000,-41.000,NA,0.000,0
2026-01-30 21:39:52,526766,1419.000,2893.000,7742.000,-372.000,-235.000,38.000,NA,0.000,0
2026-01-30 21:39:52,526805,1581.000,2848.000,7922.000,-501.000,-243.000,37.000,NA,0.000,0
2026-01-30 21:39:52,526844,1586.000,2650.000,7862.000,-581.000,-279.000,108.000,NA,0.000,0
2026-01-30 21:39:52,526884,1377.000,2398.000,7611.000,-531.000,-301.000,4.000,NA,0.000,0
2026-01-30 21:39:52,526926,1520.000,2416.000,7951.000,-613.000,-376.000,137.000,NA,0.000,0
2026-01-30 21:39:52,526964,1545.000,2416.000,7745.000,-310.000,-355.000,203.000,NA,0.000,0
2026-01-30 21:39:52,527004,1611.000,2442.000,7589.000,-282.000,-344.000,161.000,NA,0.000,0
2026-01-30 21:39:52,527044,1902.000,2493.000,8057.000,-538.000,-373.000,259.000,NA,0.000,0
2026-01-30 21:39:52,527084,1801.000,2171.000,8021.000,-420.000,-152.000,55.000,NA,0.000,0
2026-01-30 21:39:52,527124,1558.000,2090.000,7690.000,-149.000,-64.000,-14.000,NA,0.000,0
2026-01-30 21:39:52,527164,1339.000,2255.000,8254.000,-453.000,-80.000,-76.000,NA,0.000,0
2026-01-30 21:39:52,527204,1487.000,1874.000,8562.000,-519.000,-35.000,134.000,NA,0.000,0
2026-01-30 21:39:52,527244,1332.000,1971.000,7597.000,314.000,-46.000,-16.000,NA,0.000,0
2026-01-30 21:39:53,527284,1460.000,2331.000,7863.000,230.000,-228.000,-64.000,NA,0.000,0
2026-01-30 21:39:53,527324,1613.000,2225.000,8407.000,-459.000,-25.000,-40.000,NA,0.000,0
2026-01-30 21:39:53,527364,1327.000,1567.000,8462.000,-571.000,341.000,-208.000,NA,0.000,0
2026-01-30 21:39:53,527404,883.000,1373.000,8090.000,-27.000,461.000,-327.000,NA,0.000,0
2026-01-30 21:39:53,527444,593.000,1771.000,8035.000,240.000,263.000,-351.000,NA,0.000,0
2026-01-30 21:39:53,527484,779.000,2155.000,8565.000,172.000,108.000,-159.000,NA,0.000,0
2026-01-30 21:39:53,527524,661.000,1839.000,7965.000,253.000,277.000,-289.000,NA,0.000,0
2026-01-30 21:39:53,527564,717.000,2210.000,8438.000,455.000,314.000,-405.000,NA,0.000,0
2026-01-30 21:39:53,527604,494.000,2263.000,8553.000,425.000,471.000,-465.000,NA,0.000,0
2026-01-30 21:39:53,527644,222.000,2111.000,8232.000,652.000,502.000,-560.000,NA,0.000,0
2026-01-30 21:39:53,527684,157.000,2213.000,8075.000,671.000,225.000,-479.000,NA,0.000,0
2026-01-30 21:39:53,527724,72.000,2450.000,8260.000,602.000,185.000,-370.000,NA,0.000,0
2026-01-30 21:39:53,527764,160.000,2497.000,8246.000,531.000,103.000,-272.000,NA,0.000,0
2026-01-30 21:39:53,527804,224.000,2499.000,8027.000,448.000,-22.000,-263.000,NA,0.000,0
2026-01-30 21:39:53,527844,211.000,2439.000,8048.000,280.000,-59.000,-309.000,NA,0.000,0
2026-01-30 21:39:53,527884,154.000,2474.000,8123.000,220.000,-67.000,-317.000,NA,0.000,0
2026-01-30 21:39:53,527924,271.000,2518.000,8141.000,207.000,-100.000,-174.000,NA,0.000,0
2026-01-30 21:39:53,527964,247.000,2283.000,7817.000,134.000,-65.000,-152.000,NA,0.000,0
2026-01-30 21:39:53,528004,149.000,2341.000,7628.000,153.000,-97.000,-252.000,NA,0.000,0
2026-01-30 21:39:53,528044,294.000,2604.000,8132.000,-94.000,-179.000,-136.000,NA,0.000,0
2026-01-30 21:39:53,528084,113.000,2428.000,8039.000,-144.000,61.000,-201.000,NA,0.000,0
2026-01-30 21:39:53,528124,-203.000,2153.000,7665.000,68.000,-19.000,-309.000,NA,0.000,0
2026-01-30 21:39:53,528164,25.000,2449.000,7834.000,-89.000,-389.000,5.000,NA,0.000,0
2026-01-30 21:39:53,528204,390.000,2526.000,7989.000,-451.000,-439.000,121.000,NA,0.000,0
2026-01-30 21:39:53,528244,526.000,2003.000,8154.000,-649.000,-202.000,43.000,NA,0.000,0
2026-01-30 21:39:54,528284,466.000,2054.000,8314.000,-401.000,-166.000,14.000,NA,0.000,0
2026-01-30 21:39:54,528324,476.000,1874.000,8458.000,-414.000,-178.000,25.000,NA,0.000,0
2026-01-30 21:39:54,528364,441.000,1885.000,8220.000,-189.000,-158.000,35.000,NA,0.000,0
2026-01-30 21:39:54,528404,329.000,2016.000,7925.000,-2.000,-130.000,-45.000,NA,0.000,0
2026-01-30 21:39:54,528444,270.000,1835.000,7569.000,-120.000,-82.000,-59.000,NA,0.000,0
2026-01-30 21:39:54,528484,181.000,1887.000,7213.000,80.000,-107.000,-125.000,NA,0.000,0
2026-01-30 21:39:54,528524,561.000,2166.000,8320.000,-800.000,-134.000,101.000,NA,0.000,0
2026-01-30 21:39:54,528564,856.000,1717.000,9321.000,-1454.000,282.000,305.000,NA,0.000,0
2026-01-30 21:39:54,528604,192.000,947.000,8572.000,-514.000,451.000,-31.000,NA,0.000,0
2026-01-30 21:39:54,528644,85.000,1187.000,8444.000,-74.000,-188.000,30.000,NA,0.000,0
2026-01-30 21:39:54,528684,320.000,1824.000,8719.000,-75.000,-400.000,53.000,NA,0.000,0
2026-01-30 21:39:54,528724,586.000,1699.000,8578.000,-72.000,-213.000,154.000,NA,0.000,0
2026-01-30 21:39:54,528766,586.000,1360.000,7940.000,260.000,-180.000,-12.000,NA,0.000,0
2026-01-30 21:39:54,528805,613.000,1517.000,7887.000,333.000,-215.000,-24.000,NA,0.000,0
2026-01-30 21:39:54,528844,655.000,1660.000,7989.000,119.000,-190.000,41.000,NA,0.000,0
2026-01-30 21:39:54,528884,715.000,1538.000,8102.000,-83.000,-68.000,94.000,NA,0.000,0
2026-01-30 21:39:54,528926,687.000,1492.000,8150.000,-2.000,137.000,58.000,NA,0.000,0
2026-01-30 21:39:54,528964,544.000,1682.000,8307.000,119.000,195.000,-72.000,NA,0.000,0
2026-01-30 21:39:54,529004,434.000,1763.000,8322.000,147.000,174.000,-85.000,NA,0.000,0
2026-01-30 21:39:54,529044,511.000,1659.000,8183.000,127.000,97.000,-69.000,NA,0.000,0
2026-01-30 21:39:54,529084,707.000,1631.000,8460.000,-229.000,18.000,54.000,NA,0.000,0
2026-01-30 21:39:54,529124,601.000,1307.000,8471.000,-177.000,193.000,-66.000,NA,0.000,0
2026-01-30 21:39:54,529164,459.000,1630.000,8257.000,238.000,213.000,-90.000,NA,0.000,0
2026-01-30 21:39:54,529204,245.000,1772.000,8160.000,213.000,116.000,-121.000,NA,0.000,0
2026-01-30 21:39:54,529244,327.000,1949.000,8421.000,29.000,-6.000,-14.000,NA,0.000,0
2026-01-30 21:39:55,529284,424.000,1575.000,8300.000,-128.000,7.000,38.000,NA,0.000,0
2026-01-30 21:39:55,529324,508.000,1535.000,8184.000,12.000,-79.000,0.000,NA,0.000,0
2026-01-30 21:39:55,529364,598.000,1667.000,8276.000,64.000,-135.000,55.000,NA,0.000,0
2026-01-30 21:39:55,529404,688.000,1760.000,8592.000,-108.000,-77.000,45.000,NA,0.000,0
2026-01-30 21:39:55,529444,432.000,1600.000,8038.000,287.000,27.000,-58.000,NA,0.000,0
2026-01-30 21:39:55,529484,389.000,1902.000,8026.000,436.000,-129.000,-107.000,NA,0.000,0
2026-01-30 21:39:55,529524,556.000,2290.000,8443.000,10.000,-35.000,64.000,NA,0.000,0
2026-01-30 21:39:55,529564,397.000,1510.000,8062.000,-269.000,127.000,-68.000,NA,0.000,0
2026-01-30 21:39:55,529604,491.000,1455.000,7974.000,-3.000,-87.000,-29.000,NA,0.000,0
2026-01-30 21:39:55,529644,703.000,1883.000,8262.000,-85.000,-215.000,85.000,NA,0.000,0
2026-01-30 21:39:55,529684,751.000,1661.000,8462.000,-366.000,-83.000,51.000,NA,0.000,0
2026-01-30 21:39:55,529724,703.000,1381.000,8233.000,-63.000,-18.000,7.000,NA,0.000,0
2026-01-30 21:39:55,529764,511.000,1849.000,8021.000,359.000,-7.000,-151.000,NA,0.000,0
2026-01-30 21:39:55,529804,564.000,1837.000,8529.000,-34.000,24.000,-41.000,NA,0.000,0
2026-01-30 21:39:55,529844,498.000,1679.000,8269.000,161.000,81.000,-127.000,NA,0.000,0
2026-01-30 21:39:55,529884,490.000,1779.000,7839.000,393.000,35.000,-117.000,NA,0.000,0
2026-01-30 21:39:55,529924,552.000,2004.000,7816.000,367.000,-49.000,-148.000,NA,0.000,0
2026-01-30 21:39:55,529964,702.000,2165.000,8157.000,150.000,56.000,-108.000,NA,0.000,0
2026-01-30 21:39:55,530004,634.000,2044.000,8458.000,82.000,315.000,-185.000,NA,0.000,0
2026-01-30 21:39:55,530044,344.000,2108.000,8433.000,302.000,349.000,-273.000,NA,0.000,0
2026-01-30 21:39:55,530084,279.000,2224.000,8431.000,224.000,76.000,-178.000,NA,0.000,0
2026-01-30 21:39:55,530124,409.000,2060.000,8066.000,69.000,-143.000,-83.000,NA,0.000,0
2026-01-30 21:39:55,530164,428.000,1930.000,7716.000,180.000,-143.000,-90.000,NA,0.000,0
2026-01-30 21:39:55,530204,839.000,2212.000,8557.000,-289.000,-127.000,37.000,NA,0.000,0
2026-01-30 21:39:55,530244,679.000,1851.000,8146.000,-121.000,98.000,-140.000,NA,0.000,0
2026-01-30 21:39:56,530284,432.000,2019.000,8018.000,286.000,31.000,-213.000,NA,0.000,0
2026-01-30 21:39:56,530324,578.000,2744.000,8312.000,233.000,-131.000,-100.000,NA,0.000,0
2026-01-30 21:39:56,530364,645.000,2317.000,8014.000,-51.000,-109.000,-85.000,NA,0.000,0
2026-01-30 21:39:56,530404,742.000,2045.000,7934.000,5.000,-141.000,-107.000,NA,0.000,0
2026-01-30 21:39:56,530444,898.000,2455.000,8244.000,166.000,-114.000,-122.000,NA,0.000,0
2026-01-30 21:39:56,530484,918.000,2417.000,8006.000,208.000,-10.000,-140.000,NA,0.000,0
2026-01-30 21:39:56,530524,949.000,2358.000,7723.000,323.000,-111.000,-164.000,NA,0.000,0
2026-01-30 21:39:56,530564,1374.000,2906.000,8209.000,288.000,-248.000,-34.000,NA,0.000,0
2026-01-30 21:39:56,530604,1273.000,2807.000,8023.000,311.000,49.000,-172.000,NA,0.000,0
2026-01-30 21:39:56,530644,1192.000,2616.000,7818.000,360.000,-48.000,-127.000,NA,0.000,0
2026-01-30 21:39:56,530684,1363.000,2942.000,7684.000,462.000,-217.000,-140.000,NA,0.000,0
2026-01-30 21:39:56,530724,1573.000,2884.000,7886.000,180.000,-211.000,-91.000,NA,0.000,0
2026-01-30 21:39:56,530766,1557.000,2810.000,8027.000,-114.000,1.000,-120.000,NA,0.000,0
2026-01-30 21:39:56,530805,1539.000,2848.000,8132.000,-158.000,8.000,-136.000,NA,0.000,0
2026-01-30 21:39:56,530844,1437.000,2665.000,7983.000,-211.000,-21.000,-79.000,NA,0.000,0
2026-01-30 21:39:56,530884,1139.000,2720.000,7347.000,175.000,-190.000,-135.000,NA,0.000,0
2026-01-30 21:39:56,530927,1614.000,2897.000,7994.000,-598.000,-447.000,206.000,NA,0.000,0
2026-01-30 21:39:56,530966,1711.000,2647.000,8020.000,-662.000,-108.000,65.000,NA,0.000,0
2026-01-30 21:39:56,531004,1600.000,2383.000,8275.000,-499.000,-58.000,21.000,NA,0.000,0
2026-01-30 21:39:56,531044,1602.000,2449.000,8021.000,-287.000,-211.000,109.000,NA,0.000,0
2026-01-30 21:39:56,531084,1366.000,2422.000,7547.000,-103.000,-282.000,-65.000,NA,0.000,0
2026-01-30 21:39:56,531124,1412.000,2436.000,7912.000,-291.000,-326.000,70.000,NA,0.000,0
2026-01-30 21:39:56,531164,1514.000,2455.000,8045.000,-340.000,-148.000,173.000,NA,0.000,0
2026-01-30 21:39:56,531204,1445.000,2266.000,7852.000,-321.000,-5.000,81.000,NA,0.000,0
2026-01-30 21:39:56,531244,1627.000,2118.000,8192.000,-772.000,-138.000,224.000,NA,0.000,0
2026-01-30 21:39:57,531284,1766.000,1842.000,8381.000,-883.000,-179.000,210.000,NA,0.000,0
2026-01-30 21:39:57,531324,1439.000,1307.000,7912.000,-734.000,-75.000,31.000,NA,0.000,0
2026-01-30 21:39:57,531364,1201.000,1824.000,7590.000,202.000,-113.000,-55.000,NA,0.000,0
2026-01-30 21:39:57,531404,1439.000,2186.000,8173.000,-116.000,-153.000,-32.000,NA,0.000,0
2026-01-30 21:39:57,531444,1550.000,2212.000,8562.000,-115.000,193.000,-24.000,NA,0.000,0
2026-01-30 21:39:57,531484,1034.000,1760.000,7680.000,317.000,425.000,-266.000,NA,0.000,0
2026-01-30 21:39:57,531524,906.000,1930.000,7795.000,447.000,162.000,-314.000,NA,0.000,0
2026-01-30 21:39:57,531564,1445.000,2459.000,8785.000,82.000,-124.000,26.000,NA,0.000,0
2026-01-30 21:39:57,531604,1532.000,1915.000,8594.000,-166.000,168.000,46.000,NA,0.000,0
2026-01-30 21:39:57,531644,1151.000,1438.000,7872.000,404.000,128.000,-172.000,NA,0.000,0
2026-01-30 21:39:57,531684,1259.000,2225.000,8093.000,904.000,-229.000,-207.000,NA,0.000,0
2026-01-30 21:39:57,531724,1384.000,2342.000,7938.000,255.000,-9.000,-184.000,NA,0.000,0
2026-01-30 21:39:57,531764,1099.000,2018.000,7307.000,628.000,154.000,-327.000,NA,0.000,0
2026-01-30 21:39:57,531804,1203.000,2541.000,7488.000,759.000,-3.000,-302.000,NA,0.000,0
2026-01-30 21:39:57,531844,1453.000,2940.000,7969.000,208.000,39.000,-169.000,NA,0.000,0
2026-01-30 21:39:57,531884,1481.000,2454.000,8099.000,31.000,325.000,-164.000,NA,0.000,0
2026-01-30 21:39:57,531924,1315.000,2528.000,7840.000,483.000,324.000,-227.000,NA,0.000,0
2026-01-30 21:39:57,531964,1324.000,2821.000,8022.000,150.000,33.000,-121.000,NA,0.000,0
2026-01-30 21:39:57,532004,1550.000,2625.000,8169.000,-344.000,-217.000,43.000,NA,0.000,0
2026-01-30 21:39:57,532044,1466.000,2131.000,7833.000,-295.000,-197.000,49.000,NA,0.000,0
2026-01-30 21:39:57,532084,1406.000,2267.000,7397.000,176.000,-242.000,-25.000,NA,0.000,0
2026-01-30 21:39:57,532124,1662.000,2930.000,8086.000,-217.000,-241.000,10.000,NA,0.000,0
2026-01-30 21:39:57,532164,1522.000,2599.000,8107.000,-266.000,78.000,-73.000,NA,0.000,0
2026-01-30 21:39:57,532204,1282.000,2367.000,7726.000,30.000,53.000,-175.000,NA,0.000,0
2026-01-30 21:39:57,532244,1566.000,2634.000,7899.000,-117.000,-309.000,40.000,NA,0.000,0
2026-01-30 21:39:58,532284,1608.000,2411.000,7829.000,-292.000,-222.000,39.000,NA,0.000,0
2026-01-30 21:39:58,532324,1534.000,2255.000,8022.000,-269.000,-59.000,-14.000,NA,0.000,0
2026-01-30 21:39:58,532364,1745.000,2497.000,8184.000,-296.000,-122.000,115.000,NA,0.000,0
2026-01-30 21:39:58,532404,1601.000,2259.000,7817.000,-273.000,-105.000,-39.000,NA,0.000,0
2026-01-30 21:39:58,532444,1589.000,2121.000,7668.000,-199.000,-222.000,-58.000,NA,0.000,0
2026-01-30 21:39:58,532484,1773.000,2446.000,8318.000,-301.000,-106.000,-13.000,NA,0.000,0
2026-01-30 21:39:58,532524,1585.000,2090.000,8038.000,-128.000,120.000,-53.000,NA,0.000,0
2026-01-30 21:39:58,532564,1315.000,2137.000,7369.000,372.000,21.000,-192.000,NA,0.000,0
2026-01-30 21:39:58,532604,1573.000,2726.000,7922.000,267.000,-223.000,-72.000,NA,0.000,0
2026-01-30 21:39:58,532644,1698.000,2495.000,7824.000,-32.000,25.000,32.000,NA,0.000,0
2026-01-30 21:39:58,532684,1283.000,2045.000,7349.000,181.000,273.000,-253.000,NA,0.000,0
2026-01-30 21:39:58,532724,1645.000,2696.000,8438.000,15.000,11.000,-1.000,NA,0.000,0
2026-01-30 21:39:58,532766,1832.000,2669.000,8758.000,-392.000,112.000,84.000,NA,0.000,0
2026-01-30 21:39:58,532805,1364.000,1808.000,7833.000,-50.000,216.000,-147.000,NA,0.000,0
2026-01-30 21:39:58,532844,1252.000,2262.000,7690.000,187.000,-233.000,-93.000,NA,0.000,0
2026-01-30 21:39:58,532884,1818.000,2496.000,8494.000,-564.000,-226.000,177.000,NA,0.000,0
2026-01-30 21:39:58,532926,1609.000,1787.000,8034.000,-321.000,61.000,45.000,NA,0.000,0
2026-01-30 21:39:58,532964,1580.000,1980.000,7804.000,30.000,-135.000,10.000,NA,0.000,0
2026-01-30 21:39:58,533004,1561.000,2210.000,7776.000,-56.000,-220.000,-12.000,NA,0.000,0
2026-01-30 21:39:58,533044,1596.000,2125.000,7747.000,-34.000,-158.000,12.000,NA,0.000,0
2026-01-30 21:39:58,533084,1710.000,2343.000,7990.000,13.000,10.000,57.000,NA,0.000,0
2026-01-30 21:39:58,533124,1736.000,2457.000,8450.000,-174.000,166.000,15.000,NA,0.000,0
2026-01-30 21:39:58,533164,1582.000,2163.000,8506.000,-210.000,195.000,-75.000,NA,0.000,0
2026-01-30 21:39:58,533204,1206.000,1962.000,7799.000,185.000,79.000,-192.000,NA,0.000,0
2026-01-30 21:39:58,533244,1421.000,2429.000,7736.000,169.000,-330.000,12.000,NA,0.000,0
2026-01-30 21:39:59,533284,2037.000,2583.000,8480.000,-406.000,-145.000,266.000,NA,0.000,0
2026-01-30 21:39:59,533324,1637.000,1906.000,8136.000,-196.000,345.000,-110.000,NA,0.000,0
2026-01-30 21:39:59,533364,1289.000,1869.000,8029.000,145.000,224.000,-234.000,NA,0.000,0
2026-01-30 21:39:59,533404,1362.000,2535.000,8157.000,104.000,-179.000,-17.000,NA,0.000,0
2026-01-30 21:39:59,533444,1425.000,2113.000,8096.000,-454.000,-166.000,119.000,NA,0.000,0
2026-01-30 21:39:59,533484,1597.000,1725.000,7996.000,-546.000,-214.000,216.000,NA,0.000,0
2026-01-30 21:39:59,533524,1656.000,1733.000,7906.000,-362.000,-290.000,140.000,NA,0.000,0
2026-01-30 21:39:59,533564,1775.000,1806.000,8055.000,-326.000,-319.000,117.000,NA,0.000,0
2026-01-30 21:39:59,533604,1823.000,1851.000,8063.000,-264.000,-255.000,125.000,NA,0.000,0
2026-01-30 21:39:59,533644,1617.000,1942.000,8045.000,-16.000,-59.000,-12.000,NA,0.000,0
2026-01-30 21:39:59,533684,1583.000,2111.000,8271.000,96.000,14.000,-21.000,NA,0.000,0
2026-01-30 21:39:59,533724,1283.000,2083.000,8036.000,209.000,131.000,-103.000,NA,0.000,0
2026-01-30 21:39:59,533764,1290.000,1997.000,7869.000,227.000,-27.000,-84.000,NA,0.000,0
2026-01-30 21:39:59,533804,1703.000,2151.000,8105.000,37.000,-235.000,101.000,NA,0.000,0
2026-01-30 21:39:59,533844,1981.000,1921.000,8469.000,-396.000,-118.000,184.000,NA,0.000,0
2026-01-30 21:39:59,533884,1871.000,1598.000,8568.000,-370.000,68.000,111.000,NA,0.000,0
2026-01-30 21:39:59,533924,1543.000,1510.000,8212.000,-39.000,-10.000,14.000,NA,0.000,0
2026-01-30 21:39:59,533964,1604.000,1888.000,7971.000,196.000,-280.000,102.000,NA,0.000,0
2026-01-30 21:39:59,534004,2245.000,1975.000,8327.000,-169.000,-266.000,363.000,NA,0.000,0
2026-01-30 21:39:59,534044,2386.000,1602.000,8342.000,-647.000,-45.000,255.000,NA,0.000,0
2026-01-30 21:39:59,534084,2163.000,1121.000,8202.000,-576.000,232.000,159.000,NA,0.000,0
2026-01-30 21:39:59,534124,2007.000,1187.000,8075.000,-104.000,189.000,24.000,NA,0.000,0
2026-01-30 21:39:59,534164,1765.000,1873.000,8218.000,342.000,311.000,-71.000,NA,0.000,0
2026-01-30 21:39:59,534204,1432.000,1980.000,7920.000,364.000,443.000,-150.000,NA,0.000,0
2026-01-30 21:39:59,534244,1247.000,1877.000,7792.000,332.000,405.000,-163.000,NA,0.000,0
2026-01-30 21:40:00,534284,1272.000,1967.000,7962.000,172.000,388.000,-75.000,NA,0.000,0
2026-01-30 21:40:00,534324,1274.000,1731.000,7873.000,57.000,339.000,-13.000,NA,0.000,0
2026-01-30 21:40:00,534364,1363.000,1556.000,7841.000,-10.000,160.000,84.000,NA,0.000,0
2026-01-30 21:40:00,534404,1535.000,1405.000,7860.000,-23.000,-35.000,237.000,NA,0.000,0
2026-01-30 21:40:00,534444,1645.000,1594.000,8106.000,-42.000,-62.000,250.000,NA,0.000,0
2026-01-30 21:40:00,534484,1836.000,1847.000,8530.000,-248.000,-48.000,348.000,NA,0.000,0
2026-01-30 21:40:00,534524,1756.000,1534.000,8568.000,-440.000,51.000,290.000,NA,0.000,0
2026-01-30 21:40:00,534564,1540.000,1239.000,8326.000,-297.000,-14.000,211.000,NA,0.000,0
2026-01-30 21:40:00,534604,1501.000,1282.000,8104.000,-221.000,-202.000,259.000,NA,0.000,0
2026-01-30 21:40:00,534644,1753.000,1421.000,8507.000,-481.000,-250.000,389.000,NA,0.000,0
2026-01-30 21:40:00,534684,2228.000,1328.000,9555.000,-857.000,-87.000,611.000,NA,0.000,0
2026-01-30 21:40:00,534724,2050.000,802.000,9305.000,-562.000,180.000,579.000,NA,0.000,0
2026-01-30 21:40:00,534766,1515.000,825.000,8456.000,28.000,32.000,296.000,NA,0.000,0
2026-01-30 21:40:00,534805,1564.000,1252.000,8279.000,355.000,-315.000,304.000,NA,0.000,0
2026-01-30 21:40:00,534844,1470.000,1285.000,7974.000,371.000,-33.000,229.000,NA,0.000,0
2026-01-30 21:40:00,534884,1493.000,1374.000,7983.000,227.000,187.000,360.000,NA,0.000,0
2026-01-30 21:40:00,534926,1529.000,1079.000,7978.000,-125.000,273.000,439.000,NA,0.000,0
2026-01-30 21:40:00,534964,1363.000,710.000,7922.000,-92.000,316.000,371.000,NA,0.000,0
2026-01-30 21:40:00,535004,1287.000,841.000,8001.000,129.000,199.000,483.000,NA,0.000,0
2026-01-30 21:40:00,535044,1359.000,990.000,8032.000,-90.000,34.000,655.000,NA,0.000,0
2026-01-30 21:40:00,535084,1466.000,610.000,8074.000,-520.000,-24.000,740.000,NA,0.000,0
2026-01-30 21:40:00,535124,1560.000,365.000,8385.000,-699.000,-45.000,825.000,NA,0.000,0
2026-01-30 21:40:00,535164,1494.000,169.000,8594.000,-471.000,-1.000,936.000,NA,0.000,0
2026-01-30 21:40:00,535204,1535.000,280.000,8474.000,-311.000,-155.000,995.000,NA,0.000,0
2026-01-30 21:40:00,535244,1727.000,-63.000,8481.000,-724.000,-354.000,1100.000,NA,0.000,0
2026-01-30 21:40:01,535284,1978.000,-244.000,8657.000,-730.000,-425.000,1164.000,NA,0.000,0
2026-01-30 21:40:01,535324,2060.000,-802.000,8543.000,-515.000,-231.000,1174.000,NA,0.000,0
2026-01-30 21:40:01,535364,1954.000,-323.000,8234.000,610.000,71.000,983.000,NA,0.000,0
2026-01-30 21:40:01,535404,1610.000,363.000,7943.000,955.000,227.000,816.000,NA,0.000,0
2026-01-30 21:40:01,535444,1412.000,440.000,8154.000,295.000,333.000,771.000,NA,0.000,0
2026-01-30 21:40:01,535484,1408.000,-57.000,8508.000,5.000,498.000,828.000,NA,0.000,0
2026-01-30 21:40:01,535524,1153.000,250.000,8452.000,602.000,757.000,699.000,NA,0.000,0
2026-01-30 21:40:01,535564,975.000,612.000,8335.000,1154.000,669.000,552.000,NA,0.000,0
2026-01-30 21:40:01,535604,891.000,927.000,8532.000,682.000,513.000,643.000,NA,0.000,0
2026-01-30 21:40:01,535644,845.000,529.000,8670.000,-34.000,413.000,792.000,NA,0.000,0
2026-01-30 21:40:01,535684,1056.000,182.000,8861.000,-240.000,213.000,999.000,NA,0.000,0
2026-01-30 21:40:01,535724,1081.000,39.000,8628.000,-147.000,151.000,1025.000,NA,0.000,0
2026-01-30 21:40:01,535764,1060.000,28.000,8517.000,-166.000,-13.000,1002.000,NA,0.000,0
2026-01-30 21:40:01,535804,1247.000,63.000,8487.000,-402.000,-244.000,1112.000,NA,0.000,0
2026-01-30 21:40:01,535844,1416.000,-184.000,8336.000,-610.000,-275.000,1092.000,NA,0.000,0
2026-01-30 21:40:01,535884,1513.000,-473.000,8214.000,-392.000,-157.000,1011.000,NA,0.000,0
2026-01-30 21:40:01,535924,1576.000,38.000,8696.000,306.000,220.000,948.000,NA,0.000,0
2026-01-30 21:40:01,535964,1252.000,127.000,8481.000,479.000,507.000,864.000,NA,0.000,0
2026-01-30 21:40:01,536004,941.000,57.000,8059.000,618.000,470.000,713.000,NA,0.000,0
2026-01-30 21:40:01,536044,949.000,463.000,8246.000,584.000,377.000,750.000,NA,0.000,0
2026-01-30 21:40:01,536084,901.000,371.000,8444.000,236.000,510.000,788.000,NA,0.000,0
2026-01-30 21:40:01,536124,806.000,232.000,8686.000,370.000,709.000,731.000,NA,0.000,0
2026-01-30 21:40:01,536164,585.000,410.000,8723.000,579.000,726.000,784.000,NA,0.000,0
2026-01-30 21:40:01,536204,488.000,433.000,8621.000,302.000,350.000,827.000,NA,0.000,0
2026-01-30 21:40:01,536244,491.000,380.000,8715.000,8.000,162.000,925.000,NA,0.000,0
2026-01-30 21:40:02,536284,798.000,-149.000,8749.000,-393.000,-26.000,1050.000,NA,0.000,0
2026-01-30 21:40:02,536324,580.000,-199.000,8228.000,-119.000,52.000,1049.000,NA,0.000,0
2026-01-30 21:40:02,536364,598.000,23.000,8134.000,-206.000,-134.000,1084.000,NA,0.000,0
2026-01-30 21:40:02,536404,1128.000,-140.000,8757.000,-1249.000,-464.000,1332.000,NA,0.000,0
2026-01-30 21:40:02,536444,1609.000,-1300.000,9132.000,-2126.000,-477.000,1423.000,NA,0.000,0
2026-01-30 21:40:02,536484,1689.000,-2013.000,8841.000,-1040.000,-179.000,1111.000,NA,0.000,0
2026-01-30 21:40:02,536524,1405.000,-1484.000,8627.000,643.000,190.000,977.000,NA,0.000,0
2026-01-30 21:40:02,536564,973.000,-411.000,8434.000,1776.000,512.000,797.000,NA,0.000,0
2026-01-30 21:40:02,536604,211.000,494.000,8360.000,2153.000,1002.000,672.000,NA,0.000,0
2026-01-30 21:40:02,536644,-186.000,1077.000,8600.000,1571.000,907.000,904.000,NA,0.000,0
2026-01-30 21:40:02,536684,-97.000,273.000,8893.000,-1074.000,275.000,1460.000,NA,0.000,0
2026-01-30 21:40:02,536724,550.000,-1177.000,8735.000,-1944.000,-436.000,1476.000,NA,0.000,0
2026-01-30 21:40:02,536766,1149.000,-1743.000,8325.000,-343.000,-701.000,1180.000,NA,0.000,0
2026-01-30 21:40:02,536805,1190.000,-1270.000,8278.000,299.000,-495.000,1086.000,NA,0.000,0
2026-01-30 21:40:02,536844,1172.000,-488.000,8244.000,614.000,-115.000,1063.000,NA,0.000,0
2026-01-30 21:40:02,536884,1096.000,-612.000,8337.000,40.000,145.000,1220.000,NA,0.000,0
2026-01-30 21:40:02,536926,863.000,-924.000,8538.000,36.000,365.000,1366.000,NA,0.000,0
2026-01-30 21:40:02,536964,765.000,-936.000,8502.000,85.000,323.000,1351.000,NA,0.000,0
2026-01-30 21:40:02,537004,765.000,-999.000,8602.000,75.000,122.000,1298.000,NA,0.000,0
2026-01-30 21:40:02,537044,747.000,-838.000,8693.000,117.000,89.000,1265.000,NA,0.000,0
2026-01-30 21:40:02,537084,834.000,-488.000,8554.000,536.000,123.000,1182.000,NA,0.000,0
2026-01-30 21:40:02,537124,794.000,-161.000,8556.000,431.000,229.000,1145.000,NA,0.000,0
2026-01-30 21:40:02,537164,653.000,-587.000,8772.000,22.000,331.000,1120.000,NA,0.000,0
2026-01-30 21:40:02,537204,566.000,-577.000,8778.000,255.000,299.000,1107.000,NA,0.000,0
2026-01-30 21:40:02,537244,576.000,-430.000,8611.000,221.000,127.000,1098.000,NA,0.000,0
2026-01-30 21:40:03,537284,798.000,-598.000,8529.000,-117.000,-94.000,1169.000,NA,0.000,0
2026-01-30 21:40:03,537324,1029.000,-878.000,8641.000,-275.000,-67.000,1170.000,NA,0.000,0
2026-01-30 21:40:03,537364,989.000,-966.000,8769.000,32.000,141.000,1102.000,NA,0.000,0
2026-01-30 21:40:03,537404,799.000,-611.000,8659.000,309.000,219.000,1056.000,NA,0.000,0
2026-01-30 21:40:03,537444,796.000,-708.000,8564.000,95.000,108.000,1077.000,NA,0.000,0
2026-01-30 21:40:03,537484,775.000,-757.000,8570.000,91.000,145.000,1010.000,NA,0.000,0
2026-01-30 21:40:03,537524,669.000,-772.000,8357.000,215.000,195.000,942.000,NA,0.000,0
2026-01-30 21:40:03,537564,571.000,-681.000,8113.000,308.000,177.000,878.000,NA,0.000,0
2026-01-30 21:40:03,537604,567.000,-371.000,8217.000,284.000,225.000,889.000,NA,0.000,0
2026-01-30 21:40:03,537644,499.000,-487.000,8309.000,45.000,347.000,904.000,NA,0.000,0
2026-01-30 21:40:03,537684,328.000,-510.000,8495.000,224.000,436.000,812.000,NA,0.000,0
2026-01-30 21:40:03,537724,279.000,-176.000,8928.000,420.000,436.000,815.000,NA,0.000,0
2026-01-30 21:40:03,537764,134.000,-15.000,9094.000,441.000,477.000,824.000,NA,0.000,0
2026-01-30 21:40:03,537804,-121.000,-39.000,8675.000,609.000,348.000,794.000,NA,0.000,0
2026-01-30 21:40:03,537844,233.000,101.000,8855.000,-354.000,-197.000,971.000,NA,0.000,0
2026-01-30 21:40:03,537884,530.000,-561.000,9022.000,-992.000,-318.000,1038.000,NA,0.000,0
2026-01-30 21:40:03,537924,722.000,-1073.000,8973.000,-717.000,-286.000,974.000,NA,0.000,0
2026-01-30 21:40:03,537964,696.000,-824.000,8464.000,-192.000,-313.000,893.000,NA,0.000,0
2026-01-30 21:40:03,538004,837.000,-769.000,8192.000,-357.000,-442.000,800.000,NA,0.000,0
2026-01-30 21:40:03,538044,936.000,-946.000,8609.000,-673.000,-287.000,819.000,NA,0.000,0
2026-01-30 21:40:03,538084,822.000,-1232.000,8686.000,-198.000,58.000,804.000,NA,0.000,0
2026-01-30 21:40:03,538124,455.000,-533.000,8325.000,817.000,367.000,669.000,NA,0.000,0
2026-01-30 21:40:03,538164,223.000,89.000,8374.000,669.000,313.000,686.000,NA,0.000,0
2026-01-30 21:40:03,538204,403.000,-526.000,9085.000,-422.000,199.000,865.000,NA,0.000,0
2026-01-30 21:40:03,538244,275.000,-807.000,8665.000,127.000,245.000,668.000,NA,0.000,0
2026-01-30 21:40:04,538284,185.000,-309.000,8532.000,389.000,25.000,589.000,NA,0.000,0
2026-01-30 21:40:04,538324,426.000,-362.000,8581.000,-90.000,-219.000,725.000,NA,0.000,0
2026-01-30 21:40:04,538364,346.000,-777.000,8278.000,-259.000,-118.000,676.000,NA,0.000,0
2026-01-30 21:40:04,538404,507.000,-830.000,8305.000,-246.000,-199.000,728.000,NA,0.000,0
2026-01-30 21:40:04,538444,947.000,-684.000,8789.000,-649.000,-423.000,867.000,NA,0.000,0
2026-01-30 21:40:04,538484,1424.000,-1523.000,9272.000,-1158.000,-297.000,898.000,NA,0.000,0
2026-01-30 21:40:04,538524,958.000,-1809.000,8567.000,326.000,193.000,582.000,NA,0.000,0
2026-01-30 21:40:04,538564,604.000,-278.000,8784.000,1730.000,271.000,312.000,NA,0.000,0
2026-01-30 21:40:04,538604,405.000,149.000,9079.000,100.000,455.000,725.000,NA,0.000,0
2026-01-30 21:40:04,538644,264.000,-965.000,8530.000,-21.000,557.000,655.000,NA,0.000,0
2026-01-30 21:40:04,538684,269.000,-638.000,8117.000,764.000,337.000,479.000,NA,0.000,0
2026-01-30 21:40:04,538724,458.000,21.000,8375.000,426.000,103.000,471.000,NA,0.000,0
2026-01-30 21:40:04,538783,489.000,-528.000,8418.000,-87.000,129.000,450.000,NA,0.000,0
2026-01-30 21:40:04,538804,564.000,-586.000,8567.000,65.000,157.000,477.000,NA,0.000,0
2026-01-30 21:40:04,538844,490.000,57.000,8673.000,519.000,308.000,544.000,NA,0.000,0
2026-01-30 21:40:04,538885,22.000,124.000,8374.000,794.000,451.000,430.000,NA,0.000,0
2026-01-30 21:40:04,538927,-62.000,959.000,8664.000,496.000,228.000,602.000,NA,0.000,0
2026-01-30 21:40:04,538964,345.000,452.000,9163.000,-1031.000,10.000,851.000,NA,0.000,0
2026-01-30 21:40:04,539004,554.000,-708.000,9275.000,-1717.000,-57.000,885.000,NA,0.000,0
2026-01-30 21:40:04,539044,796.000,-1479.000,9205.000,-1414.000,-404.000,776.000,NA,0.000,0
2026-01-30 21:40:04,539084,1078.000,-1525.000,8925.000,-772.000,-682.000,701.000,NA,0.000,0
2026-01-30 21:40:04,539124,1058.000,-1441.000,8119.000,-197.000,-566.000,503.000,NA,0.000,0
2026-01-30 21:40:04,539164,878.000,-870.000,7576.000,272.000,-486.000,344.000,NA,0.000,0
2026-01-30 21:40:04,539204,1208.000,-525.000,7891.000,-265.000,-562.000,531.000,NA,0.000,0
2026-01-30 21:40:04,539244,1437.000,-1015.000,8369.000,-601.000,-3.000,538.000,NA,0.000,0
2026-01-30 21:40:05,539284,922.000,-1173.000,8397.000,813.000,969.000,179.000,NA,0.000,0
2026-01-30 21:40:05,539324,339.000,305.000,8969.000,2701.000,1679.000,9.000,NA,0.000,0
2026-01-30 21:40:05,539364,-894.000,1763.000,8864.000,2230.000,1748.000,94.000,NA,0.000,0
2026-01-30 21:40:05,539404,-1250.000,1471.000,9085.000,814.000,1052.000,264.000,NA,0.000,0
2026-01-30 21:40:05,539444,-552.000,704.000,9196.000,-470.000,-61.000,421.000,NA,0.000,0
2026-01-30 21:40:05,539484,71.000,-34.000,8699.000,-419.000,-479.000,424.000,NA,0.000,0
2026-01-30 21:40:05,539524,233.000,67.000,8050.000,175.000,-538.000,254.000,NA,0.000,0
2026-01-30 21:40:05,539564,542.000,504.000,7993.000,-96.000,-521.000,304.000,NA,0.000,0
2026-01-30 21:40:05,539604,826.000,66.000,8406.000,-1252.000,-470.000,422.000,NA,0.000,0
2026-01-30 21:40:05,539644,1027.000,-1118.000,8606.000,-1463.000,-289.000,373.000,NA,0.000,0
2026-01-30 21:40:05,539684,699.000,-1065.000,8448.000,302.000,152.000,107.000,NA,0.000,0
2026-01-30 21:40:05,539724,37.000,984.000,8315.000,1455.000,398.000,44.000,NA,0.000,0
2026-01-30 21:40:05,539764,-217.000,998.000,8121.000,597.000,312.000,160.000,NA,0.000,0
2026-01-30 21:40:05,539804,-100.000,709.000,8308.000,168.000,226.000,228.000,NA,0.000,0
2026-01-30 21:40:05,539844,-16.000,822.000,8620.000,287.000,345.000,127.000,NA,0.000,0
2026-01-30 21:40:05,539884,-193.000,895.000,8603.000,471.000,450.000,-25.000,NA,0.000,0
2026-01-30 21:40:05,539924,-462.000,885.000,8455.000,433.000,379.000,-85.000,NA,0.000,0
2026-01-30 21:40:05,539964,-366.000,695.000,8394.000,155.000,12.000,-40.000,NA,0.000,0
2026-01-30 21:40:05,540004,-185.000,590.000,8409.000,-47.000,-207.000,70.000,NA,0.000,0
2026-01-30 21:40:05,540044,-48.000,442.000,8219.000,-18.000,-262.000,111.000,NA,0.000,0
2026-01-30 21:40:05,540084,14.000,567.000,8057.000,141.000,-271.000,117.000,NA,0.000,0
2026-01-30 21:40:05,540124,70.000,916.000,8082.000,162.000,-226.000,45.000,NA,0.000,0
2026-01-30 21:40:05,540164,185.000,969.000,8708.000,-89.000,-55.000,76.000,NA,0.000,0
2026-01-30 21:40:05,540204,-125.000,971.000,8826.000,-10.000,319.000,110.000,NA,0.000,0
2026-01-30 21:40:05,540244,-299.000,894.000,8786.000,39.000,201.000,135.000,NA,0.000,0
2026-01-30 21:40:06,540284,-47.000,997.000,8987.000,-144.000,-132.000,259.000,NA,0.000,0
2026-01-30 21:40:06,540324,226.000,700.000,9036.000,-487.000,-207.000,333.000,NA,0.000,0
2026-01-30 21:40:06,540364,-74.000,217.000,8127.000,-151.000,-61.000,183.000,NA,0.000,0
2026-01-30 21:40:06,540404,-65.000,313.000,7485.000,-68.000,-366.000,111.000,NA,0.000,0
2026-01-30 21:40:06,540444,283.000,372.000,7828.000,-700.000,-573.000,222.000,NA,0.000,0
2026-01-30 21:40:06,540484,627.000,-417.000,8876.000,-1305.000,-84.000,363.000,NA,0.000,0
2026-01-30 21:40:06,540524,371.000,-472.000,8653.000,160.000,367.000,250.000,NA,0.000,0
2026-01-30 21:40:06,540564,3.000,586.000,8415.000,1070.000,293.000,141.000,NA,0.000,0
2026-01-30 21:40:06,540604,44.000,836.000,8775.000,337.000,-10.000,178.000,NA,0.000,0
2026-01-30 21:40:06,540644,213.000,260.000,8858.000,38.000,-16.000,195.000,NA,0.000,0
2026-01-30 21:40:06,540684,133.000,334.000,8434.000,691.000,158.000,15.000,NA,0.000,0
2026-01-30 21:40:06,540724,83.000,941.000,8644.000,833.000,164.000,-19.000,NA,0.000,0
2026-01-30 21:40:06,540766,287.000,1012.000,8742.000,488.000,35.000,104.000,NA,0.000,0
2026-01-30 21:40:06,540805,169.000,523.000,8156.000,387.000,138.000,81.000,NA,0.000,0
2026-01-30 21:40:06,540844,-90.000,618.000,7790.000,812.000,253.000,-145.000,NA,0.000,0
2026-01-30 21:40:06,540884,-225.000,1533.000,7877.000,857.000,164.000,-95.000,NA,0.000,0
2026-01-30 21:40:06,540924,119.000,1480.000,8394.000,111.000,285.000,-45.000,NA,0.000,0
2026-01-30 21:40:06,540964,7.000,1152.000,8545.000,335.000,638.000,-59.000,NA,0.000,0
2026-01-30 21:40:06,541004,-437.000,1136.000,8282.000,605.000,768.000,-292.000,NA,0.000,0
2026-01-30 21:40:06,541044,-636.000,1376.000,8643.000,658.000,390.000,-159.000,NA,0.000,0
2026-01-30 21:40:06,541084,-560.000,1781.000,8616.000,433.000,-103.000,50.000,NA,0.000,0
2026-01-30 21:40:06,541124,-229.000,1284.000,8362.000,-143.000,-304.000,139.000,NA,0.000,0
2026-01-30 21:40:06,541164,187.000,1153.000,8564.000,-258.000,-396.000,208.000,NA,0.000,0
2026-01-30 21:40:06,541204,-34.000,1147.000,8334.000,-146.000,-117.000,13.000,NA,0.000,0
2026-01-30 21:40:06,541244,-402.000,1303.000,7537.000,433.000,-163.000,-43.000,NA,0.000,0
2026-01-30 21:40:07,541284,456.000,1561.000,8684.000,-827.000,-701.000,393.000,NA,0.000,0
2026-01-30 21:40:07,541324,482.000,898.000,8981.000,-1030.000,40.000,227.000,NA,0.000,0
2026-01-30 21:40:07,541364,-197.000,523.000,8062.000,621.000,348.000,-189.000,NA,0.000,0
2026-01-30 21:40:07,541404,-637.000,1941.000,7222.000,1816.000,-1.000,-162.000,NA,0.000,0
2026-01-30 21:40:07,541444,-460.000,2264.000,7947.000,-80.000,-260.000,6.000,NA,0.000,0
2026-01-30 21:40:07,541484,20.000,1829.000,9188.000,-1459.000,-155.000,280.000,NA,0.000,0
2026-01-30 21:40:07,541524,-322.000,209.000,8381.000,-914.000,47.000,162.000,NA,0.000,0
2026-01-30 21:40:07,541564,166.000,871.000,8307.000,5.000,-395.000,163.000,NA,0.000,0
2026-01-30 21:40:07,541604,202.000,1519.000,8162.000,-116.000,-547.000,242.000,NA,0.000,0
2026-01-30 21:40:07,541644,535.000,788.000,8650.000,-1072.000,-370.000,266.000,NA,0.000,0
2026-01-30 21:40:07,541684,599.000,367.000,8968.000,-1134.000,-215.000,352.000,NA,0.000,0
2026-01-30 21:40:07,541724,470.000,155.000,8793.000,-359.000,-56.000,271.000,NA,0.000,0
2026-01-30 21:40:07,541764,399.000,589.000,8215.000,70.000,-237.000,253.000,NA,0.000,0
2026-01-30 21:40:07,541804,272.000,609.000,7585.000,234.000,-252.000,205.000,NA,0.000,0
2026-01-30 21:40:07,541844,239.000,1190.000,7802.000,-113.000,-124.000,126.000,NA,0.000,0
2026-01-30 21:40:07,541884,518.000,425.000,9158.000,-1467.000,111.000,434.000,NA,0.000,0
2026-01-30 21:40:07,541924,527.000,-41.000,9125.000,-652.000,355.000,450.000,NA,0.000,0
2026-01-30 21:40:07,541964,316.000,281.000,8513.000,227.000,128.000,155.000,NA,0.000,0
2026-01-30 21:40:07,542004,522.000,763.000,8438.000,270.000,-361.000,177.000,NA,0.000,0
2026-01-30 21:40:07,542044,846.000,295.000,8992.000,-494.000,-166.000,182.000,NA,0.000,0
2026-01-30 21:40:07,542084,549.000,131.000,8626.000,61.000,171.000,25.000,NA,0.000,0
2026-01-30 21:40:07,542124,545.000,534.000,8734.000,674.000,222.000,-29.000,NA,0.000,0
2026-01-30 21:40:07,542164,316.000,1244.000,8642.000,675.000,187.000,-17.000,NA,0.000,0
2026-01-30 21:40:07,542204,171.000,649.000,8084.000,409.000,191.000,1.000,NA,0.000,0
2026-01-30 21:40:07,542244,47.000,1235.000,7897.000,735.000,247.000,-120.000,NA,0.000,0
2026-01-30 21:40:08,542284,222.000,774.000,8599.000,-425.000,226.000,10.000,NA,0.000,0
2026-01-30 21:40:08,542324,397.000,692.000,8848.000,-266.000,153.000,74.000,NA,0.000,0
2026-01-30 21:40:08,542364,538.000,645.000,8682.000,231.000,141.000,-76.000,NA,0.000,0
2026-01-30 21:40:08,542404,82.000,1295.000,8153.000,739.000,116.000,-242.000,NA,0.000,0
2026-01-30 21:40:08,542444,-169.000,1303.000,8085.000,469.000,63.000,-272.000,NA,0.000,0
2026-01-30 21:40:08,542484,14.000,1386.000,8323.000,133.000,0.000,-91.000,NA,0.000,0
2026-01-30 21:40:08,542524,249.000,1296.000,8961.000,-54.000,267.000,8.000,NA,0.000,0
2026-01-30 21:40:08,542564,-51.000,1300.000,9001.000,260.000,474.000,-52.000,NA,0.000,0
2026-01-30 21:40:08,542604,-72.000,1122.000,8239.000,378.000,93.000,18.000,NA,0.000,0
2026-01-30 21:40:08,542644,-126.000,1453.000,7725.000,293.000,-224.000,26.000,NA,0.000,0
2026-01-30 21:40:08,542684,372.000,997.000,8624.000,-1289.000,-340.000,184.000,NA,0.000,0
2026-01-30 21:40:08,542724,604.000,351.000,9031.000,-1423.000,-285.000,275.000,NA,0.000,0
2026-01-30 21:40:08,542766,710.000,304.000,8135.000,-257.000,-182.000,33.000,NA,0.000,0
2026-01-30 21:40:08,542805,353.000,1284.000,7587.000,989.000,-99.000,-147.000,NA,0.000,0
2026-01-30 21:40:08,542844,261.000,1550.000,8053.000,245.000,-58.000,-151.000,NA,0.000,0
2026-01-30 21:40:08,542884,547.000,1286.000,9213.000,-542.000,260.000,94.000,NA,0.000,0
2026-01-30 21:40:08,542926,241.000,963.000,9420.000,-78.000,851.000,10.000,NA,0.000,0
2026-01-30 21:40:08,542964,-368.000,1160.000,8662.000,828.000,565.000,-187.000,NA,0.000,0
2026-01-30 21:40:08,543004,-90.000,1511.000,8024.000,885.000,-231.000,-49.000,NA,0.000,0
2026-01-30 21:40:08,543044,216.000,1918.000,7814.000,329.000,-347.000,11.000,NA,0.000,0
2026-01-30 21:40:08,543084,799.000,1075.000,8691.000,-1076.000,-175.000,159.000,NA,0.000,0
2026-01-30 21:40:08,543124,1332.000,889.000,9060.000,-664.000,-113.000,227.000,NA,0.000,0
2026-01-30 21:40:08,543164,1403.000,1072.000,8421.000,618.000,45.000,50.000,NA,0.000,0
2026-01-30 21:40:08,543204,822.000,1464.000,7400.000,1035.000,29.000,-151.000,NA,0.000,0
2026-01-30 21:40:08,543244,797.000,1912.000,7653.000,682.000,-167.000,-180.000,NA,0.000,0
2026-01-30 21:40:09,543284,1329.000,2111.000,9034.000,-430.000,45.000,92.000,NA,0.000,0
2026-01-30 21:40:09,543324,1044.000,1370.000,9088.000,-218.000,842.000,-30.000,NA,0.000,0
2026-01-30 21:40:09,543364,416.000,1525.000,8141.000,840.000,690.000,-309.000,NA,0.000,0
2026-01-30 21:40:09,543404,653.000,2175.000,7805.000,915.000,-143.000,-139.000,NA,0.000,0
2026-01-30 21:40:09,543444,1041.000,2394.000,7793.000,93.000,-409.000,31.000,NA,0.000,0
2026-01-30 21:40:09,543484,1345.000,1506.000,8491.000,-994.000,-91.000,112.000,NA,0.000,0
2026-01-30 21:40:09,543524,1299.000,875.000,8603.000,-680.000,147.000,63.000,NA,0.000,0
2026-01-30 21:40:09,543564,855.000,1294.000,8440.000,21.000,181.000,-201.000,NA,0.000,0
2026-01-30 21:40:09,543604,363.000,1506.000,7671.000,473.000,-36.000,-237.000,NA,0.000,0
2026-01-30 21:40:09,543644,425.000,1827.000,7573.000,565.000,-322.000,-123.000,NA,0.000,0
2026-01-30 21:40:09,543684,916.000,2019.000,8229.000,-13.000,-364.000,139.000,NA,0.000,0
2026-01-30 21:40:09,543724,1173.000,1695.000,8663.000,-228.000,182.000,76.000,NA,0.000,0
2026-01-30 21:40:09,543764,622.000,1491.000,8192.000,416.000,447.000,-190.000,NA,0.000,0
2026-01-30 21:40:09,543804,363.000,1565.000,8168.000,477.000,116.000,-179.000,NA,0.000,0
2026-01-30 21:40:09,543844,331.000,1812.000,7642.000,638.000,-56.000,-96.000,NA,0.000,0
2026-01-30 21:40:09,543884,526.000,2065.000,7972.000,279.000,-159.000,-18.000,NA,0.000,0
2026-01-30 21:40:09,543924,1081.000,1189.000,8219.000,-667.000,32.000,265.000,NA,0.000,0
2026-01-30 21:40:09,543964,611.000,880.000,7195.000,477.000,108.000,-295.000,NA,0.000,0
2026-01-30 21:40:09,544004,863.000,2170.000,8191.000,668.000,-176.000,-83.000,NA,0.000,0
2026-01-30 21:40:09,544044,1288.000,2601.000,9132.000,-612.000,-16.000,230.000,NA,0.000,0
2026-01-30 21:40:09,544084,681.000,1071.000,8285.000,-212.000,417.000,-72.000,NA,0.000,0
2026-01-30 21:40:09,544124,611.000,1468.000,7629.000,1061.000,-57.000,-48.000,NA,0.000,0
2026-01-30 21:40:09,544164,1165.000,3153.000,8250.000,892.000,-355.000,60.000,NA,0.000,0
2026-01-30 21:40:09,544204,1337.000,2358.000,8734.000,-336.000,2.000,59.000,NA,0.000,0
2026-01-30 21:40:09,544244,960.000,1390.000,7871.000,208.000,238.000,-73.000,NA,0.000,0
2026-01-30 21:40:10,544284,919.000,2008.000,7593.000,1169.000,-156.000,-109.000,NA,0.000,0
2026-01-30 21:40:10,544324,1522.000,2935.000,8225.000,183.000,-165.000,303.000,NA,0.000,0
2026-01-30 21:40:10,544364,1606.000,2225.000,8259.000,-430.000,125.000,104.000,NA,0.000,0
2026-01-30 21:40:10,544404,1049.000,1846.000,7885.000,-254.000,308.000,-113.000,NA,0.000,0
2026-01-30 21:40:10,544444,861.000,1697.000,8317.000,-472.000,23.000,-90.000,NA,0.000,0
2026-01-30 21:40:10,544484,865.000,2068.000,8302.000,-265.000,-41.000,-23.000,NA,0.000,0
2026-01-30 21:40:10,544524,765.000,1793.000,8180.000,-255.000,48.000,-88.000,NA,0.000,0
2026-01-30 21:40:10,544564,981.000,2103.000,8232.000,-58.000,-120.000,69.000,NA,0.000,0
2026-01-30 21:40:10,544604,789.000,1726.000,7441.000,120.000,-61.000,-119.000,NA,0.000,0
2026-01-30 21:40:10,544644,642.000,1600.000,7647.000,281.000,-2.000,-271.000,NA,0.000,0
2026-01-30 21:40:10,544684,648.000,2401.000,8491.000,706.000,501.000,-154.000,NA,0.000,0
2026-01-30 21:40:10,544724,300.000,2164.000,8060.000,881.000,576.000,-250.000,NA,0.000,0
2026-01-30 21:40:10,544766,251.000,2194.000,7828.000,952.000,258.000,-137.000,NA,0.000,0
2026-01-30 21:40:10,544805,177.000,2726.000,7992.000,662.000,70.000,-146.000,NA,0.000,0
2026-01-30 21:40:10,544845,148.000,2180.000,8458.000,-181.000,144.000,-183.000,NA,0.000,0
2026-01-30 21:40:10,544884,329.000,2305.000,8155.000,365.000,-79.000,-1.000,NA,0.000,0
2026-01-30 21:40:10,544924,611.000,2166.000,7805.000,148.000,-280.000,150.000,NA,0.000,0
2026-01-30 21:40:10,544964,754.000,1985.000,7325.000,29.000,-315.000,129.000,NA,0.000,0
2026-01-30 21:40:10,545004,804.000,2172.000,7849.000,-209.000,-261.000,17.000,NA,0.000,0
2026-01-30 21:40:10,545044,1007.000,2545.000,8832.000,-684.000,-29.000,166.000,NA,0.000,0
2026-01-30 21:40:10,545084,215.000,1791.000,7938.000,374.000,230.000,-165.000,NA,0.000,0
2026-01-30 21:40:10,545124,488.000,2540.000,7899.000,622.000,-253.000,-57.000,NA,0.000,0
2026-01-30 21:40:10,545164,877.000,2893.000,8312.000,65.000,-307.000,84.000,NA,0.000,0
2026-01-30 21:40:10,545204,847.000,2425.000,8050.000,140.000,23.000,-52.000,NA,0.000,0
2026-01-30 21:40:10,545244,919.000,2344.000,7833.000,356.000,-10.000,-45.000,NA,0.000,0
2026-01-30 21:40:11,545284,940.000,2620.000,7602.000,434.000,-44.000,-88.000,NA,0.000,0
2026-01-30 21:40:11,545324,726.000,2541.000,7199.000,641.000,-29.000,-202.000,NA,0.000,0
2026-01-30 21:40:11,545364,1397.000,3182.000,8192.000,28.000,-230.000,177.000,NA,0.000,0
2026-01-30 21:40:11,545404,1855.000,3006.000,8575.000,-677.000,-20.000,302.000,NA,0.000,0
2026-01-30 21:40:11,545444,1136.000,2039.000,7627.000,416.000,103.000,-267.000,NA,0.000,0
2026-01-30 21:40:11,545484,1013.000,3054.000,7733.000,632.000,-193.000,-139.000,NA,0.000,0
2026-01-30 21:40:11,545524,1318.000,3259.000,8038.000,-207.000,-159.000,79.000,NA,0.000,0
2026-01-30 21:40:11,545564,1386.000,2599.000,7997.000,-453.000,140.000,76.000,NA,0.000,0
2026-01-30 21:40:11,545604,1210.000,2519.000,7735.000,-74.000,196.000,-90.000,NA,0.000,0
2026-01-30 21:40:11,545644,1190.000,2698.000,7934.000,-184.000,34.000,-99.000,NA,0.000,0
2026-01-30 21:40:11,545684,1245.000,2520.000,8238.000,-621.000,45.000,-10.000,NA,0.000,0
2026-01-30 21:40:11,545724,1005.000,2127.000,8096.000,-564.000,266.000,-88.000,NA,0.000,0
2026-01-30 21:40:11,545764,687.000,2142.000,7844.000,-136.000,217.000,-216.000,NA,0.000,0
2026-01-30 21:40:11,545804,722.000,2509.000,7987.000,68.000,-27.000,-148.000,NA,0.000,0
2026-01-30 21:40:11,545844,830.000,2703.000,7961.000,132.000,105.000,-157.000,NA,0.000,0
2026-01-30 21:40:11,545884,616.000,2436.000,7881.000,99.000,274.000,-281.000,NA,0.000,0
2026-01-30 21:40:11,545924,376.000,2470.000,8116.000,2.000,331.000,-313.000,NA,0.000,0
2026-01-30 21:40:11,545964,188.000,2303.000,8206.000,-201.000,255.000,-199.000,NA,0.000,0
2026-01-30 21:40:11,546004,72.000,2036.000,8040.000,-156.000,86.000,-90.000,NA,0.000,0
2026-01-30 21:40:11,546044,233.000,2269.000,7901.000,59.000,-215.000,69.000,NA,0.000,0
2026-01-30 21:40:11,546084,542.000,2384.000,8090.000,-287.000,-329.000,159.000,NA,0.000,0
2026-01-30 21:40:11,546124,702.000,2163.000,8391.000,-677.000,-223.000,166.000,NA,0.000,0
2026-01-30 21:40:11,546164,605.000,1697.000,8578.000,-740.000,-75.000,49.000,NA,0.000,0
2026-01-30 21:40:11,546204,254.000,1874.000,8126.000,-41.000,-168.000,15.000,NA,0.000,0
2026-01-30 21:40:11,546244,578.000,2468.000,8139.000,159.000,-380.000,161.000,NA,0.000,0
2026-01-30 21:40:12,546284,760.000,2079.000,8413.000,-647.000,-271.000,238.000,NA,0.000,0
2026-01-30 21:40:12,546324,449.000,1081.000,7791.000,-240.000,-72.000,20.000,NA,0.000,0
2026-01-30 21:40:12,546364,467.000,1749.000,7387.000,720.000,-292.000,-27.000,NA,0.000,0
2026-01-30 21:40:12,546404,1066.000,2716.000,8052.000,285.000,-414.000,230.000,NA,0.000,0
2026-01-30 21:40:12,546444,1449.000,2416.000,9053.000,-713.000,97.000,252.000,NA,0.000,0
2026-01-30 21:40:12,546484,794.000,1543.000,8741.000,12.000,625.000,-130.000,NA,0.000,0
2026-01-30 21:40:12,546524,276.000,2252.000,8196.000,1355.000,242.000,-328.000,NA,0.000,0
2026-01-30 21:40:12,546564,693.000,3042.000,7816.000,1142.000,-430.000,44.000,NA,0.000,0
2026-01-30 21:40:12,546604,1314.000,2311.000,7531.000,-188.000,-303.000,267.000,NA,0.000,0
2026-01-30 21:40:12,546644,1476.000,2064.000,7648.000,-167.000,-132.000,146.000,NA,0.000,0
2026-01-30 21:40:12,546684,1739.000,2409.000,8032.000,-101.000,-143.000,142.000,NA,0.000,0
2026-01-30 21:40:12,546724,1574.000,2315.000,7893.000,-43.000,53.000,2.000,NA,0.000,0
2026-01-30 21:40:12,546766,1112.000,2504.000,7648.000,248.000,123.000,-138.000,NA,0.000,0
2026-01-30 21:40:12,546805,1055.000,2689.000,7753.000,19.000,-55.000,15.000,NA,0.000,0
2026-01-30 21:40:12,546844,1247.000,2537.000,7832.000,-153.000,-86.000,77.000,NA,0.000,0
2026-01-30 21:40:12,546884,1289.000,2444.000,7807.000,-35.000,28.000,-10.000,NA,0.000,0
2026-01-30 21:40:12,546926,1303.000,2596.000,7977.000,-8.000,36.000,-3.000,NA,0.000,0
2026-01-30 21:40:12,546964,1206.000,2295.000,7742.000,-71.000,58.000,-43.000,NA,0.000,0
2026-01-30 21:40:12,547004,1079.000,2337.000,7726.000,51.000,51.000,-54.000,NA,0.000,0
2026-01-30 21:40:12,547044,1279.000,2547.000,8095.000,-200.000,-13.000,81.000,NA,0.000,0
2026-01-30 21:40:12,547084,1210.000,2232.000,8275.000,-484.000,141.000,72.000,NA,0.000,0
2026-01-30 21:40:12,547124,902.000,1918.000,8268.000,-352.000,192.000,-59.000,NA,0.000,0
2026-01-30 21:40:12,547164,594.000,1952.000,8217.000,-139.000,150.000,-146.000,NA,0.000,0
2026-01-30 21:40:12,547204,297.000,2054.000,8174.000,170.000,159.000,-231.000,NA,0.000,0
2026-01-30 21:40:12,547244,226.000,2413.000,8149.000,591.000,132.000,-148.000,NA,0.000,0
2026-01-30 21:40:13,547284,421.000,2689.000,8097.000,405.000,1.000,34.000,NA,0.000,0
2026-01-30 21:40:13,547324,691.000,2324.000,8200.000,-220.000,-67.000,114.000,NA,0.000,0
2026-01-30 21:40:13,547364,647.000,1789.000,8233.000,-86.000,41.000,-27.000,NA,0.000,0
2026-01-30 21:40:13,547404,313.000,1997.000,8128.000,356.000,145.000,-131.000,NA,0.000,0
2026-01-30 21:40:13,547444,123.000,2395.000,8225.000,441.000,67.000,-81.000,NA,0.000,0
2026-01-30 21:40:13,547484,457.000,2540.000,8014.000,247.000,-170.000,162.000,NA,0.000,0
2026-01-30 21:40:13,547524,776.000,2209.000,7830.000,-96.000,-276.000,184.000,NA,0.000,0
2026-01-30 21:40:13,547564,945.000,1982.000,7979.000,-301.000,-240.000,120.000,NA,0.000,0
2026-01-30 21:40:13,547604,917.000,1931.000,8344.000,-350.000,-63.000,32.000,NA,0.000,0
2026-01-30 21:40:13,547644,806.000,2202.000,8274.000,193.000,17.000,36.000,NA,0.000,0
2026-01-30 21:40:13,547684,686.000,2462.000,7672.000,512.000,-126.000,39.000,NA,0.000,0
2026-01-30 21:40:13,547724,906.000,2572.000,7876.000,291.000,-302.000,0.000,NA,0.000,0
2026-01-30 21:40:13,547764,1076.000,2595.000,8004.000,136.000,-85.000,54.000,NA,0.000,0
2026-01-30 21:40:13,547804,864.000,2348.000,7780.000,187.000,91.000,-26.000,NA,0.000,0
2026-01-30 21:40:13,547844,680.000,2264.000,7784.000,59.000,-60.000,-44.000,NA,0.000,0
2026-01-30 21:40:13,547884,707.000,2221.000,7955.000,-81.000,-305.000,52.000,NA,0.000,0
2026-01-30 21:40:13,547924,844.000,2208.000,7798.000,67.000,-390.000,158.000,NA,0.000,0
2026-01-30 21:40:13,547964,1220.000,2610.000,7821.000,237.000,-466.000,196.000,NA,0.000,0
2026-01-30 21:40:13,548004,1642.000,2805.000,7966.000,87.000,-443.000,264.000,NA,0.000,0
2026-01-30 21:40:13,548044,1616.000,2537.000,8075.000,-178.000,-125.000,37.000,NA,0.000,0
2026-01-30 21:40:13,548084,1332.000,2301.000,8264.000,-72.000,194.000,-86.000,NA,0.000,0
2026-01-30 21:40:13,548124,1181.000,2705.000,8217.000,158.000,204.000,-41.000,NA,0.000,0
2026-01-30 21:40:13,548164,1175.000,2660.000,8143.000,30.000,161.000,-23.000,NA,0.000,0
2026-01-30 21:40:13,548204,1104.000,2644.000,8208.000,-51.000,196.000,-119.000,NA,0.000,0
2026-01-30 21:40:13,548244,952.000,2596.000,8365.000,-9.000,283.000,-227.000,NA,0.000,0
2026-01-30 21:40:14,548284,741.000,2599.000,8080.000,221.000,298.000,-207.000,NA,0.000,0
2026-01-30 21:40:14,548324,677.000,2582.000,7808.000,135.000,189.000,-162.000,NA,0.000,0
2026-01-30 21:40:14,548364,1038.000,2583.000,7969.000,-72.000,-34.000,27.000,NA,0.000,0
2026-01-30 21:40:14,548404,1758.000,3156.000,8337.000,315.000,-185.000,252.000,NA,0.000,0
2026-01-30 21:40:14,548444,2280.000,3533.000,7872.000,522.000,181.000,248.000,NA,0.000,0
2026-01-30 21:40:14,548484,1108.000,2142.000,7239.000,-54.000,472.000,-58.000,NA,0.000,0
2026-01-30 21:40:14,548524,173.000,1671.000,7943.000,-1263.000,543.000,-551.000,NA,0.000,0
2026-01-30 21:40:14,548564,-442.000,1462.000,7916.000,-1372.000,132.000,-859.000,NA,0.000,0
2026-01-30 21:40:14,548604,-1189.000,1255.000,7689.000,-724.000,118.000,-430.000,NA,0.000,0
2026-01-30 21:40:14,548644,-841.000,1668.000,7726.000,97.000,-573.000,318.000,NA,0.000,0
2026-01-30 21:40:14,548684,643.000,2976.000,7859.000,564.000,-1724.000,998.000,NA,0.000,0
2026-01-30 21:40:14,548724,1757.000,2315.000,7418.000,-356.000,-1603.000,967.000,NA,0.000,0
2026-01-30 21:40:14,548766,1736.000,1430.000,7664.000,-686.000,-617.000,392.000,NA,0.000,0
2026-01-30 21:40:14,548805,1360.000,1398.000,8431.000,-274.000,163.000,-1.000,NA,0.000,0
2026-01-30 21:40:14,548844,1065.000,1902.000,8835.000,248.000,414.000,-59.000,NA,0.000,0
2026-01-30 21:40:14,548884,831.000,2229.000,8045.000,741.000,125.000,-43.000,NA,0.000,0
2026-01-30 21:40:14,548924,895.000,2743.000,8134.000,599.000,63.000,-234.000,NA,0.000,0
2026-01-30 21:40:14,548964,770.000,2582.000,8474.000,18.000,442.000,-380.000,NA,0.000,0
2026-01-30 21:40:14,549004,333.000,2167.000,8610.000,122.000,859.000,-475.000,NA,0.000,0
2026-01-30 21:40:14,549044,52.000,2368.000,8527.000,554.000,904.000,-422.000,NA,0.000,0
2026-01-30 21:40:14,549084,-29.000,2541.000,8171.000,518.000,523.000,-237.000,NA,0.000,0
2026-01-30 21:40:14,549124,131.000,2211.000,7744.000,-82.000,113.000,-48.000,NA,0.000,0
2026-01-30 21:40:14,549164,103.000,1862.000,7569.000,-464.000,13.000,-24.000,NA,0.000,0
2026-01-30 21:40:14,549204,-12.000,1650.000,7553.000,-595.000,28.000,-15.000,NA,0.000,0
2026-01-30 21:40:14,549244,17.000,1634.000,7800.000,-632.000,-75.000,102.000,NA,0.000,0
2026-01-30 21:40:15,549284,339.000,1746.000,8150.000,-700.000,-199.000,220.000,NA,0.000,0
2026-01-30 21:40:15,549324,348.000,1510.000,8216.000,-696.000,-187.000,188.000,NA,0.000,0
2026-01-30 21:40:15,549364,352.000,1535.000,8560.000,-392.000,-266.000,141.000,NA,0.000,0
2026-01-30 21:40:15,549404,653.000,1939.000,8867.000,-77.000,-325.000,220.000,NA,0.000,0
2026-01-30 21:40:15,549444,644.000,1924.000,8790.000,111.000,-108.000,90.000,NA,0.000,0
2026-01-30 21:40:15,549484,438.000,2022.000,8617.000,345.000,42.000,-73.000,NA,0.000,0
2026-01-30 21:40:15,549524,290.000,1993.000,8433.000,269.000,13.000,-93.000,NA,0.000,0
2026-01-30 21:40:15,549564,417.000,1993.000,8460.000,203.000,-48.000,-32.000,NA,0.000,0
2026-01-30 21:40:15,549604,544.000,2050.000,8453.000,279.000,15.000,5.000,NA,0.000,0
2026-01-30 21:40:15,549644,357.000,2054.000,8080.000,375.000,142.000,-116.000,NA,0.000,0
2026-01-30 21:40:15,549684,414.000,2187.000,8241.000,290.000,41.000,-97.000,NA,0.000,0
2026-01-30 21:40:15,549724,443.000,2207.000,8174.000,194.000,111.000,-93.000,NA,0.000,0
2026-01-30 21:40:15,549764,180.000,2031.000,7973.000,124.000,217.000,-189.000,NA,0.000,0
2026-01-30 21:40:15,549804,181.000,2182.000,8080.000,34.000,75.000,-74.000,NA,0.000,0
2026-01-30 21:40:15,549844,368.000,2152.000,8188.000,-303.000,-60.000,109.000,NA,0.000,0
2026-01-30 21:40:15,549884,449.000,1835.000,8165.000,-514.000,-113.000,137.000,NA,0.000,0
2026-01-30 21:40:15,549924,422.000,1628.000,8010.000,-330.000,-198.000,103.000,NA,0.000,0
2026-01-30 21:40:15,549964,422.000,1889.000,8017.000,-210.000,-263.000,84.000,NA,0.000,0
2026-01-30 21:40:15,550004,558.000,1879.000,8534.000,-480.000,-278.000,121.000,NA,0.000,0
2026-01-30 21:40:15,550044,1157.000,2219.000,9332.000,67.000,-212.000,137.000,NA,0.000,0
2026-01-30 21:40:15,550084,1478.000,3062.000,9621.000,782.000,-120.000,158.000,NA,0.000,0
2026-01-30 21:40:15,550124,1442.000,2838.000,8749.000,675.000,-136.000,112.000,NA,0.000,0
2026-01-30 21:40:15,550164,532.000,1986.000,7705.000,243.000,-161.000,-227.000,NA,0.000,0
2026-01-30 21:40:15,550204,-52.000,1443.000,7036.000,197.000,-434.000,-227.000,NA,0.000,0
2026-01-30 21:40:15,550244,136.000,1751.000,6761.000,249.000,-665.000,41.000,NA,0.000,0
2026-01-30 21:40:16,550284,554.000,1744.000,6703.000,-349.000,-528.000,311.000,NA,0.000,0
2026-01-30 21:40:16,550324,674.000,1243.000,6556.000,-963.000,-81.000,273.000,NA,0.000,0
2026-01-30 21:40:16,550364,282.000,775.000,6309.000,-959.000,322.000,-40.000,NA,0.000,0
2026-01-30 21:40:16,550404,35.000,1418.000,7910.000,-1458.000,484.000,-102.000,NA,0.000,0
2026-01-30 21:40:16,550444,477.000,1500.000,9963.000,-1910.000,663.000,92.000,NA,0.000,0
2026-01-30 21:40:16,550484,405.000,1037.000,9497.000,-527.000,852.000,184.000,NA,0.000,0
2026-01-30 21:40:16,550524,222.000,1307.000,8925.000,306.000,-12.000,38.000,NA,0.000,0
2026-01-30 21:40:16,550564,235.000,1481.000,9605.000,1.000,-529.000,-4.000,NA,0.000,0
2026-01-30 21:40:16,550604,400.000,1414.000,9899.000,250.000,-188.000,-66.000,NA,0.000,0
2026-01-30 21:40:16,550644,-10.000,1742.000,9110.000,1148.000,311.000,-253.000,NA,0.000,0
2026-01-30 21:40:16,550684,-140.000,2381.000,8300.000,1435.000,47.000,-168.000,NA,0.000,0
2026-01-30 21:40:16,550724,119.000,2432.000,7953.000,641.000,-402.000,-8.000,NA,0.000,0
2026-01-30 21:40:16,550766,639.000,1930.000,8122.000,-122.000,-445.000,150.000,NA,0.000,0
2026-01-30 21:40:16,550805,779.000,1353.000,8209.000,-611.000,117.000,96.000,NA,0.000,0
2026-01-30 21:40:16,550844,447.000,872.000,8297.000,-668.000,269.000,-60.000,NA,0.000,0
2026-01-30 21:40:16,550884,68.000,1051.000,8404.000,-176.000,223.000,-203.000,NA,0.000,0
2026-01-30 21:40:16,550926,-154.000,1434.000,8267.000,141.000,63.000,-152.000,NA,0.000,0
2026-01-30 21:40:16,550964,-228.000,1606.000,8168.000,-1.000,-36.000,-78.000,NA,0.000,0
2026-01-30 21:40:16,551004,-254.000,1357.000,8171.000,-352.000,-98.000,-68.000,NA,0.000,0
2026-01-30 21:40:16,551044,-251.000,1058.000,8238.000,-473.000,-112.000,-29.000,NA,0.000,0
2026-01-30 21:40:16,551084,-259.000,933.000,8364.000,-453.000,-89.000,26.000,NA,0.000,0
2026-01-30 21:40:16,551124,-216.000,839.000,8385.000,-269.000,-98.000,73.000,NA,0.000,0
2026-01-30 21:40:16,551164,-326.000,908.000,8299.000,150.000,-52.000,-8.000,NA,0.000,0
2026-01-30 21:40:16,551204,-423.000,1127.000,8345.000,193.000,-30.000,-88.000,NA,0.000,0
2026-01-30 21:40:16,551244,-504.000,1109.000,8469.000,104.000,6.000,-93.000,NA,0.000,0
2026-01-30 21:40:17,551284,-517.000,1144.000,8514.000,93.000,32.000,-29.000,NA,0.000,0
2026-01-30 21:40:17,551324,-484.000,1212.000,8513.000,90.000,28.000,-6.000,NA,0.000,0
2026-01-30 21:40:17,551364,-469.000,1149.000,8573.000,-35.000,-8.000,9.000,NA,0.000,0
2026-01-30 21:40:17,551404,-477.000,1007.000,8614.000,-91.000,-28.000,17.000,NA,0.000,0
2026-01-30 21:40:17,551444,-405.000,1000.000,8655.000,-79.000,-79.000,49.000,NA,0.000,0
2026-01-30 21:40:17,551484,-283.000,927.000,8611.000,-177.000,-63.000,37.000,NA,0.000,0
2026-01-30 21:40:17,551524,-375.000,772.000,8501.000,-146.000,-26.000,-23.000,NA,0.000,0
2026-01-30 21:40:17,551564,-501.000,794.000,8195.000,150.000,-48.000,-108.000,NA,0.000,0
2026-01-30 21:40:17,551604,-532.000,1064.000,8274.000,269.000,-35.000,-105.000,NA,0.000,0
2026-01-30 21:40:17,551644,-499.000,1212.000,8537.000,94.000,97.000,-72.000,NA,0.000,0
2026-01-30 21:40:17,551684,-715.000,1210.000,8653.000,115.000,256.000,-58.000,NA,0.000,0
2026-01-30 21:40:17,551724,-780.000,1170.000,8429.000,27.000,74.000,-11.000,NA,0.000,0
2026-01-30 21:40:17,551764,-621.000,1080.000,8391.000,-84.000,-187.000,43.000,NA,0.000,0
2026-01-30 21:40:17,551804,-414.000,933.000,8390.000,-321.000,-211.000,40.000,NA,0.000,0
2026-01-30 21:40:17,551844,-387.000,640.000,8558.000,-254.000,-85.000,-33.000,NA,0.000,0
2026-01-30 21:40:17,551884,-452.000,964.000,8660.000,243.000,18.000,-19.000,NA,0.000,0
2026-01-30 21:40:17,551924,-496.000,1308.000,8481.000,378.000,48.000,94.000,NA,0.000,0
2026-01-30 21:40:17,551964,-524.000,1013.000,8468.000,-137.000,4.000,126.000,NA,0.000,0
2026-01-30 21:40:17,552004,-502.000,762.000,8704.000,-269.000,5.000,169.000,NA,0.000,0
2026-01-30 21:40:17,552044,-566.000,488.000,8482.000,30.000,-9.000,205.000,NA,0.000,0
2026-01-30 21:40:17,552084,-317.000,883.000,8349.000,332.000,-199.000,137.000,NA,0.000,0
2026-01-30 21:40:17,552124,-90.000,1055.000,8590.000,-109.000,-213.000,31.000,NA,0.000,0
2026-01-30 21:40:17,552164,-295.000,678.000,8419.000,14.000,15.000,-192.000,NA,0.000,0
2026-01-30 21:40:17,552204,-570.000,937.000,8169.000,631.000,115.000,-300.000,NA,0.000,0
2026-01-30 21:40:17,552244,-696.000,1544.000,8291.000,568.000,144.000,-210.000,NA,0.000,0
2026-01-30 21:40:18,552284,-733.000,1506.000,8496.000,-52.000,101.000,-50.000,NA,0.000,0
2026-01-30 21:40:18,552324,-620.000,1094.000,8445.000,-24.000,64.000,-1.000,NA,0.000,0
2026-01-30 21:40:18,552364,-575.000,1264.000,8300.000,13.000,-133.000,-5.000,NA,0.000,0
2026-01-30 21:40:18,552404,-348.000,1245.000,8446.000,-251.000,-300.000,43.000,NA,0.000,0
2026-01-30 21:40:18,552444,-210.000,1061.000,8622.000,-345.000,-102.000,81.000,NA,0.000,0
2026-01-30 21:40:18,552484,-394.000,999.000,8547.000,-215.000,153.000,30.000,NA,0.000,0
2026-01-30 21:40:18,552524,-615.000,966.000,8426.000,-160.000,22.000,-19.000,NA,0.000,0
2026-01-30 21:40:18,552564,-327.000,1008.000,8606.000,-204.000,-312.000,90.000,NA,0.000,0
2026-01-30 21:40:18,552604,-72.000,990.000,8653.000,-287.000,-239.000,76.000,NA,0.000,0
2026-01-30 21:40:18,552644,-188.000,642.000,8506.000,-279.000,-38.000,-38.000,NA,0.000,0
2026-01-30 21:40:18,552684,-347.000,844.000,8427.000,-27.000,-63.000,-63.000,NA,0.000,0
2026-01-30 21:40:18,552724,-282.000,921.000,8328.000,161.000,-184.000,-7.000,NA,0.000,0
2026-01-30 21:40:18,552766,-141.000,1225.000,8306.000,268.000,-105.000,3.000,NA,0.000,0
2026-01-30 21:40:18,552805,-182.000,1291.000,8321.000,240.000,14.000,-39.000,NA,0.000,0
2026-01-30 21:40:18,552844,-390.000,1225.000,8293.000,260.000,188.000,-130.000,NA,0.000,0
2026-01-30 21:40:18,552884,-559.000,1452.000,8453.000,382.000,158.000,-131.000,NA,0.000,0
2026-01-30 21:40:18,552926,-384.000,1543.000,8774.000,-59.000,24.000,75.000,NA,0.000,0
2026-01-30 21:40:18,552964,-344.000,881.000,8347.000,-342.000,-2.000,108.000,NA,0.000,0
2026-01-30 21:40:18,553004,-248.000,700.000,8319.000,-135.000,-216.000,32.000,NA,0.000,0
2026-01-30 21:40:18,553044,97.000,1035.000,8604.000,-13.000,-320.000,110.000,NA,0.000,0
2026-01-30 21:40:18,553084,293.000,982.000,8273.000,108.000,-53.000,70.000,NA,0.000,0
2026-01-30 21:40:18,553124,-47.000,700.000,8046.000,119.000,145.000,-119.000,NA,0.000,0
2026-01-30 21:40:18,553164,-229.000,1112.000,8470.000,326.000,187.000,-108.000,NA,0.000,0
2026-01-30 21:40:18,553204,-403.000,1481.000,8571.000,263.000,236.000,-23.000,NA,0.000,0
2026-01-30 21:40:18,553244,-333.000,1077.000,8271.000,-47.000,75.000,130.000,NA,0.000,0
2026-01-30 21:40:19,553284,-18.000,1154.000,8454.000,-149.000,-137.000,107.000,NA,0.000,0
2026-01-30 21:40:19,553324,45.000,987.000,8617.000,-113.000,-57.000,56.000,NA,0.000,0
2026-01-30 21:40:19,553364,-238.000,1087.000,8233.000,282.000,76.000,-82.000,NA,0.000,0
2026-01-30 21:40:19,553404,-268.000,1286.000,8241.000,189.000,-102.000,-8.000,NA,0.000,0
2026-01-30 21:40:19,553444,-129.000,1345.000,8532.000,-14.000,-110.000,128.000,NA,0.000,0
2026-01-30 21:40:19,553484,-132.000,1130.000,8158.000,21.000,-36.000,119.000,NA,0.000,0
2026-01-30 21:40:19,553524,-20.000,1198.000,7986.000,61.000,-217.000,78.000,NA,0.000,0
2026-01-30 21:40:19,553564,267.000,1272.000,8659.000,-320.000,-178.000,169.000,NA,0.000,0
2026-01-30 21:40:19,553604,153.000,849.000,9130.000,-476.000,267.000,131.000,NA,0.000,0
2026-01-30 21:40:19,553644,-375.000,761.000,8397.000,353.000,250.000,-10.000,NA,0.000,0
2026-01-30 21:40:19,553684,-128.000,1379.000,8009.000,404.000,-344.000,106.000,NA,0.000,0
2026-01-30 21:40:19,553724,324.000,1093.000,8028.000,-302.000,-410.000,178.000,NA,0.000,0
2026-01-30 21:40:19,553764,217.000,714.000,7879.000,-205.000,-8.000,-15.000,NA,0.000,0
2026-01-30 21:40:19,553804,350.000,1040.000,8804.000,-90.000,123.000,18.000,NA,0.000,0
2026-01-30 21:40:19,553844,-128.000,1044.000,8810.000,503.000,548.000,-54.000,NA,0.000,0
2026-01-30 21:40:19,553884,-607.000,1262.000,7856.000,1310.000,13.000,-198.000,NA,0.000,0
2026-01-30 21:40:19,553924,-88.000,2353.000,8105.000,1042.000,-490.000,23.000,NA,0.000,0
2026-01-30 21:40:19,553964,119.000,2004.000,8490.000,-360.000,-109.000,26.000,NA,0.000,0
2026-01-30 21:40:19,554004,-172.000,1008.000,8276.000,-218.000,235.000,-41.000,NA,0.000,0
2026-01-30 21:40:19,554044,-119.000,1354.000,7951.000,234.000,-88.000,78.000,NA,0.000,0
2026-01-30 21:40:19,554084,132.000,1666.000,7938.000,-113.000,-374.000,168.000,NA,0.000,0
2026-01-30 21:40:19,554124,336.000,1269.000,8237.000,-496.000,-287.000,161.000,NA,0.000,0
2026-01-30 21:40:19,554164,280.000,1319.000,8548.000,-184.000,-12.000,59.000,NA,0.000,0
2026-01-30 21:40:19,554204,-24.000,1438.000,8646.000,-30.000,60.000,-32.000,NA,0.000,0
2026-01-30 21:40:19,554244,101.000,1356.000,8487.000,-89.000,-262.000,98.000,NA,0.000,0
2026-01-30 21:40:20,554284,359.000,1329.000,8111.000,-160.000,-464.000,133.000,NA,0.000,0
2026-01-30 21:40:20,554324,703.000,1018.000,8076.000,-488.000,-496.000,113.000,NA,0.000,0
2026-01-30 21:40:20,554364,848.000,872.000,8398.000,-208.000,-226.000,-20.000,NA,0.000,0
2026-01-30 21:40:20,554404,702.000,1504.000,8372.000,699.000,10.000,-139.000,NA,0.000,0
2026-01-30 21:40:20,554444,591.000,1884.000,7951.000,954.000,-40.000,-155.000,NA,0.000,0
2026-01-30 21:40:20,554484,696.000,2162.000,7856.000,845.000,-108.000,-102.000,NA,0.000,0
2026-01-30 21:40:20,554524,719.000,2311.000,7843.000,590.000,10.000,-101.000,NA,0.000,0
2026-01-30 21:40:20,554564,682.000,2141.000,7912.000,179.000,108.000,-160.000,NA,0.000,0
2026-01-30 21:40:20,554604,616.000,2027.000,8182.000,14.000,138.000,-136.000,NA,0.000,0
2026-01-30 21:40:20,554644,656.000,2071.000,8225.000,-44.000,4.000,-101.000,NA,0.000,0
2026-01-30 21:40:20,554684,866.000,2174.000,8349.000,-20.000,-168.000,-15.000,NA,0.000,0
2026-01-30 21:40:20,554724,972.000,2225.000,8068.000,29.000,-223.000,-38.000,NA,0.000,0
2026-01-30 21:40:20,554775,1125.000,1974.000,8053.000,-93.000,-264.000,-63.000,NA,0.000,0
2026-01-30 21:40:20,554804,1297.000,2101.000,8193.000,-45.000,-265.000,-25.000,NA,0.000,0
2026-01-30 21:40:20,554844,1330.000,2180.000,8056.000,-59.000,-114.000,-32.000,NA,0.000,0
