datetime_local,uptime_ms,acc_x,acc_y,acc_z,gyro_x,gyro_y,gyro_z,speed_mps,turn_rate_deg_s,gps_valid
2026-01-30 21:09:44,11765,-983.000,-3871.000,7801.000,178.000,-367.000,12.000,NA,0.000,0
2026-01-30 21:09:44,11806,-755.000,-4166.000,7404.000,132.000,-198.000,-9.000,NA,0.000,0
2026-01-30 21:09:44,11845,-988.000,-3837.000,7467.000,240.000,47.000,102.000,NA,0.000,0
2026-01-30 21:09:44,11885,-916.000,-3957.000,7477.000,34.000,-223.000,79.000,NA,0.000,0
2026-01-30 21:09:44,11925,-887.000,-3920.000,7549.000,152.000,-76.000,-51.000,NA,0.000,0
2026-01-30 21:09:44,11965,-891.000,-3965.000,7446.000,102.000,-122.000,21.000,NA,0.000,0
2026-01-30 21:09:44,12005,-935.000,-3893.000,7524.000,156.000,-165.000,25.000,NA,0.000,0
2026-01-30 21:09:44,12045,-920.000,-3950.000,7503.000,120.000,-123.000,-38.000,NA,0.000,0
2026-01-30 21:09:44,12085,-850.000,-3977.000,7472.000,93.000,-190.000,-22.000,NA,0.000,0
2026-01-30 21:09:44,12125,-883.000,-3908.000,7515.000,135.000,-157.000,44.000,NA,0.000,0
2026-01-30 21:09:44,12165,-920.000,-3897.000,7554.000,78.000,-170.000,16.000,NA,0.000,0
2026-01-30 21:09:44,12207,-887.000,-3918.000,7518.000,77.000,-136.000,-12.000,NA,0.000,0
2026-01-30 21:09:44,12246,-885.000,-3913.000,7505.000,51.000,-170.000,17.000,NA,0.000,0
2026-01-30 21:09:44,12285,-884.000,-3904.000,7519.000,37.000,-174.000,22.000,NA,0.000,0
2026-01-30 21:09:44,12325,-864.000,-3948.000,7494.000,150.000,-184.000,10.000,NA,0.000,0
2026-01-30 21:09:44,12365,-902.000,-3902.000,7580.000,-3.000,-159.000,7.000,NA,0.000,0
2026-01-30 21:09:44,12405,-831.000,-3942.000,7521.000,82.000,-194.000,-20.000,NA,0.000,0
2026-01-30 21:09:44,12445,-930.000,-3899.000,7477.000,54.000,-62.000,-5.000,NA,0.000,0
2026-01-30 21:09:44,12485,-837.000,-3877.000,7574.000,151.000,-206.000,-14.000,NA,0.000,0
2026-01-30 21:09:44,12525,-941.000,-3787.000,7574.000,52.000,-78.000,-94.000,NA,0.000,0
2026-01-30 21:09:45,12565,-728.000,-4072.000,7499.000,-38.000,-266.000,-72.000,NA,0.000,0
2026-01-30 21:09:45,12608,-949.000,-3855.000,7531.000,172.000,-47.000,2.000,NA,0.000,0
2026-01-30 21:09:45,12645,-857.000,-3880.000,7587.000,113.000,-192.000,-9.000,NA,0.000,0
2026-01-30 21:09:45,12685,-879.000,-3863.000,7525.000,58.000,-109.000,-20.000,NA,0.000,0
2026-01-30 21:09:45,12725,-828.000,-3959.000,7506.000,59.000,-162.000,-39.000,NA,0.000,0
2026-01-30 21:09:45,12765,-859.000,-3897.000,7514.000,168.000,-95.000,25.000,NA,0.000,0
2026-01-30 21:09:45,12805,-881.000,-3836.000,7558.000,45.000,-221.000,60.000,NA,0.000,0
2026-01-30 21:09:45,12845,-849.000,-3915.000,7526.000,238.000,-164.000,-23.000,NA,0.000,0
2026-01-30 21:09:45,12885,-844.000,-3733.000,7606.000,364.000,-188.000,-92.000,NA,0.000,0
2026-01-30 21:09:45,12925,-901.000,-3772.000,7519.000,-9.000,-118.000,-44.000,NA,0.000,0
2026-01-30 21:09:45,12965,-813.000,-3875.000,7582.000,2.000,-144.000,-62.000,NA,0.000,0
2026-01-30 21:09:45,13005,-763.000,-3885.000,7587.000,127.000,-74.000,-12.000,NA,0.000,0
2026-01-30 21:09:45,13045,-969.000,-3866.000,7520.000,33.000,86.000,-39.000,NA,0.000,0
2026-01-30 21:09:45,13085,-912.000,-3932.000,7438.000,-13.000,-92.000,-39.000,NA,0.000,0
2026-01-30 21:09:45,13125,-921.000,-3839.000,7519.000,120.000,-41.000,-86.000,NA,0.000,0
2026-01-30 21:09:45,13165,-777.000,-3806.000,7625.000,91.000,-188.000,-68.000,NA,0.000,0
2026-01-30 21:09:45,13205,-789.000,-3785.000,7646.000,101.000,-102.000,-2.000,NA,0.000,0
2026-01-30 21:09:45,13245,-943.000,-3823.000,7516.000,-1.000,-156.000,38.000,NA,0.000,0
2026-01-30 21:09:45,13285,-884.000,-3929.000,7515.000,-67.000,-145.000,-20.000,NA,0.000,0
2026-01-30 21:09:45,13325,-882.000,-3942.000,7473.000,3.000,-181.000,4.000,NA,0.000,0
2026-01-30 21:09:45,13365,-892.000,-3883.000,7542.000,30.000,-171.000,28.000,NA,0.000,0
2026-01-30 21:09:45,13405,-821.000,-3881.000,7560.000,102.000,-198.000,-24.000,NA,0.000,0
2026-01-30 21:09:45,13445,-873.000,-3862.000,7553.000,34.000,-81.000,-33.000,NA,0.000,0
2026-01-30 21:09:45,13485,-880.000,-3855.000,7557.000,26.000,-145.000,21.000,NA,0.000,0
2026-01-30 21:09:45,13525,-829.000,-3862.000,7559.000,46.000,-136.000,-23.000,NA,0.000,0
2026-01-30 21:09:46,13565,-834.000,-3839.000,7562.000,66.000,-105.000,-32.000,NA,0.000,0
2026-01-30 21:09:46,13605,-866.000,-3859.000,7552.000,37.000,-161.000,-10.000,NA,0.000,0
2026-01-30 21:09:46,13645,-843.000,-3888.000,7538.000,16.000,-135.000,-45.000,NA,0.000,0
2026-01-30 21:09:46,13685,-840.000,-3881.000,7562.000,-33.000,-126.000,-5.000,NA,0.000,0
2026-01-30 21:09:46,13725,-869.000,-3939.000,7496.000,-42.000,-116.000,0.000,NA,0.000,0
2026-01-30 21:09:46,13765,-872.000,-3908.000,7516.000,68.000,-136.000,10.000,NA,0.000,0
2026-01-30 21:09:46,13805,-851.000,-3888.000,7563.000,41.000,-198.000,21.000,NA,0.000,0
2026-01-30 21:09:46,13845,-869.000,-3861.000,7528.000,65.000,-116.000,-22.000,NA,0.000,0
2026-01-30 21:09:46,13885,-827.000,-3926.000,7486.000,59.000,-248.000,-6.000,NA,0.000,0
2026-01-30 21:09:46,13925,-848.000,-3952.000,7513.000,26.000,-201.000,80.000,NA,0.000,0
2026-01-30 21:09:46,13965,-847.000,-3963.000,7499.000,117.000,-220.000,92.000,NA,0.000,0
2026-01-30 21:09:46,14005,-873.000,-3876.000,7579.000,40.000,-194.000,91.000,NA,0.000,0
2026-01-30 21:09:46,14045,-796.000,-3836.000,7576.000,4.000,-286.000,66.000,NA,0.000,0
2026-01-30 21:09:46,14085,-769.000,-3880.000,7486.000,53.000,-190.000,14.000,NA,0.000,0
2026-01-30 21:09:46,14125,-807.000,-3786.000,7534.000,94.000,-261.000,91.000,NA,0.000,0
2026-01-30 21:09:46,14165,-804.000,-3777.000,7716.000,-8.000,-376.000,24.000,NA,0.000,0
2026-01-30 21:09:46,14205,-876.000,-4027.000,7490.000,-97.000,29.000,-146.000,NA,0.000,0
2026-01-30 21:09:46,14245,-818.000,-3970.000,7529.000,-212.000,-210.000,-20.000,NA,0.000,0
2026-01-30 21:09:46,14285,-711.000,-3970.000,7501.000,-127.000,12.000,-78.000,NA,0.000,0
2026-01-30 21:09:46,14325,-837.000,-3906.000,7651.000,-213.000,157.000,-91.000,NA,0.000,0
2026-01-30 21:09:46,14365,-1036.000,-3824.000,7238.000,-116.000,32.000,-220.000,NA,0.000,0
2026-01-30 21:09:46,14405,-526.000,-4087.000,7676.000,118.000,-360.000,-366.000,NA,0.000,0
2026-01-30 21:09:46,14445,-765.000,-3747.000,6481.000,132.000,151.000,5.000,NA,0.000,0
2026-01-30 21:09:46,14485,-974.000,-4079.000,7903.000,-992.000,552.000,344.000,NA,0.000,0
2026-01-30 21:09:46,14525,-702.000,-4409.000,8096.000,-786.000,-63.000,-8.000,NA,0.000,0
2026-01-30 21:09:47,14565,-688.000,-4036.000,6320.000,362.000,-925.000,-32.000,NA,0.000,0
2026-01-30 21:09:47,14605,-1089.000,-3994.000,7205.000,140.000,-172.000,190.000,NA,0.000,0
2026-01-30 21:09:47,14645,-714.000,-4211.000,7642.000,442.000,-426.000,-164.000,NA,0.000,0
2026-01-30 21:09:47,14685,-764.000,-4158.000,7478.000,389.000,-78.000,119.000,NA,0.000,0
2026-01-30 21:09:47,14725,-1082.000,-3982.000,7396.000,163.000,-69.000,175.000,NA,0.000,0
2026-01-30 21:09:47,14765,-934.000,-4079.000,7431.000,-54.000,-102.000,-54.000,NA,0.000,0
2026-01-30 21:09:47,14805,-795.000,-4135.000,7293.000,190.000,-125.000,-51.000,NA,0.000,0
2026-01-30 21:09:47,14845,-833.000,-4071.000,7391.000,337.000,-289.000,88.000,NA,0.000,0
2026-01-30 21:09:47,14885,-814.000,-4022.000,7521.000,387.000,-343.000,130.000,NA,0.000,0
2026-01-30 21:09:47,14925,-892.000,-3933.000,7566.000,308.000,-66.000,72.000,NA,0.000,0
2026-01-30 21:09:47,14965,-983.000,-3981.000,7546.000,16.000,-178.000,72.000,NA,0.000,0
2026-01-30 21:09:47,15005,-879.000,-4076.000,7398.000,-79.000,-6.000,-124.000,NA,0.000,0
2026-01-30 21:09:47,15045,-875.000,-4013.000,7344.000,105.000,-211.000,8.000,NA,0.000,0
2026-01-30 21:09:47,15085,-785.000,-3985.000,7465.000,327.000,-250.000,6.000,NA,0.000,0
2026-01-30 21:09:47,15125,-867.000,-3929.000,7577.000,263.000,-140.000,-26.000,NA,0.000,0
2026-01-30 21:09:47,15165,-848.000,-3999.000,7558.000,227.000,-166.000,24.000,NA,0.000,0
2026-01-30 21:09:47,15205,-917.000,-3968.000,7519.000,66.000,-132.000,107.000,NA,0.000,0
2026-01-30 21:09:47,15245,-986.000,-3895.000,7411.000,33.000,-1.000,-54.000,NA,0.000,0
2026-01-30 21:09:47,15285,-851.000,-4009.000,7393.000,88.000,-154.000,-107.000,NA,0.000,0
2026-01-30 21:09:47,15325,-775.000,-3971.000,7519.000,264.000,-330.000,-35.000,NA,0.000,0
2026-01-30 21:09:47,15365,-791.000,-3881.000,7589.000,338.000,-106.000,-26.000,NA,0.000,0
2026-01-30 21:09:47,15405,-904.000,-3894.000,7611.000,101.000,-205.000,49.000,NA,0.000,0
2026-01-30 21:09:47,15445,-891.000,-3980.000,7500.000,14.000,-59.000,-31.000,NA,0.000,0
2026-01-30 21:09:47,15485,-929.000,-3909.000,7462.000,-154.000,-36.000,-19.000,NA,0.000,0
2026-01-30 21:09:47,15525,-837.000,-3949.000,7373.000,100.000,-202.000,-64.000,NA,0.000,0
2026-01-30 21:09:48,15565,-752.000,-3932.000,7544.000,210.000,-254.000,-31.000,NA,0.000,0
2026-01-30 21:09:48,15605,-830.000,-3823.000,7675.000,148.000,-111.000,-35.000,NA,0.000,0
2026-01-30 21:09:48,15645,-865.000,-3913.000,7579.000,-46.000,-129.000,-20.000,NA,0.000,0
2026-01-30 21:09:48,15685,-921.000,-4021.000,7440.000,-145.000,-55.000,-45.000,NA,0.000,0
2026-01-30 21:09:48,15725,-877.000,-3902.000,7474.000,-160.000,-49.000,-50.000,NA,0.000,0
2026-01-30 21:09:48,15765,-868.000,-4012.000,7394.000,-122.000,-145.000,-81.000,NA,0.000,0
2026-01-30 21:09:48,15805,-706.000,-3982.000,7580.000,192.000,-274.000,-90.000,NA,0.000,0
2026-01-30 21:09:48,15845,-769.000,-3893.000,7624.000,85.000,-75.000,0.000,NA,0.000,0
2026-01-30 21:09:48,15885,-966.000,-3912.000,7526.000,-90.000,-81.000,24.000,NA,0.000,0
2026-01-30 21:09:48,15925,-850.000,-4092.000,7463.000,-186.000,-85.000,-100.000,NA,0.000,0
2026-01-30 21:09:48,15965,-822.000,-4003.000,7374.000,-79.000,-59.000,-35.000,NA,0.000,0
2026-01-30 21:09:48,16005,-799.000,-3944.000,7452.000,112.000,-234.000,-17.000,NA,0.000,0
2026-01-30 21:09:48,16045,-706.000,-3968.000,7613.000,110.000,-160.000,-51.000,NA,0.000,0
2026-01-30 21:09:48,16085,-814.000,-3981.000,7578.000,163.000,-1.000,6.000,NA,0.000,0
2026-01-30 21:09:48,16125,-1120.000,-3981.000,7412.000,-13.000,63.000,6.000,NA,0.000,0
2026-01-30 21:09:48,16165,-795.000,-4131.000,7413.000,-206.000,-182.000,-150.000,NA,0.000,0
2026-01-30 21:09:48,16205,-720.000,-3987.000,7412.000,135.000,-12.000,-92.000,NA,0.000,0
2026-01-30 21:09:48,16245,-902.000,-3861.000,7428.000,198.000,-198.000,-33.000,NA,0.000,0
2026-01-30 21:09:48,16285,-762.000,-3984.000,7530.000,180.000,-368.000,-138.000,NA,0.000,0
2026-01-30 21:09:48,16325,-658.000,-4034.000,7614.000,103.000,-261.000,-12.000,NA,0.000,0
2026-01-30 21:09:48,16365,-907.000,-3933.000,7587.000,-55.000,-155.000,110.000,NA,0.000,0
2026-01-30 21:09:48,16405,-875.000,-4009.000,7440.000,-205.000,-87.000,-1.000,NA,0.000,0
2026-01-30 21:09:48,16445,-790.000,-4166.000,7283.000,-145.000,-251.000,39.000,NA,0.000,0
2026-01-30 21:09:48,16485,-836.000,-4024.000,7360.000,216.000,-268.000,70.000,NA,0.000,0
2026-01-30 21:09:48,16525,-689.000,-3990.000,7562.000,285.000,-383.000,18.000,NA,0.000,0
2026-01-30 21:09:49,16565,-749.000,-3974.000,7668.000,44.000,-156.000,97.000,NA,0.000,0
2026-01-30 21:09:49,16605,-819.000,-4035.000,7474.000,-171.000,-115.000,126.000,NA,0.000,0
2026-01-30 21:09:49,16645,-816.000,-4052.000,7400.000,-75.000,13.000,26.000,NA,0.000,0
2026-01-30 21:09:49,16685,-865.000,-4125.000,7235.000,109.000,-170.000,96.000,NA,0.000,0
2026-01-30 21:09:49,16725,-697.000,-3902.000,7497.000,326.000,-354.000,151.000,NA,0.000,0
2026-01-30 21:09:49,16765,-643.000,-3850.000,7661.000,303.000,-347.000,89.000,NA,0.000,0
2026-01-30 21:09:49,16805,-666.000,-3933.000,7693.000,17.000,-320.000,186.000,NA,0.000,0
2026-01-30 21:09:49,16845,-771.000,-3896.000,7712.000,-228.000,-156.000,233.000,NA,0.000,0
2026-01-30 21:09:49,16885,-860.000,-4076.000,7358.000,-386.000,179.000,86.000,NA,0.000,0
2026-01-30 21:09:49,16925,-1076.000,-4152.000,7137.000,-178.000,-173.000,120.000,NA,0.000,0
2026-01-30 21:09:49,16965,-694.000,-4098.000,7401.000,150.000,-448.000,-116.000,NA,0.000,0
2026-01-30 21:09:49,17005,-619.000,-4070.000,7578.000,385.000,-32.000,-105.000,NA,0.000,0
2026-01-30 21:09:49,17045,-881.000,-3822.000,7674.000,83.000,32.000,9.000,NA,0.000,0
2026-01-30 21:09:49,17085,-820.000,-4115.000,7423.000,-170.000,102.000,-127.000,NA,0.000,0
2026-01-30 21:09:49,17125,-916.000,-3962.000,7448.000,-84.000,20.000,-172.000,NA,0.000,0
2026-01-30 21:09:49,17165,-942.000,-3941.000,7333.000,-153.000,-312.000,-254.000,NA,0.000,0
2026-01-30 21:09:49,17205,-379.000,-4360.000,7523.000,123.000,-327.000,-296.000,NA,0.000,0
2026-01-30 21:09:49,17245,-815.000,-3932.000,7647.000,304.000,77.000,3.000,NA,0.000,0
2026-01-30 21:09:49,17285,-1001.000,-4005.000,7569.000,65.000,-102.000,7.000,NA,0.000,0
2026-01-30 21:09:49,17325,-943.000,-4254.000,7003.000,141.000,35.000,-369.000,NA,0.000,0
2026-01-30 21:09:49,17365,-755.000,-4119.000,7350.000,-553.000,355.000,226.000,NA,0.000,0
2026-01-30 21:09:49,17405,-862.000,-4096.000,7633.000,100.000,-20.000,94.000,NA,0.000,0
2026-01-30 21:09:49,17445,-556.000,-4332.000,7660.000,1189.000,-218.000,-385.000,NA,0.000,0
2026-01-30 21:09:49,17485,-763.000,-4000.000,7270.000,1120.000,-673.000,261.000,NA,0.000,0
