datetime_local,uptime_ms,acc_x,acc_y,acc_z,gyro_x,gyro_y,gyro_z,speed_mps,turn_rate_deg_s,gps_valid
2026-01-30 22:00:44,1778564,-61.000,-2782.000,7015.000,48.000,-2073.000,63.000,NA,0.000,0
2026-01-30 22:00:44,1778607,-1385.000,-3138.000,7987.000,-94.000,0.000,-64.000,NA,0.000,0
2026-01-30 22:00:44,1778644,-1452.000,-3134.000,7997.000,-68.000,-42.000,-82.000,NA,0.000,0
2026-01-30 22:00:44,1778684,-1360.000,-3139.000,7889.000,-45.000,-108.000,-117.000,NA,0.000,0
2026-01-30 22:00:44,1778724,-1404.000,-3120.000,7773.000,64.000,-12.000,-84.000,NA,0.000,0
2026-01-30 22:00:44,1778764,-1662.000,-2944.000,7925.000,72.000,10.000,44.000,NA,0.000,0
2026-01-30 22:00:44,1778804,-1689.000,-2878.000,7895.000,34.000,-36.000,110.000,NA,0.000,0
2026-01-30 22:00:44,1778844,-1426.000,-2872.000,7865.000,-23.000,-42.000,72.000,NA,0.000,0
2026-01-30 22:00:44,1778890,-1472.000,-3276.000,7970.000,-132.000,2.000,-34.000,NA,0.000,0
2026-01-30 22:00:44,1778924,-1455.000,-3278.000,7982.000,-81.000,-37.000,-68.000,NA,0.000,0
2026-01-30 22:00:44,1778964,-1363.000,-2969.000,7807.000,49.000,-60.000,-126.000,NA,0.000,0
2026-01-30 22:00:44,1779004,-1407.000,-3133.000,7803.000,-35.000,7.000,-82.000,NA,0.000,0
2026-01-30 22:00:44,1779044,-1510.000,-3119.000,7980.000,116.000,68.000,16.000,NA,0.000,0
2026-01-30 22:00:44,1779084,-1581.000,-2961.000,7914.000,50.000,63.000,106.000,NA,0.000,0
2026-01-30 22:00:44,1779124,-1621.000,-3050.000,8051.000,17.000,47.000,114.000,NA,0.000,0
2026-01-30 22:00:44,1779164,-1524.000,-2917.000,7979.000,111.000,14.000,82.000,NA,0.000,0
2026-01-30 22:00:44,1779204,-1470.000,-2706.000,7811.000,84.000,-7.000,2.000,NA,0.000,0
2026-01-30 22:00:44,1779244,-1669.000,-3055.000,7946.000,-113.000,40.000,-56.000,NA,0.000,0
2026-01-30 22:00:45,1779284,-1816.000,-3324.000,7856.000,48.000,11.000,-97.000,NA,0.000,0
2026-01-30 22:00:45,1779324,-1706.000,-2981.000,7724.000,249.000,-102.000,-117.000,NA,0.000,0
2026-01-30 22:00:45,1779364,-1518.000,-3020.000,7948.000,-279.000,-169.000,-123.000,NA,0.000,0
2026-01-30 22:00:45,1779404,-1222.000,-3268.000,8227.000,-432.000,-95.000,-83.000,NA,0.000,0
2026-01-30 22:00:45,1779444,-1158.000,-3479.000,7735.000,-136.000,-44.000,-100.000,NA,0.000,0
2026-01-30 22:00:45,1779484,-1346.000,-3358.000,7486.000,189.000,-141.000,-173.000,NA,0.000,0
2026-01-30 22:00:45,1779524,-1594.000,-3194.000,7347.000,298.000,-194.000,-128.000,NA,0.000,0
2026-01-30 22:00:45,1779564,-1413.000,-2522.000,7904.000,357.000,-283.000,-81.000,NA,0.000,0
2026-01-30 22:00:45,1779604,-1554.000,-3491.000,8380.000,-339.000,7.000,183.000,NA,0.000,0
2026-01-30 22:00:45,1779644,-1747.000,-3505.000,7771.000,464.000,43.000,190.000,NA,0.000,0
2026-01-30 22:00:45,1779684,-1651.000,-2580.000,7753.000,836.000,-298.000,41.000,NA,0.000,0
2026-01-30 22:00:45,1779724,-1616.000,-2473.000,7856.000,170.000,-337.000,-36.000,NA,0.000,0
2026-01-30 22:00:45,1779764,-1602.000,-3297.000,7997.000,-299.000,-152.000,-140.000,NA,0.000,0
2026-01-30 22:00:45,1779804,-1532.000,-3458.000,7963.000,46.000,-59.000,-152.000,NA,0.000,0
2026-01-30 22:00:45,1779844,-1443.000,-3056.000,7955.000,117.000,-162.000,-108.000,NA,0.000,0
2026-01-30 22:00:45,1779884,-1162.000,-3118.000,8063.000,-206.000,-286.000,-100.000,NA,0.000,0
2026-01-30 22:00:45,1779924,-983.000,-3446.000,7833.000,-155.000,-215.000,-162.000,NA,0.000,0
2026-01-30 22:00:45,1779964,-683.000,-3468.000,7888.000,-22.000,-230.000,-120.000,NA,0.000,0
2026-01-30 22:00:45,1780004,-923.000,-3465.000,7816.000,35.000,-59.000,-40.000,NA,0.000,0
2026-01-30 22:00:45,1780044,-1233.000,-3171.000,8037.000,255.000,11.000,0.000,NA,0.000,0
2026-01-30 22:00:45,1780084,-1348.000,-3066.000,8291.000,342.000,51.000,154.000,NA,0.000,0
2026-01-30 22:00:45,1780124,-1618.000,-2645.000,7738.000,1109.000,-164.000,366.000,NA,0.000,0
2026-01-30 22:00:45,1780164,-1372.000,-1666.000,7738.000,828.000,-294.000,297.000,NA,0.000,0
2026-01-30 22:00:45,1780204,-1357.000,-1871.000,8219.000,-253.000,-89.000,312.000,NA,0.000,0
2026-01-30 22:00:45,1780244,-1399.000,-3136.000,8946.000,-871.000,248.000,229.000,NA,0.000,0
2026-01-30 22:00:46,1780284,-1682.000,-3767.000,7832.000,162.000,122.000,-89.000,NA,0.000,0
2026-01-30 22:00:46,1780324,-942.000,-2256.000,7344.000,698.000,-777.000,-549.000,NA,0.000,0
2026-01-30 22:00:46,1780366,-636.000,-2730.000,7894.000,-834.000,-425.000,-408.000,NA,0.000,0
2026-01-30 22:00:46,1780406,-950.000,-3413.000,8011.000,-570.000,-45.000,-320.000,NA,0.000,0
2026-01-30 22:00:46,1780444,-1255.000,-3537.000,7957.000,262.000,171.000,66.000,NA,0.000,0
2026-01-30 22:00:46,1780484,-1333.000,-1853.000,7766.000,1007.000,-84.000,409.000,NA,0.000,0
2026-01-30 22:00:46,1780524,-910.000,-2204.000,7888.000,-642.000,-227.000,349.000,NA,0.000,0
2026-01-30 22:00:46,1780566,-424.000,-3311.000,8141.000,-1094.000,-184.000,63.000,NA,0.000,0
2026-01-30 22:00:46,1780604,-99.000,-4078.000,8221.000,-919.000,-77.000,-152.000,NA,0.000,0
2026-01-30 22:00:46,1780644,-212.000,-3834.000,8482.000,-319.000,114.000,-347.000,NA,0.000,0
2026-01-30 22:00:46,1780684,-752.000,-3745.000,8033.000,300.000,250.000,-388.000,NA,0.000,0
2026-01-30 22:00:46,1780724,-915.000,-3051.000,7969.000,935.000,43.000,-140.000,NA,0.000,0
2026-01-30 22:00:46,1780764,-1158.000,-2395.000,7890.000,673.000,160.000,210.000,NA,0.000,0
2026-01-30 22:00:46,1780804,-1157.000,-2217.000,7975.000,399.000,186.000,537.000,NA,0.000,0
2026-01-30 22:00:46,1780844,-1144.000,-2551.000,8197.000,173.000,269.000,707.000,NA,0.000,0
2026-01-30 22:00:46,1780884,-1622.000,-2293.000,8152.000,618.000,328.000,612.000,NA,0.000,0
2026-01-30 22:00:46,1780924,-1718.000,-1684.000,8047.000,631.000,78.000,418.000,NA,0.000,0
2026-01-30 22:00:46,1780964,-1588.000,-1573.000,7767.000,199.000,-106.000,108.000,NA,0.000,0
2026-01-30 22:00:46,1781004,-1025.000,-1744.000,8100.000,-593.000,-163.000,-61.000,NA,0.000,0
2026-01-30 22:00:46,1781044,-1101.000,-2853.000,8348.000,-1061.000,153.000,-157.000,NA,0.000,0
2026-01-30 22:00:46,1781084,-1194.000,-3456.000,8065.000,-583.000,60.000,-337.000,NA,0.000,0
2026-01-30 22:00:46,1781124,-893.000,-2932.000,8170.000,-309.000,-353.000,-449.000,NA,0.000,0
2026-01-30 22:00:46,1781164,-971.000,-3501.000,8248.000,-652.000,-311.000,-333.000,NA,0.000,0
2026-01-30 22:00:46,1781204,-680.000,-3189.000,8890.000,-281.000,-306.000,-315.000,NA,0.000,0
2026-01-30 22:00:46,1781244,-320.000,-3754.000,7523.000,-241.000,-291.000,-280.000,NA,0.000,0
2026-01-30 22:00:47,1781284,405.000,-2527.000,7712.000,465.000,-692.000,-446.000,NA,0.000,0
2026-01-30 22:00:47,1781324,-24.000,-2787.000,7980.000,7.000,-33.000,-171.000,NA,0.000,0
2026-01-30 22:00:47,1781364,-731.000,-3057.000,8111.000,762.000,470.000,134.000,NA,0.000,0
2026-01-30 22:00:47,1781404,-1078.000,-2146.000,8479.000,1490.000,571.000,522.000,NA,0.000,0
2026-01-30 22:00:47,1781444,-1628.000,-1555.000,8264.000,1457.000,707.000,813.000,NA,0.000,0
2026-01-30 22:00:47,1781484,-1636.000,-902.000,8162.000,1172.000,397.000,726.000,NA,0.000,0
2026-01-30 22:00:47,1781524,-1027.000,-1063.000,8359.000,-53.000,98.000,461.000,NA,0.000,0
2026-01-30 22:00:47,1781564,-958.000,-2016.000,8350.000,-620.000,224.000,177.000,NA,0.000,0
2026-01-30 22:00:47,1781604,-1383.000,-2611.000,7875.000,-264.000,158.000,-216.000,NA,0.000,0
2026-01-30 22:00:47,1781644,-940.000,-862.000,7137.000,602.000,-810.000,-695.000,NA,0.000,0
2026-01-30 22:00:47,1781684,33.000,-1086.000,7861.000,-1826.000,-678.000,-316.000,NA,0.000,0
2026-01-30 22:00:47,1781724,-901.000,-3259.000,8370.000,-2911.000,704.000,-173.000,NA,0.000,0
2026-01-30 22:00:47,1781764,-565.000,-6888.000,7737.000,-2248.000,344.000,-280.000,NA,0.000,0
2026-01-30 22:00:47,1781804,-656.000,-4820.000,8115.000,796.000,-100.000,-610.000,NA,0.000,0
2026-01-30 22:00:47,1781844,-612.000,-2387.000,8103.000,1491.000,-454.000,-489.000,NA,0.000,0
2026-01-30 22:00:47,1781884,-709.000,-1488.000,8341.000,719.000,-474.000,-252.000,NA,0.000,0
2026-01-30 22:00:47,1781924,-995.000,-2739.000,8036.000,84.000,-90.000,247.000,NA,0.000,0
2026-01-30 22:00:47,1781964,-1169.000,-2492.000,8020.000,902.000,107.000,566.000,NA,0.000,0
2026-01-30 22:00:47,1782004,-1065.000,-1667.000,8647.000,762.000,117.000,633.000,NA,0.000,0
2026-01-30 22:00:47,1782044,-1070.000,-2355.000,8855.000,-29.000,308.000,276.000,NA,0.000,0
2026-01-30 22:00:47,1782084,-846.000,-2582.000,8600.000,282.000,128.000,-126.000,NA,0.000,0
2026-01-30 22:00:47,1782124,-605.000,-2104.000,8325.000,601.000,-39.000,-419.000,NA,0.000,0
2026-01-30 22:00:47,1782164,-634.000,-1713.000,8191.000,245.000,-100.000,-500.000,NA,0.000,0
2026-01-30 22:00:47,1782204,-502.000,-2119.000,7900.000,-109.000,-78.000,-451.000,NA,0.000,0
2026-01-30 22:00:47,1782244,-242.000,-1932.000,7638.000,207.000,-12.000,-337.000,NA,0.000,0
2026-01-30 22:00:48,1782284,128.000,-1383.000,7637.000,281.000,20.000,-148.000,NA,0.000,0
2026-01-30 22:00:48,1782327,224.000,-1530.000,8346.000,-51.000,411.000,118.000,NA,0.000,0
2026-01-30 22:00:48,1782367,-167.000,-1867.000,8451.000,21.000,591.000,186.000,NA,0.000,0
2026-01-30 22:00:48,1782404,-771.000,-1606.000,8464.000,610.000,392.000,170.000,NA,0.000,0
2026-01-30 22:00:48,1782444,-995.000,-1091.000,8164.000,376.000,-66.000,33.000,NA,0.000,0
2026-01-30 22:00:48,1782484,-591.000,-1040.000,8484.000,-360.000,-313.000,-51.000,NA,0.000,0
2026-01-30 22:00:48,1782524,-487.000,-2038.000,8479.000,-634.000,-101.000,-148.000,NA,0.000,0
2026-01-30 22:00:48,1782566,-43.000,-2260.000,8426.000,-64.000,-300.000,-209.000,NA,0.000,0
2026-01-30 22:00:48,1782604,23.000,-1553.000,8064.000,371.000,-378.000,-267.000,NA,0.000,0
2026-01-30 22:00:48,1782644,321.000,-1151.000,8012.000,-135.000,-577.000,-293.000,NA,0.000,0
2026-01-30 22:00:48,1782684,438.000,-2072.000,8482.000,-879.000,-382.000,-224.000,NA,0.000,0
2026-01-30 22:00:48,1782724,125.000,-2989.000,8278.000,-291.000,-11.000,-180.000,NA,0.000,0
2026-01-30 22:00:48,1782764,214.000,-2055.000,8816.000,276.000,-26.000,-110.000,NA,0.000,0
2026-01-30 22:00:48,1782804,-562.000,-2312.000,8283.000,456.000,244.000,87.000,NA,0.000,0
2026-01-30 22:00:48,1782844,-167.000,-1116.000,8617.000,713.000,-122.000,232.000,NA,0.000,0
2026-01-30 22:00:48,1782884,-412.000,-1234.000,7786.000,406.000,19.000,232.000,NA,0.000,0
2026-01-30 22:00:48,1782924,-155.000,-1033.000,8318.000,-173.000,-31.000,212.000,NA,0.000,0
2026-01-30 22:00:48,1782964,-829.000,-2767.000,7709.000,-616.000,311.000,100.000,NA,0.000,0
2026-01-30 22:00:48,1783004,-880.000,-2013.000,7639.000,262.000,-94.000,-224.000,NA,0.000,0
2026-01-30 22:00:48,1783044,-316.000,-1933.000,8685.000,-1110.000,-205.000,-27.000,NA,0.000,0
2026-01-30 22:00:48,1783084,-886.000,-3222.000,8230.000,-503.000,262.000,-227.000,NA,0.000,0
2026-01-30 22:00:48,1783124,-275.000,-2610.000,8303.000,-215.000,-95.000,-222.000,NA,0.000,0
2026-01-30 22:00:48,1783164,-622.000,-2666.000,8087.000,159.000,-87.000,19.000,NA,0.000,0
2026-01-30 22:00:48,1783204,-600.000,-1963.000,8417.000,192.000,-327.000,67.000,NA,0.000,0
2026-01-30 22:00:48,1783244,-714.000,-2862.000,8183.000,-156.000,-143.000,91.000,NA,0.000,0
2026-01-30 22:00:49,1783284,-747.000,-2519.000,8097.000,363.000,-152.000,158.000,NA,0.000,0
2026-01-30 22:00:49,1783324,-638.000,-2131.000,8363.000,186.000,-122.000,262.000,NA,0.000,0
2026-01-30 22:00:49,1783364,-728.000,-2217.000,8294.000,151.000,97.000,202.000,NA,0.000,0
2026-01-30 22:00:49,1783404,-532.000,-1962.000,8091.000,264.000,-36.000,-27.000,NA,0.000,0
2026-01-30 22:00:49,1783444,-135.000,-2040.000,8052.000,-234.000,-123.000,-87.000,NA,0.000,0
2026-01-30 22:00:49,1783484,-182.000,-2214.000,8756.000,-253.000,68.000,-151.000,NA,0.000,0
2026-01-30 22:00:49,1783524,-670.000,-3255.000,8139.000,-349.000,431.000,7.000,NA,0.000,0
2026-01-30 22:00:49,1783564,-768.000,-1603.000,7766.000,1051.000,-91.000,-66.000,NA,0.000,0
2026-01-30 22:00:49,1783604,-364.000,-1281.000,7674.000,-55.000,-302.000,132.000,NA,0.000,0
2026-01-30 22:00:49,1783644,-520.000,-2407.000,8087.000,-875.000,166.000,201.000,NA,0.000,0
2026-01-30 22:00:49,1783684,-724.000,-3460.000,8198.000,-506.000,364.000,131.000,NA,0.000,0
2026-01-30 22:00:49,1783724,-646.000,-2675.000,8308.000,346.000,201.000,29.000,NA,0.000,0
2026-01-30 22:00:49,1783764,-548.000,-1643.000,8507.000,249.000,33.000,49.000,NA,0.000,0
2026-01-30 22:00:49,1783804,-607.000,-2527.000,8785.000,-524.000,177.000,164.000,NA,0.000,0
2026-01-30 22:00:49,1783844,-938.000,-3075.000,8207.000,261.000,337.000,19.000,NA,0.000,0
2026-01-30 22:00:49,1783884,-656.000,-1851.000,8100.000,552.000,-17.000,67.000,NA,0.000,0
2026-01-30 22:00:49,1783924,-927.000,-2455.000,8416.000,-334.000,129.000,100.000,NA,0.000,0
2026-01-30 22:00:49,1783964,-1206.000,-3074.000,7711.000,216.000,20.000,-27.000,NA,0.000,0
2026-01-30 22:00:49,1784004,-494.000,-1710.000,8315.000,138.000,-297.000,44.000,NA,0.000,0
2026-01-30 22:00:49,1784044,-930.000,-2555.000,7393.000,90.000,16.000,39.000,NA,0.000,0
2026-01-30 22:00:49,1784084,-220.000,-1683.000,7830.000,246.000,-383.000,-72.000,NA,0.000,0
2026-01-30 22:00:49,1784124,-151.000,-2157.000,8609.000,-727.000,137.000,106.000,NA,0.000,0
2026-01-30 22:00:49,1784164,-950.000,-3021.000,9111.000,-203.000,690.000,205.000,NA,0.000,0
2026-01-30 22:00:49,1784204,-1320.000,-3132.000,9125.000,343.000,370.000,329.000,NA,0.000,0
2026-01-30 22:00:49,1784244,-1166.000,-1825.000,8324.000,895.000,-154.000,16.000,NA,0.000,0
2026-01-30 22:00:50,1784284,-689.000,-1868.000,7391.000,-61.000,-729.000,-85.000,NA,0.000,0
2026-01-30 22:00:50,1784324,-450.000,-2326.000,7341.000,-483.000,-528.000,-243.000,NA,0.000,0
2026-01-30 22:00:50,1784364,-823.000,-2303.000,7234.000,290.000,-143.000,-247.000,NA,0.000,0
2026-01-30 22:00:50,1784405,-116.000,-1666.000,8701.000,-627.000,37.000,174.000,NA,0.000,0
2026-01-30 22:00:50,1784444,-723.000,-3644.000,8343.000,-736.000,791.000,62.000,NA,0.000,0
2026-01-30 22:00:50,1784484,-216.000,-3557.000,8879.000,115.000,270.000,-37.000,NA,0.000,0
2026-01-30 22:00:50,1784524,-641.000,-2842.000,8345.000,1017.000,76.000,-98.000,NA,0.000,0
2026-01-30 22:00:50,1784566,-948.000,-1290.000,8240.000,744.000,-216.000,196.000,NA,0.000,0
2026-01-30 22:00:50,1784604,-1016.000,-1463.000,8176.000,400.000,-154.000,311.000,NA,0.000,0
2026-01-30 22:00:50,1784644,-1307.000,-1786.000,7425.000,584.000,59.000,274.000,NA,0.000,0
2026-01-30 22:00:50,1784684,-869.000,-908.000,7032.000,412.000,-335.000,215.000,NA,0.000,0
2026-01-30 22:00:50,1784724,-733.000,-701.000,7724.000,-204.000,88.000,205.000,NA,0.000,0
2026-01-30 22:00:50,1784764,-742.000,-1334.000,9507.000,-1485.000,877.000,228.000,NA,0.000,0
2026-01-30 22:00:50,1784804,-1570.000,-4520.000,9270.000,-1787.000,1344.000,156.000,NA,0.000,0
2026-01-30 22:00:50,1784844,-1069.000,-4017.000,8976.000,-19.000,70.000,-495.000,NA,0.000,0
2026-01-30 22:00:50,1784884,38.000,-2368.000,8329.000,-311.000,-1112.000,-907.000,NA,0.000,0
2026-01-30 22:00:50,1784924,-4.000,-2495.000,7834.000,-272.000,-871.000,-942.000,NA,0.000,0
2026-01-30 22:00:50,1784964,-264.000,-2850.000,7932.000,-49.000,-471.000,-620.000,NA,0.000,0
2026-01-30 22:00:50,1785004,-910.000,-2851.000,7857.000,676.000,151.000,-75.000,NA,0.000,0
2026-01-30 22:00:50,1785044,-1585.000,-1827.000,8001.000,1158.000,322.000,571.000,NA,0.000,0
2026-01-30 22:00:50,1785084,-1618.000,-1603.000,8447.000,244.000,295.000,833.000,NA,0.000,0
2026-01-30 22:00:50,1785124,-1185.000,-1818.000,8320.000,-79.000,139.000,628.000,NA,0.000,0
2026-01-30 22:00:50,1785164,-867.000,-2286.000,8239.000,-428.000,16.000,258.000,NA,0.000,0
2026-01-30 22:00:50,1785204,-1011.000,-2748.000,8305.000,-218.000,-12.000,-210.000,NA,0.000,0
2026-01-30 22:00:50,1785244,-1252.000,-2593.000,8290.000,88.000,-131.000,-507.000,NA,0.000,0
2026-01-30 22:00:51,1785284,-1287.000,-2235.000,8051.000,153.000,-250.000,-567.000,NA,0.000,0
2026-01-30 22:00:51,1785324,-1076.000,-2219.000,7768.000,-44.000,-339.000,-430.000,NA,0.000,0
2026-01-30 22:00:51,1785364,-824.000,-2518.000,7824.000,-372.000,-300.000,-164.000,NA,0.000,0
2026-01-30 22:00:51,1785404,-691.000,-2886.000,8186.000,-447.000,-141.000,51.000,NA,0.000,0
2026-01-30 22:00:51,1785444,-712.000,-3355.000,8118.000,-337.000,-114.000,73.000,NA,0.000,0
2026-01-30 22:00:51,1785484,-577.000,-2570.000,7872.000,461.000,-363.000,-15.000,NA,0.000,0
2026-01-30 22:00:51,1785524,-532.000,-2143.000,7835.000,288.000,-385.000,6.000,NA,0.000,0
2026-01-30 22:00:51,1785564,-826.000,-2347.000,7728.000,154.000,-117.000,77.000,NA,0.000,0
2026-01-30 22:00:51,1785604,-784.000,-2165.000,8293.000,97.000,44.000,190.000,NA,0.000,0
2026-01-30 22:00:51,1785644,-1003.000,-2667.000,8316.000,-96.000,372.000,280.000,NA,0.000,0
2026-01-30 22:00:51,1785684,-1010.000,-2531.000,7896.000,344.000,219.000,133.000,NA,0.000,0
2026-01-30 22:00:51,1785724,-518.000,-2094.000,7713.000,123.000,-182.000,-70.000,NA,0.000,0
2026-01-30 22:00:51,1785764,-439.000,-2299.000,8180.000,-319.000,18.000,-88.000,NA,0.000,0
2026-01-30 22:00:51,1785804,-1013.000,-2974.000,8424.000,-125.000,443.000,-41.000,NA,0.000,0
2026-01-30 22:00:51,1785844,-1405.000,-2112.000,8344.000,878.000,199.000,90.000,NA,0.000,0
2026-01-30 22:00:51,1785884,-1335.000,-1355.000,8257.000,448.000,9.000,244.000,NA,0.000,0
2026-01-30 22:00:51,1785924,-1131.000,-1878.000,8554.000,-398.000,-32.000,292.000,NA,0.000,0
2026-01-30 22:00:51,1785964,-1070.000,-2828.000,8513.000,-450.000,33.000,161.000,NA,0.000,0
2026-01-30 22:00:51,1786004,-1003.000,-2538.000,8195.000,178.000,-92.000,-41.000,NA,0.000,0
2026-01-30 22:00:51,1786044,-879.000,-1972.000,8107.000,129.000,-285.000,-164.000,NA,0.000,0
2026-01-30 22:00:51,1786084,-938.000,-2178.000,8143.000,-214.000,-179.000,-225.000,NA,0.000,0
2026-01-30 22:00:51,1786124,-892.000,-2535.000,8178.000,-214.000,-106.000,-181.000,NA,0.000,0
2026-01-30 22:00:51,1786164,-753.000,-2582.000,8006.000,-109.000,-82.000,-106.000,NA,0.000,0
2026-01-30 22:00:51,1786204,-638.000,-2381.000,8046.000,-26.000,-129.000,7.000,NA,0.000,0
2026-01-30 22:00:51,1786244,-774.000,-2270.000,8102.000,128.000,30.000,76.000,NA,0.000,0
2026-01-30 22:00:52,1786284,-953.000,-2261.000,8085.000,152.000,127.000,135.000,NA,0.000,0
2026-01-30 22:00:52,1786324,-1093.000,-2239.000,8079.000,133.000,97.000,152.000,NA,0.000,0
2026-01-30 22:00:52,1786367,-1001.000,-2169.000,8122.000,-119.000,34.000,69.000,NA,0.000,0
2026-01-30 22:00:52,1786406,-806.000,-2507.000,8141.000,-250.000,59.000,-33.000,NA,0.000,0
2026-01-30 22:00:52,1786444,-797.000,-2658.000,8186.000,-205.000,91.000,-66.000,NA,0.000,0
2026-01-30 22:00:52,1786484,-893.000,-2617.000,8181.000,48.000,109.000,-108.000,NA,0.000,0
2026-01-30 22:00:52,1786524,-1011.000,-2440.000,8165.000,136.000,57.000,-67.000,NA,0.000,0
2026-01-30 22:00:52,1786567,-1187.000,-2452.000,8231.000,-6.000,48.000,131.000,NA,0.000,0
2026-01-30 22:00:52,1786604,-1124.000,-2451.000,8201.000,-51.000,-6.000,150.000,NA,0.000,0
2026-01-30 22:00:52,1786644,-1007.000,-2542.000,8127.000,-99.000,-62.000,122.000,NA,0.000,0
2026-01-30 22:00:52,1786684,-962.000,-2530.000,8315.000,-92.000,-32.000,87.000,NA,0.000,0
2026-01-30 22:00:52,1786724,-1133.000,-2641.000,8260.000,3.000,32.000,1.000,NA,0.000,0
2026-01-30 22:00:52,1786764,-1072.000,-2417.000,8125.000,104.000,-76.000,-68.000,NA,0.000,0
2026-01-30 22:00:52,1786804,-919.000,-2233.000,8005.000,14.000,-127.000,-64.000,NA,0.000,0
2026-01-30 22:00:52,1786844,-852.000,-2483.000,8079.000,-217.000,-52.000,-20.000,NA,0.000,0
2026-01-30 22:00:52,1786884,-863.000,-2724.000,8217.000,-57.000,40.000,15.000,NA,0.000,0
2026-01-30 22:00:52,1786924,-1025.000,-2651.000,8102.000,131.000,81.000,64.000,NA,0.000,0
2026-01-30 22:00:52,1786964,-973.000,-1943.000,8175.000,294.000,-17.000,83.000,NA,0.000,0
2026-01-30 22:00:52,1787004,-1024.000,-2359.000,8161.000,-145.000,93.000,97.000,NA,0.000,0
2026-01-30 22:00:52,1787044,-1012.000,-2541.000,8248.000,-63.000,116.000,31.000,NA,0.000,0
2026-01-30 22:00:52,1787084,-1022.000,-2512.000,8292.000,100.000,56.000,-16.000,NA,0.000,0
2026-01-30 22:00:52,1787124,-1127.000,-2205.000,8169.000,181.000,40.000,-37.000,NA,0.000,0
2026-01-30 22:00:52,1787164,-1058.000,-2009.000,8254.000,139.000,-31.000,-41.000,NA,0.000,0
2026-01-30 22:00:52,1787204,-1120.000,-2360.000,8229.000,-13.000,115.000,54.000,NA,0.000,0
2026-01-30 22:00:52,1787244,-1156.000,-2127.000,8258.000,198.000,95.000,24.000,NA,0.000,0
2026-01-30 22:00:53,1787284,-1044.000,-2299.000,8329.000,-101.000,31.000,-3.000,NA,0.000,0
2026-01-30 22:00:53,1787324,-1129.000,-2342.000,8184.000,133.000,78.000,-66.000,NA,0.000,0
2026-01-30 22:00:53,1787364,-1066.000,-2091.000,8284.000,48.000,40.000,-62.000,NA,0.000,0
2026-01-30 22:00:53,1787404,-1188.000,-2068.000,8100.000,258.000,84.000,-82.000,NA,0.000,0
2026-01-30 22:00:53,1787444,-1063.000,-1979.000,8154.000,-46.000,38.000,-51.000,NA,0.000,0
2026-01-30 22:00:53,1787484,-1128.000,-2170.000,8183.000,30.000,93.000,-71.000,NA,0.000,0
2026-01-30 22:00:53,1787524,-1061.000,-2154.000,8323.000,-4.000,59.000,-33.000,NA,0.000,0
2026-01-30 22:00:53,1787564,-1227.000,-2224.000,8148.000,108.000,65.000,-64.000,NA,0.000,0
2026-01-30 22:00:53,1787604,-1081.000,-1804.000,8156.000,91.000,-77.000,-47.000,NA,0.000,0
2026-01-30 22:00:53,1787644,-1009.000,-2194.000,8214.000,-235.000,-27.000,-22.000,NA,0.000,0
2026-01-30 22:00:53,1787684,-973.000,-2223.000,8301.000,-26.000,-18.000,-46.000,NA,0.000,0
2026-01-30 22:00:53,1787724,-1036.000,-2146.000,8199.000,-33.000,-34.000,3.000,NA,0.000,0
2026-01-30 22:00:53,1787764,-948.000,-2048.000,8201.000,-63.000,-70.000,1.000,NA,0.000,0
2026-01-30 22:00:53,1787804,-877.000,-2141.000,8156.000,-66.000,-44.000,-53.000,NA,0.000,0
2026-01-30 22:00:53,1787844,-779.000,-2150.000,8005.000,-40.000,-65.000,-95.000,NA,0.000,0
2026-01-30 22:00:53,1787884,-629.000,-2018.000,8366.000,-126.000,-61.000,-34.000,NA,0.000,0
2026-01-30 22:00:53,1787924,-981.000,-2459.000,8189.000,-55.000,166.000,29.000,NA,0.000,0
2026-01-30 22:00:53,1787964,-1099.000,-1956.000,8376.000,189.000,45.000,31.000,NA,0.000,0
2026-01-30 22:00:53,1788004,-1024.000,-2108.000,8234.000,-126.000,23.000,78.000,NA,0.000,0
2026-01-30 22:00:53,1788044,-784.000,-2045.000,8153.000,34.000,-68.000,-53.000,NA,0.000,0
2026-01-30 22:00:53,1788084,-592.000,-2383.000,8285.000,-313.000,-59.000,-64.000,NA,0.000,0
2026-01-30 22:00:53,1788124,-828.000,-1542.000,8736.000,288.000,69.000,-36.000,NA,0.000,0
2026-01-30 22:00:53,1788164,-1351.000,-2359.000,7686.000,207.000,101.000,47.000,NA,0.000,0
2026-01-30 22:00:53,1788204,-641.000,-830.000,8215.000,406.000,-325.000,-43.000,NA,0.000,0
2026-01-30 22:00:53,1788244,-796.000,-2222.000,8267.000,-1084.000,154.000,155.000,NA,0.000,0
2026-01-30 22:00:54,1788284,-903.000,-2698.000,8734.000,-216.000,225.000,-85.000,NA,0.000,0
2026-01-30 22:00:54,1788324,-488.000,-2532.000,9010.000,-96.000,-2.000,17.000,NA,0.000,0
2026-01-30 22:00:54,1788367,-795.000,-1593.000,7601.000,581.000,-14.000,-211.000,NA,0.000,0
2026-01-30 22:00:54,1788404,-679.000,-1705.000,7716.000,24.000,-316.000,-125.000,NA,0.000,0
2026-01-30 22:00:54,1788444,-624.000,-2464.000,7986.000,-719.000,-222.000,-104.000,NA,0.000,0
2026-01-30 22:00:54,1788484,-777.000,-2079.000,8557.000,177.000,32.000,-34.000,NA,0.000,0
2026-01-30 22:00:54,1788524,-386.000,-1340.000,9090.000,340.000,-68.000,165.000,NA,0.000,0
2026-01-30 22:00:54,1788566,-745.000,-3304.000,7744.000,168.000,384.000,204.000,NA,0.000,0
2026-01-30 22:00:54,1788604,-714.000,-2013.000,6795.000,1584.000,-144.000,-238.000,NA,0.000,0
2026-01-30 22:00:54,1788644,991.000,335.000,7858.000,840.000,-1511.000,-282.000,NA,0.000,0
2026-01-30 22:00:54,1788684,300.000,-779.000,7234.000,-520.000,-378.000,-223.000,NA,0.000,0
2026-01-30 22:00:54,1788724,533.000,-1053.000,8889.000,-983.000,312.000,-210.000,NA,0.000,0
2026-01-30 22:00:54,1788764,-179.000,-3118.000,9061.000,-1111.000,990.000,155.000,NA,0.000,0
2026-01-30 22:00:54,1788804,-722.000,-2616.000,8796.000,1162.000,714.000,204.000,NA,0.000,0
2026-01-30 22:00:54,1788844,-464.000,-450.000,8512.000,1234.000,-314.000,102.000,NA,0.000,0
2026-01-30 22:00:54,1788884,557.000,-251.000,8381.000,-450.000,-557.000,-205.000,NA,0.000,0
2026-01-30 22:00:54,1788924,648.000,-2111.000,8336.000,-1299.000,-3.000,-35.000,NA,0.000,0
2026-01-30 22:00:54,1788964,355.000,-2651.000,8379.000,-434.000,202.000,-46.000,NA,0.000,0
2026-01-30 22:00:54,1789004,-347.000,-2242.000,8295.000,371.000,120.000,-77.000,NA,0.000,0
2026-01-30 22:00:54,1789044,-650.000,-1218.000,8273.000,739.000,-38.000,-142.000,NA,0.000,0
2026-01-30 22:00:54,1789084,-362.000,-958.000,8340.000,-18.000,-164.000,43.000,NA,0.000,0
2026-01-30 22:00:54,1789124,-34.000,-1743.000,8233.000,-502.000,-86.000,197.000,NA,0.000,0
2026-01-30 22:00:54,1789164,140.000,-2142.000,8444.000,-325.000,6.000,203.000,NA,0.000,0
2026-01-30 22:00:54,1789204,-154.000,-1906.000,8022.000,386.000,117.000,27.000,NA,0.000,0
2026-01-30 22:00:54,1789244,-164.000,-1381.000,7739.000,363.000,-33.000,-125.000,NA,0.000,0
2026-01-30 22:00:55,1789284,-267.000,-1759.000,8329.000,-320.000,40.000,-125.000,NA,0.000,0
2026-01-30 22:00:55,1789324,-430.000,-2534.000,8642.000,-610.000,363.000,100.000,NA,0.000,0
2026-01-30 22:00:55,1789364,-791.000,-2153.000,8237.000,662.000,385.000,40.000,NA,0.000,0
2026-01-30 22:00:55,1789404,-514.000,-1730.000,8474.000,68.000,33.000,202.000,NA,0.000,0
2026-01-30 22:00:55,1789444,-1034.000,-2004.000,8086.000,236.000,139.000,133.000,NA,0.000,0
2026-01-30 22:00:55,1789484,-887.000,-1804.000,7977.000,204.000,-176.000,64.000,NA,0.000,0
2026-01-30 22:00:55,1789524,-545.000,-1330.000,8261.000,250.000,-260.000,-15.000,NA,0.000,0
2026-01-30 22:00:55,1789564,-522.000,-1708.000,9071.000,-494.000,167.000,168.000,NA,0.000,0
2026-01-30 22:00:55,1789604,-1334.000,-2565.000,7890.000,628.000,276.000,20.000,NA,0.000,0
2026-01-30 22:00:55,1789644,-248.000,-414.000,7481.000,512.000,-637.000,-77.000,NA,0.000,0
2026-01-30 22:00:55,1789684,-163.000,-610.000,7598.000,-522.000,-162.000,-119.000,NA,0.000,0
2026-01-30 22:00:55,1789724,-32.000,-1963.000,8787.000,-1493.000,307.000,-38.000,NA,0.000,0
2026-01-30 22:00:55,1789764,-709.000,-3931.000,8921.000,-1037.000,808.000,16.000,NA,0.000,0
2026-01-30 22:00:55,1789804,-1207.000,-2642.000,8935.000,974.000,466.000,33.000,NA,0.000,0
2026-01-30 22:00:55,1789844,-761.000,-1198.000,8982.000,188.000,-131.000,91.000,NA,0.000,0
2026-01-30 22:00:55,1789884,-658.000,-2016.000,8263.000,-45.000,-131.000,-128.000,NA,0.000,0
2026-01-30 22:00:55,1789924,48.000,-2585.000,8579.000,-585.000,-300.000,-29.000,NA,0.000,0
2026-01-30 22:00:55,1789964,-538.000,-2431.000,8023.000,481.000,140.000,-108.000,NA,0.000,0
2026-01-30 22:00:55,1790004,-505.000,-1482.000,7666.000,673.000,0.000,-40.000,NA,0.000,0
2026-01-30 22:00:55,1790044,-419.000,-931.000,8450.000,275.000,4.000,-3.000,NA,0.000,0
2026-01-30 22:00:55,1790084,-1176.000,-2670.000,7736.000,-391.000,454.000,268.000,NA,0.000,0
2026-01-30 22:00:55,1790124,-1132.000,-1766.000,7528.000,768.000,15.000,-21.000,NA,0.000,0
2026-01-30 22:00:55,1790164,-161.000,-1096.000,8545.000,71.000,-330.000,113.000,NA,0.000,0
2026-01-30 22:00:55,1790204,-632.000,-1244.000,8755.000,-242.000,369.000,71.000,NA,0.000,0
2026-01-30 22:00:55,1790244,-1044.000,-2004.000,8703.000,333.000,337.000,-157.000,NA,0.000,0
2026-01-30 22:00:56,1790284,-1089.000,-1633.000,8365.000,515.000,-66.000,27.000,NA,0.000,0
2026-01-30 22:00:56,1790324,-1573.000,-683.000,7308.000,1110.000,-176.000,-8.000,NA,0.000,0
2026-01-30 22:00:56,1790367,-572.000,-793.000,9524.000,-892.000,-242.000,-44.000,NA,0.000,0
2026-01-30 22:00:56,1790406,-1277.000,-5552.000,8457.000,-2897.000,1300.000,173.000,NA,0.000,0
2026-01-30 22:00:56,1790444,-2407.000,-5545.000,7995.000,-246.000,1308.000,-60.000,NA,0.000,0
2026-01-30 22:00:56,1790484,-1128.000,-1239.000,9798.000,1549.000,-464.000,-217.000,NA,0.000,0
2026-01-30 22:00:56,1790524,-1318.000,-837.000,8317.000,241.000,-510.000,29.000,NA,0.000,0
2026-01-30 22:00:56,1790567,-673.000,-2776.000,8495.000,-1443.000,-511.000,-216.000,NA,0.000,0
2026-01-30 22:00:56,1790604,-571.000,-3785.000,7884.000,-1207.000,-528.000,-257.000,NA,0.000,0
2026-01-30 22:00:56,1790644,-368.000,-2523.000,7334.000,608.000,-524.000,-402.000,NA,0.000,0
2026-01-30 22:00:56,1790684,-400.000,-1355.000,7574.000,276.000,-437.000,-131.000,NA,0.000,0
2026-01-30 22:00:56,1790724,-746.000,-1987.000,7869.000,-339.000,-13.000,-171.000,NA,0.000,0
2026-01-30 22:00:56,1790764,-713.000,-2577.000,7845.000,-170.000,208.000,-107.000,NA,0.000,0
2026-01-30 22:00:56,1790804,-787.000,-1943.000,8079.000,394.000,159.000,170.000,NA,0.000,0
2026-01-30 22:00:56,1790844,-1110.000,-2053.000,8531.000,23.000,236.000,290.000,NA,0.000,0
2026-01-30 22:00:56,1790884,-1345.000,-2291.000,8504.000,275.000,216.000,203.000,NA,0.000,0
2026-01-30 22:00:56,1790924,-1250.000,-2083.000,8085.000,247.000,-45.000,91.000,NA,0.000,0
2026-01-30 22:00:56,1790964,-1071.000,-1799.000,7993.000,36.000,-213.000,-13.000,NA,0.000,0
2026-01-30 22:00:56,1791004,-1111.000,-2186.000,8253.000,-326.000,-101.000,-63.000,NA,0.000,0
2026-01-30 22:00:56,1791044,-1222.000,-2524.000,8227.000,-105.000,48.000,-170.000,NA,0.000,0
2026-01-30 22:00:56,1791084,-1271.000,-2472.000,8026.000,18.000,14.000,-109.000,NA,0.000,0
2026-01-30 22:00:56,1791124,-1177.000,-2187.000,8036.000,-49.000,-78.000,-16.000,NA,0.000,0
2026-01-30 22:00:56,1791164,-1166.000,-2559.000,8177.000,-170.000,-12.000,52.000,NA,0.000,0
2026-01-30 22:00:56,1791204,-1077.000,-2610.000,8259.000,-183.000,-17.000,46.000,NA,0.000,0
2026-01-30 22:00:56,1791244,-1118.000,-2805.000,8276.000,-103.000,-11.000,54.000,NA,0.000,0
2026-01-30 22:00:57,1791284,-1177.000,-2448.000,8241.000,183.000,-65.000,-13.000,NA,0.000,0
2026-01-30 22:00:57,1791324,-1267.000,-2233.000,7995.000,258.000,-100.000,-42.000,NA,0.000,0
2026-01-30 22:00:57,1791364,-1159.000,-2023.000,7995.000,114.000,-144.000,-70.000,NA,0.000,0
2026-01-30 22:00:57,1791404,-1097.000,-2530.000,8352.000,-272.000,-41.000,19.000,NA,0.000,0
2026-01-30 22:00:57,1791444,-1405.000,-2696.000,8152.000,281.000,126.000,-17.000,NA,0.000,0
2026-01-30 22:00:57,1791484,-1279.000,-1985.000,7935.000,534.000,-91.000,-28.000,NA,0.000,0
2026-01-30 22:00:57,1791524,-1228.000,-1745.000,7905.000,214.000,-85.000,-14.000,NA,0.000,0
2026-01-30 22:00:57,1791564,-1113.000,-1940.000,7907.000,34.000,-76.000,-12.000,NA,0.000,0
2026-01-30 22:00:57,1791604,-1018.000,-1945.000,8392.000,-182.000,93.000,32.000,NA,0.000,0
2026-01-30 22:00:57,1791644,-1487.000,-2450.000,8252.000,-78.000,320.000,26.000,NA,0.000,0
2026-01-30 22:00:57,1791684,-1316.000,-2198.000,8242.000,95.000,21.000,-79.000,NA,0.000,0
2026-01-30 22:00:57,1791724,-1097.000,-2121.000,8241.000,-173.000,-86.000,-118.000,NA,0.000,0
2026-01-30 22:00:57,1791764,-1215.000,-2269.000,8397.000,-135.000,4.000,-105.000,NA,0.000,0
2026-01-30 22:00:57,1791804,-1175.000,-2165.000,8783.000,-79.000,-6.000,-8.000,NA,0.000,0
2026-01-30 22:00:57,1791844,-1520.000,-2494.000,8513.000,-27.000,154.000,65.000,NA,0.000,0
2026-01-30 22:00:57,1791884,-1245.000,-1907.000,7987.000,270.000,-160.000,-10.000,NA,0.000,0
2026-01-30 22:00:57,1791924,-846.000,-2165.000,8214.000,-590.000,-4.000,-64.000,NA,0.000,0
2026-01-30 22:00:57,1791964,-1169.000,-2833.000,8350.000,-262.000,243.000,-135.000,NA,0.000,0
2026-01-30 22:00:57,1792004,-1156.000,-2542.000,8577.000,-35.000,117.000,-77.000,NA,0.000,0
2026-01-30 22:00:57,1792044,-1298.000,-2299.000,8689.000,18.000,167.000,9.000,NA,0.000,0
2026-01-30 22:00:57,1792084,-1358.000,-2639.000,8476.000,-16.000,3.000,48.000,NA,0.000,0
2026-01-30 22:00:57,1792124,-897.000,-2409.000,8251.000,11.000,-182.000,-12.000,NA,0.000,0
2026-01-30 22:00:57,1792164,-862.000,-2270.000,7836.000,210.000,-101.000,-122.000,NA,0.000,0
2026-01-30 22:00:57,1792204,-800.000,-2235.000,8198.000,-234.000,-18.000,-9.000,NA,0.000,0
2026-01-30 22:00:57,1792244,-1430.000,-2316.000,8004.000,291.000,258.000,-19.000,NA,0.000,0
2026-01-30 22:00:58,1792284,-1396.000,-1854.000,8022.000,113.000,156.000,78.000,NA,0.000,0
2026-01-30 22:00:58,1792324,-1457.000,-3104.000,8722.000,-521.000,301.000,128.000,NA,0.000,0
2026-01-30 22:00:58,1792367,-1274.000,-2261.000,8502.000,563.000,-104.000,-38.000,NA,0.000,0
2026-01-30 22:00:58,1792404,-1245.000,-2055.000,8276.000,447.000,-145.000,-60.000,NA,0.000,0
2026-01-30 22:00:58,1792444,-1465.000,-2151.000,7572.000,351.000,-175.000,-100.000,NA,0.000,0
2026-01-30 22:00:58,1792484,-1033.000,-1547.000,7462.000,322.000,-434.000,-124.000,NA,0.000,0
2026-01-30 22:00:58,1792524,-880.000,-1743.000,8001.000,-355.000,-107.000,-46.000,NA,0.000,0
2026-01-30 22:00:58,1792566,-1449.000,-3462.000,8231.000,-394.000,517.000,53.000,NA,0.000,0
2026-01-30 22:00:58,1792604,-1390.000,-3264.000,8235.000,160.000,354.000,-21.000,NA,0.000,0
2026-01-30 22:00:58,1792644,-929.000,-2097.000,8074.000,593.000,-40.000,-119.000,NA,0.000,0
2026-01-30 22:00:58,1792684,-970.000,-1172.000,8268.000,437.000,-110.000,-23.000,NA,0.000,0
2026-01-30 22:00:58,1792724,-1239.000,-2635.000,9038.000,-965.000,353.000,242.000,NA,0.000,0
2026-01-30 22:00:58,1792764,-1966.000,-3135.000,8490.000,422.000,425.000,237.000,NA,0.000,0
2026-01-30 22:00:58,1792804,-1355.000,-1684.000,8438.000,430.000,-213.000,172.000,NA,0.000,0
2026-01-30 22:00:58,1792844,-1325.000,-1969.000,8039.000,-210.000,-172.000,-2.000,NA,0.000,0
2026-01-30 22:00:58,1792884,-1141.000,-2213.000,8214.000,-320.000,-237.000,-139.000,NA,0.000,0
2026-01-30 22:00:58,1792924,-990.000,-2514.000,8351.000,-310.000,-117.000,-114.000,NA,0.000,0
2026-01-30 22:00:58,1792964,-1321.000,-2441.000,8158.000,14.000,45.000,-60.000,NA,0.000,0
2026-01-30 22:00:58,1793004,-1111.000,-1931.000,7901.000,162.000,-282.000,-126.000,NA,0.000,0
2026-01-30 22:00:58,1793044,-771.000,-2133.000,7802.000,-414.000,-307.000,-89.000,NA,0.000,0
2026-01-30 22:00:58,1793084,-821.000,-2831.000,8246.000,-504.000,-31.000,12.000,NA,0.000,0
2026-01-30 22:00:58,1793124,-1138.000,-3006.000,8242.000,10.000,107.000,14.000,NA,0.000,0
2026-01-30 22:00:58,1793164,-1077.000,-2249.000,8069.000,322.000,-106.000,-1.000,NA,0.000,0
2026-01-30 22:00:58,1793204,-916.000,-2185.000,7804.000,65.000,-222.000,-8.000,NA,0.000,0
2026-01-30 22:00:58,1793244,-672.000,-2044.000,8184.000,-116.000,-171.000,0.000,NA,0.000,0
2026-01-30 22:00:59,1793284,-931.000,-2951.000,7832.000,-82.000,45.000,38.000,NA,0.000,0
2026-01-30 22:00:59,1793324,-744.000,-2201.000,7776.000,337.000,-20.000,-20.000,NA,0.000,0
2026-01-30 22:00:59,1793364,-927.000,-2244.000,7875.000,13.000,114.000,9.000,NA,0.000,0
2026-01-30 22:00:59,1793404,-939.000,-2478.000,8439.000,-131.000,184.000,26.000,NA,0.000,0
2026-01-30 22:00:59,1793444,-978.000,-2629.000,8284.000,110.000,179.000,19.000,NA,0.000,0
2026-01-30 22:00:59,1793484,-1011.000,-2039.000,7970.000,474.000,15.000,76.000,NA,0.000,0
2026-01-30 22:00:59,1793524,-971.000,-1792.000,7913.000,306.000,-85.000,35.000,NA,0.000,0
2026-01-30 22:00:59,1793564,-873.000,-2187.000,8221.000,-156.000,24.000,105.000,NA,0.000,0
2026-01-30 22:00:59,1793604,-1224.000,-2330.000,7957.000,381.000,209.000,44.000,NA,0.000,0
2026-01-30 22:00:59,1793644,-1089.000,-1729.000,7969.000,327.000,43.000,84.000,NA,0.000,0
2026-01-30 22:00:59,1793684,-1103.000,-1609.000,8256.000,36.000,76.000,103.000,NA,0.000,0
2026-01-30 22:00:59,1793724,-1045.000,-2130.000,8709.000,-320.000,181.000,118.000,NA,0.000,0
2026-01-30 22:00:59,1793764,-1235.000,-2675.000,8472.000,24.000,209.000,67.000,NA,0.000,0
2026-01-30 22:00:59,1793804,-1125.000,-1971.000,8056.000,447.000,-58.000,-49.000,NA,0.000,0
2026-01-30 22:00:59,1793844,-607.000,-1422.000,8414.000,-268.000,-129.000,-52.000,NA,0.000,0
2026-01-30 22:00:59,1793884,-1035.000,-2471.000,8474.000,-476.000,172.000,-31.000,NA,0.000,0
2026-01-30 22:00:59,1793924,-1051.000,-2533.000,8412.000,-183.000,-12.000,43.000,NA,0.000,0
2026-01-30 22:00:59,1793964,-817.000,-2382.000,8396.000,-196.000,-93.000,76.000,NA,0.000,0
2026-01-30 22:00:59,1794004,-685.000,-2469.000,8660.000,-168.000,-40.000,-47.000,NA,0.000,0
2026-01-30 22:00:59,1794044,-654.000,-2567.000,8130.000,267.000,-105.000,-160.000,NA,0.000,0
2026-01-30 22:00:59,1794084,-596.000,-1473.000,7320.000,885.000,-333.000,-179.000,NA,0.000,0
2026-01-30 22:00:59,1794124,7.000,-448.000,8298.000,-246.000,-394.000,109.000,NA,0.000,0
2026-01-30 22:00:59,1794164,-646.000,-2970.000,8382.000,-1433.000,444.000,229.000,NA,0.000,0
2026-01-30 22:00:59,1794204,-645.000,-3973.000,8937.000,-664.000,418.000,148.000,NA,0.000,0
2026-01-30 22:00:59,1794244,-1062.000,-1838.000,8218.000,1670.000,39.000,-53.000,NA,0.000,0
2026-01-30 22:01:00,1794284,-664.000,-509.000,8300.000,594.000,-370.000,69.000,NA,0.000,0
2026-01-30 22:01:00,1794324,-464.000,-1220.000,8531.000,-503.000,-151.000,80.000,NA,0.000,0
2026-01-30 22:01:00,1794366,-211.000,-1525.000,9219.000,-381.000,60.000,167.000,NA,0.000,0
2026-01-30 22:01:00,1794406,-700.000,-2630.000,8569.000,-489.000,402.000,349.000,NA,0.000,0
2026-01-30 22:01:00,1794447,-405.000,-1214.000,8533.000,237.000,-315.000,-16.000,NA,0.000,0
2026-01-30 22:01:00,1794484,-495.000,-1454.000,7911.000,75.000,-354.000,-22.000,NA,0.000,0
2026-01-30 22:01:00,1794524,-61.000,-484.000,9384.000,-30.000,-362.000,-215.000,NA,0.000,0
2026-01-30 22:01:00,1794567,-696.000,-1064.000,7201.000,659.000,-232.000,-175.000,NA,0.000,0
2026-01-30 22:01:00,1794605,799.000,539.000,8384.000,714.000,-1531.000,-241.000,NA,0.000,0
2026-01-30 22:01:00,1794644,-355.000,-2322.000,6513.000,-1080.000,-526.000,-63.000,NA,0.000,0
2026-01-30 22:01:00,1794684,260.000,-933.000,7056.000,694.000,-942.000,-706.000,NA,0.000,0
2026-01-30 22:01:00,1794724,688.000,-1594.000,6639.000,-651.000,-904.000,-425.000,NA,0.000,0
2026-01-30 22:01:00,1794764,1380.000,-243.000,7465.000,-95.000,-331.000,-299.000,NA,0.000,0
2026-01-30 22:01:00,1794804,1281.000,-1495.000,7914.000,-1161.000,330.000,36.000,NA,0.000,0
2026-01-30 22:01:00,1794844,1643.000,-2166.000,8936.000,-1047.000,640.000,167.000,NA,0.000,0
2026-01-30 22:01:00,1794884,899.000,-3052.000,8672.000,-18.000,794.000,97.000,NA,0.000,0
2026-01-30 22:01:00,1794924,781.000,-1242.000,9346.000,1096.000,247.000,2.000,NA,0.000,0
2026-01-30 22:01:00,1794964,359.000,-1092.000,9181.000,468.000,289.000,119.000,NA,0.000,0
2026-01-30 22:01:00,1795004,485.000,-1133.000,8919.000,577.000,392.000,326.000,NA,0.000,0
2026-01-30 22:01:00,1795044,638.000,-286.000,8967.000,947.000,293.000,323.000,NA,0.000,0
2026-01-30 22:01:00,1795084,403.000,-765.000,8776.000,350.000,420.000,331.000,NA,0.000,0
2026-01-30 22:01:00,1795124,398.000,-388.000,8800.000,362.000,323.000,84.000,NA,0.000,0
2026-01-30 22:01:00,1795164,103.000,-1091.000,8330.000,-66.000,180.000,-104.000,NA,0.000,0
2026-01-30 22:01:00,1795204,36.000,-1162.000,8052.000,-154.000,-95.000,-234.000,NA,0.000,0
2026-01-30 22:01:00,1795244,72.000,-1012.000,8172.000,-339.000,-183.000,-207.000,NA,0.000,0
2026-01-30 22:01:01,1795284,-103.000,-1669.000,8249.000,-590.000,44.000,-61.000,NA,0.000,0
2026-01-30 22:01:01,1795324,-264.000,-1772.000,8166.000,-189.000,110.000,28.000,NA,0.000,0
2026-01-30 22:01:01,1795364,-388.000,-1365.000,7944.000,257.000,-22.000,127.000,NA,0.000,0
2026-01-30 22:01:01,1795404,-139.000,-844.000,8607.000,-75.000,-54.000,186.000,NA,0.000,0
2026-01-30 22:01:01,1795444,-62.000,-1291.000,9129.000,-367.000,209.000,208.000,NA,0.000,0
2026-01-30 22:01:01,1795484,-285.000,-1990.000,8199.000,130.000,294.000,18.000,NA,0.000,0
2026-01-30 22:01:01,1795524,-327.000,-1594.000,8245.000,146.000,-8.000,-69.000,NA,0.000,0
2026-01-30 22:01:01,1795564,-568.000,-1411.000,8362.000,171.000,15.000,-130.000,NA,0.000,0
2026-01-30 22:01:01,1795604,-230.000,-1202.000,9194.000,-61.000,154.000,-124.000,NA,0.000,0
2026-01-30 22:01:01,1795644,-681.000,-2993.000,8462.000,-334.000,534.000,28.000,NA,0.000,0
2026-01-30 22:01:01,1795684,-1129.000,-1388.000,7117.000,2017.000,-62.000,-232.000,NA,0.000,0
2026-01-30 22:01:01,1795724,119.000,63.000,9098.000,300.000,-722.000,184.000,NA,0.000,0
2026-01-30 22:01:01,1795764,-871.000,-2993.000,8723.000,-1092.000,823.000,-28.000,NA,0.000,0
2026-01-30 22:01:01,1795804,-595.000,-3414.000,7840.000,206.000,8.000,-173.000,NA,0.000,0
2026-01-30 22:01:01,1795844,-222.000,-552.000,7643.000,1445.000,-399.000,-346.000,NA,0.000,0
2026-01-30 22:01:01,1795884,-785.000,-603.000,8031.000,76.000,8.000,-29.000,NA,0.000,0
2026-01-30 22:01:01,1795924,-1154.000,-1170.000,9172.000,-156.000,136.000,120.000,NA,0.000,0
2026-01-30 22:01:01,1795964,-1224.000,-2012.000,9054.000,-72.000,227.000,348.000,NA,0.000,0
2026-01-30 22:01:01,1796004,-1171.000,-1363.000,7844.000,723.000,-22.000,252.000,NA,0.000,0
2026-01-30 22:01:01,1796044,-787.000,-1075.000,6154.000,790.000,-801.000,-231.000,NA,0.000,0
2026-01-30 22:01:01,1796084,261.000,-72.000,6407.000,414.000,-1434.000,-601.000,NA,0.000,0
2026-01-30 22:01:01,1796124,-38.000,-1990.000,8965.000,-2577.000,996.000,-29.000,NA,0.000,0
2026-01-30 22:01:01,1796164,-1553.000,-4113.000,8572.000,-118.000,1505.000,71.000,NA,0.000,0
2026-01-30 22:01:01,1796204,-1318.000,-2233.000,8515.000,1239.000,47.000,332.000,NA,0.000,0
2026-01-30 22:01:01,1796244,-707.000,232.000,8145.000,827.000,-765.000,21.000,NA,0.000,0
2026-01-30 22:01:02,1796284,-119.000,-730.000,8449.000,-1193.000,-424.000,-50.000,NA,0.000,0
2026-01-30 22:01:02,1796324,-124.000,-2772.000,7863.000,-742.000,-191.000,-309.000,NA,0.000,0
2026-01-30 22:01:02,1796364,597.000,-2897.000,9030.000,-1267.000,89.000,64.000,NA,0.000,0
2026-01-30 22:01:02,1796404,-885.000,-2905.000,8199.000,399.000,592.000,5.000,NA,0.000,0
2026-01-30 22:01:02,1796444,-366.000,-1886.000,9493.000,-65.000,-84.000,-73.000,NA,0.000,0
2026-01-30 22:01:02,1796484,-750.000,-1963.000,8384.000,240.000,35.000,-114.000,NA,0.000,0
2026-01-30 22:01:02,1796524,-243.000,-1519.000,8308.000,-32.000,-174.000,191.000,NA,0.000,0
2026-01-30 22:01:02,1796566,-493.000,-1973.000,8202.000,152.000,30.000,221.000,NA,0.000,0
2026-01-30 22:01:02,1796604,-675.000,-1868.000,8139.000,241.000,123.000,254.000,NA,0.000,0
2026-01-30 22:01:02,1796644,-754.000,-1511.000,7942.000,331.000,98.000,130.000,NA,0.000,0
2026-01-30 22:01:02,1796684,-577.000,-1777.000,8768.000,-305.000,50.000,107.000,NA,0.000,0
2026-01-30 22:01:02,1796724,-1066.000,-2314.000,7724.000,467.000,38.000,-40.000,NA,0.000,0
2026-01-30 22:01:02,1796764,-429.000,-851.000,7710.000,751.000,-314.000,-176.000,NA,0.000,0
2026-01-30 22:01:02,1796804,-139.000,-1012.000,7995.000,-463.000,-64.000,27.000,NA,0.000,0
2026-01-30 22:01:02,1796844,-392.000,-2011.000,8222.000,-128.000,181.000,-111.000,NA,0.000,0
2026-01-30 22:01:02,1796884,-840.000,-2504.000,8252.000,75.000,474.000,51.000,NA,0.000,0
2026-01-30 22:01:02,1796924,-685.000,-900.000,8755.000,754.000,62.000,14.000,NA,0.000,0
2026-01-30 22:01:02,1796964,-604.000,-1449.000,8836.000,-342.000,89.000,248.000,NA,0.000,0
2026-01-30 22:01:02,1797004,-743.000,-2105.000,9158.000,-69.000,322.000,89.000,NA,0.000,0
2026-01-30 22:01:02,1797044,-821.000,-2178.000,8254.000,472.000,143.000,-21.000,NA,0.000,0
2026-01-30 22:01:02,1797084,-224.000,-532.000,8614.000,686.000,-155.000,-92.000,NA,0.000,0
2026-01-30 22:01:02,1797124,-620.000,-1642.000,8550.000,-282.000,239.000,55.000,NA,0.000,0
2026-01-30 22:01:02,1797164,-620.000,-1125.000,8426.000,741.000,77.000,-171.000,NA,0.000,0
2026-01-30 22:01:02,1797204,-377.000,-1019.000,8090.000,287.000,-83.000,28.000,NA,0.000,0
2026-01-30 22:01:02,1797244,-504.000,-742.000,8414.000,377.000,-30.000,7.000,NA,0.000,0
2026-01-30 22:01:03,1797284,-542.000,-1100.000,8081.000,3.000,32.000,0.000,NA,0.000,0
2026-01-30 22:01:03,1797324,-454.000,-580.000,7896.000,526.000,-128.000,-158.000,NA,0.000,0
2026-01-30 22:01:03,1797364,-208.000,-580.000,8118.000,-239.000,-103.000,96.000,NA,0.000,0
2026-01-30 22:01:03,1797404,-317.000,-249.000,8460.000,244.000,-10.000,-32.000,NA,0.000,0
2026-01-30 22:01:03,1797444,-80.000,-1214.000,9242.000,-896.000,132.000,141.000,NA,0.000,0
2026-01-30 22:01:03,1797484,-420.000,-1229.000,8378.000,542.000,81.000,-154.000,NA,0.000,0
2026-01-30 22:01:03,1797524,273.000,-295.000,8077.000,240.000,-447.000,-173.000,NA,0.000,0
2026-01-30 22:01:03,1797564,507.000,-48.000,8073.000,-152.000,-436.000,-322.000,NA,0.000,0
2026-01-30 22:01:03,1797604,760.000,-906.000,9271.000,-946.000,-123.000,-197.000,NA,0.000,0
2026-01-30 22:01:03,1797644,167.000,-1891.000,8813.000,141.000,156.000,-185.000,NA,0.000,0
2026-01-30 22:01:03,1797684,206.000,-757.000,8221.000,760.000,-274.000,-79.000,NA,0.000,0
2026-01-30 22:01:03,1797724,33.000,103.000,7306.000,1158.000,-555.000,-73.000,NA,0.000,0
2026-01-30 22:01:03,1797764,986.000,1045.000,8915.000,-347.000,-403.000,79.000,NA,0.000,0
2026-01-30 22:01:03,1797804,603.000,-1264.000,9039.000,-1278.000,655.000,212.000,NA,0.000,0
2026-01-30 22:01:03,1797844,320.000,-1964.000,9028.000,-117.000,621.000,148.000,NA,0.000,0
2026-01-30 22:01:03,1797884,-201.000,-821.000,8733.000,481.000,105.000,64.000,NA,0.000,0
2026-01-30 22:01:03,1797924,-511.000,-459.000,8618.000,20.000,-251.000,-119.000,NA,0.000,0
2026-01-30 22:01:03,1797964,-207.000,-1129.000,8270.000,-491.000,-525.000,-295.000,NA,0.000,0
2026-01-30 22:01:03,1798004,692.000,-1386.000,8425.000,-704.000,-607.000,-222.000,NA,0.000,0
2026-01-30 22:01:03,1798044,385.000,-769.000,7478.000,927.000,-454.000,-195.000,NA,0.000,0
2026-01-30 22:01:03,1798084,635.000,-271.000,7578.000,55.000,-378.000,68.000,NA,0.000,0
2026-01-30 22:01:03,1798124,450.000,-547.000,7582.000,-36.000,-67.000,-7.000,NA,0.000,0
2026-01-30 22:01:03,1798164,774.000,-895.000,8671.000,-740.000,95.000,188.000,NA,0.000,0
2026-01-30 22:01:03,1798204,145.000,-2055.000,8658.000,-386.000,462.000,155.000,NA,0.000,0
2026-01-30 22:01:03,1798244,-56.000,-1307.000,8743.000,637.000,196.000,87.000,NA,0.000,0
2026-01-30 22:01:04,1798284,-100.000,-590.000,8416.000,300.000,-12.000,14.000,NA,0.000,0
2026-01-30 22:01:04,1798324,87.000,-1101.000,8547.000,-234.000,26.000,-13.000,NA,0.000,0
2026-01-30 22:01:04,1798367,330.000,-1551.000,8931.000,-133.000,232.000,-6.000,NA,0.000,0
2026-01-30 22:01:04,1798406,94.000,-1002.000,8957.000,332.000,217.000,34.000,NA,0.000,0
2026-01-30 22:01:04,1798444,-146.000,-1168.000,8511.000,206.000,213.000,25.000,NA,0.000,0
2026-01-30 22:01:04,1798484,18.000,-597.000,8306.000,418.000,-64.000,-56.000,NA,0.000,0
2026-01-30 22:01:04,1798524,326.000,-1083.000,8834.000,-605.000,132.000,147.000,NA,0.000,0
2026-01-30 22:01:04,1798567,42.000,-1421.000,9165.000,123.000,287.000,40.000,NA,0.000,0
2026-01-30 22:01:04,1798604,-46.000,-1650.000,8782.000,80.000,214.000,80.000,NA,0.000,0
2026-01-30 22:01:04,1798644,-257.000,-959.000,8160.000,588.000,-12.000,-86.000,NA,0.000,0
2026-01-30 22:01:04,1798684,-36.000,-606.000,8268.000,102.000,-280.000,-33.000,NA,0.000,0
2026-01-30 22:01:04,1798724,-54.000,-914.000,8360.000,-69.000,-31.000,16.000,NA,0.000,0
2026-01-30 22:01:04,1798764,-75.000,-1016.000,8373.000,114.000,108.000,62.000,NA,0.000,0
2026-01-30 22:01:04,1798804,-101.000,-815.000,8118.000,225.000,44.000,10.000,NA,0.000,0
2026-01-30 22:01:04,1798844,-8.000,-764.000,8249.000,-88.000,-57.000,-43.000,NA,0.000,0
2026-01-30 22:01:04,1798884,174.000,-1119.000,8607.000,-304.000,7.000,-82.000,NA,0.000,0
2026-01-30 22:01:04,1798924,1.000,-1561.000,8472.000,-64.000,122.000,-35.000,NA,0.000,0
2026-01-30 22:01:04,1798964,9.000,-901.000,8584.000,195.000,18.000,6.000,NA,0.000,0
2026-01-30 22:01:04,1799004,-76.000,-1259.000,8507.000,-106.000,71.000,55.000,NA,0.000,0
2026-01-30 22:01:04,1799044,71.000,-1252.000,8478.000,34.000,8.000,9.000,NA,0.000,0
2026-01-30 22:01:04,1799084,207.000,-1313.000,8541.000,-65.000,-12.000,29.000,NA,0.000,0
2026-01-30 22:01:04,1799124,-8.000,-1201.000,8434.000,208.000,49.000,-3.000,NA,0.000,0
2026-01-30 22:01:04,1799164,-47.000,-1039.000,8249.000,100.000,-16.000,12.000,NA,0.000,0
2026-01-30 22:01:04,1799204,-21.000,-1070.000,8222.000,93.000,-35.000,30.000,NA,0.000,0
2026-01-30 22:01:04,1799244,74.000,-977.000,8410.000,72.000,-30.000,59.000,NA,0.000,0
2026-01-30 22:01:05,1799284,-58.000,-1095.000,8273.000,221.000,50.000,23.000,NA,0.000,0
2026-01-30 22:01:05,1799324,167.000,-662.000,8183.000,283.000,-122.000,35.000,NA,0.000,0
2026-01-30 22:01:05,1799364,366.000,-527.000,8062.000,221.000,-108.000,-12.000,NA,0.000,0
2026-01-30 22:01:05,1799404,445.000,-455.000,8178.000,229.000,-73.000,-27.000,NA,0.000,0
2026-01-30 22:01:05,1799444,496.000,-506.000,8455.000,52.000,18.000,-4.000,NA,0.000,0
2026-01-30 22:01:05,1799484,358.000,-536.000,8459.000,248.000,83.000,-17.000,NA,0.000,0
2026-01-30 22:01:05,1799524,424.000,-434.000,8520.000,200.000,37.000,35.000,NA,0.000,0
2026-01-30 22:01:05,1799564,435.000,-217.000,8387.000,107.000,-60.000,-29.000,NA,0.000,0
2026-01-30 22:01:05,1799604,506.000,-489.000,8397.000,-194.000,-47.000,-60.000,NA,0.000,0
2026-01-30 22:01:05,1799644,459.000,-691.000,8622.000,-260.000,50.000,-34.000,NA,0.000,0
2026-01-30 22:01:05,1799684,310.000,-834.000,8680.000,-217.000,105.000,-3.000,NA,0.000,0
2026-01-30 22:01:05,1799724,149.000,-890.000,8595.000,-269.000,52.000,-30.000,NA,0.000,0
2026-01-30 22:01:05,1799764,43.000,-1159.000,8642.000,-472.000,-20.000,9.000,NA,0.000,0
2026-01-30 22:01:05,1799804,-86.000,-1289.000,8822.000,-345.000,2.000,20.000,NA,0.000,0
2026-01-30 22:01:05,1799844,-110.000,-1268.000,8769.000,-196.000,15.000,59.000,NA,0.000,0
2026-01-30 22:01:05,1799884,-35.000,-1078.000,8593.000,21.000,-2.000,42.000,NA,0.000,0
2026-01-30 22:01:05,1799924,24.000,-871.000,8653.000,-26.000,-2.000,38.000,NA,0.000,0
2026-01-30 22:01:05,1799964,-136.000,-1195.000,8784.000,-74.000,132.000,23.000,NA,0.000,0
2026-01-30 22:01:05,1800004,-225.000,-1226.000,8734.000,95.000,137.000,-3.000,NA,0.000,0
2026-01-30 22:01:05,1800044,-164.000,-1054.000,8545.000,123.000,21.000,-29.000,NA,0.000,0
2026-01-30 22:01:05,1800084,-55.000,-933.000,8351.000,36.000,-76.000,-69.000,NA,0.000,0
2026-01-30 22:01:05,1800124,58.000,-980.000,8523.000,-137.000,-11.000,-27.000,NA,0.000,0
2026-01-30 22:01:05,1800164,-2.000,-1215.000,8645.000,-96.000,115.000,-6.000,NA,0.000,0
2026-01-30 22:01:05,1800204,-35.000,-1250.000,8633.000,1.000,72.000,16.000,NA,0.000,0
2026-01-30 22:01:05,1800244,-167.000,-990.000,8626.000,70.000,24.000,19.000,NA,0.000,0
2026-01-30 22:01:06,1800284,-193.000,-946.000,8537.000,14.000,-32.000,25.000,NA,0.000,0
2026-01-30 22:01:06,1800324,-48.000,-1083.000,8567.000,-81.000,1.000,9.000,NA,0.000,0
2026-01-30 22:01:06,1800364,-3.000,-1088.000,8671.000,-85.000,51.000,23.000,NA,0.000,0
2026-01-30 22:01:06,1800404,-57.000,-1250.000,8625.000,-33.000,36.000,-8.000,NA,0.000,0
2026-01-30 22:01:06,1800444,-30.000,-1143.000,8417.000,52.000,-21.000,-22.000,NA,0.000,0
2026-01-30 22:01:06,1800484,139.000,-1126.000,8474.000,-150.000,-57.000,-19.000,NA,0.000,0
2026-01-30 22:01:06,1800524,141.000,-1368.000,8662.000,-160.000,33.000,15.000,NA,0.000,0
2026-01-30 22:01:06,1800566,-102.000,-1119.000,8531.000,148.000,47.000,55.000,NA,0.000,0
2026-01-30 22:01:06,1800604,-87.000,-1106.000,8439.000,47.000,-2.000,72.000,NA,0.000,0
2026-01-30 22:01:06,1800644,-64.000,-1152.000,8390.000,12.000,-22.000,17.000,NA,0.000,0
2026-01-30 22:01:06,1800684,-50.000,-1252.000,8489.000,-49.000,-33.000,30.000,NA,0.000,0
2026-01-30 22:01:06,1800724,-163.000,-964.000,8271.000,265.000,-17.000,18.000,NA,0.000,0
2026-01-30 22:01:06,1800764,-39.000,-665.000,8199.000,157.000,-133.000,7.000,NA,0.000,0
2026-01-30 22:01:06,1800804,140.000,-862.000,8377.000,-83.000,-52.000,44.000,NA,0.000,0
2026-01-30 22:01:06,1800844,303.000,-883.000,8575.000,67.000,-55.000,10.000,NA,0.000,0
2026-01-30 22:01:06,1800884,352.000,-869.000,8548.000,145.000,-38.000,-2.000,NA,0.000,0
2026-01-30 22:01:06,1800924,311.000,-660.000,8256.000,281.000,-115.000,-60.000,NA,0.000,0
2026-01-30 22:01:06,1800964,568.000,-503.000,8232.000,68.000,-261.000,-90.000,NA,0.000,0
2026-01-30 22:01:06,1801004,695.000,-565.000,8384.000,-31.000,-144.000,-85.000,NA,0.000,0
2026-01-30 22:01:06,1801044,747.000,-571.000,8465.000,13.000,-30.000,-45.000,NA,0.000,0
2026-01-30 22:01:06,1801084,662.000,-597.000,8603.000,-56.000,25.000,5.000,NA,0.000,0
2026-01-30 22:01:06,1801124,528.000,-842.000,8638.000,-177.000,55.000,28.000,NA,0.000,0
2026-01-30 22:01:06,1801164,384.000,-848.000,8494.000,31.000,40.000,-1.000,NA,0.000,0
2026-01-30 22:01:06,1801204,323.000,-692.000,8572.000,-128.000,42.000,37.000,NA,0.000,0
2026-01-30 22:01:06,1801244,173.000,-951.000,8643.000,-210.000,128.000,63.000,NA,0.000,0
2026-01-30 22:01:07,1801284,116.000,-981.000,8773.000,-71.000,123.000,107.000,NA,0.000,0
2026-01-30 22:01:07,1801324,7.000,-852.000,8668.000,100.000,84.000,103.000,NA,0.000,0
2026-01-30 22:01:07,1801364,-51.000,-556.000,8598.000,110.000,-42.000,74.000,NA,0.000,0
2026-01-30 22:01:07,1801404,42.000,-861.000,8577.000,-277.000,-131.000,18.000,NA,0.000,0
2026-01-30 22:01:07,1801444,252.000,-1073.000,8520.000,-185.000,-180.000,-67.000,NA,0.000,0
2026-01-30 22:01:07,1801484,190.000,-959.000,8152.000,89.000,-227.000,-100.000,NA,0.000,0
2026-01-30 22:01:07,1801524,263.000,-853.000,8065.000,-146.000,-279.000,-54.000,NA,0.000,0
2026-01-30 22:01:07,1801564,349.000,-1027.000,8114.000,-224.000,-257.000,-54.000,NA,0.000,0
2026-01-30 22:01:07,1801604,567.000,-1151.000,8305.000,-341.000,-192.000,22.000,NA,0.000,0
2026-01-30 22:01:07,1801644,456.000,-1217.000,8356.000,-79.000,-41.000,40.000,NA,0.000,0
2026-01-30 22:01:07,1801684,314.000,-1181.000,8480.000,-21.000,-13.000,94.000,NA,0.000,0
2026-01-30 22:01:07,1801724,313.000,-1107.000,8315.000,9.000,-73.000,47.000,NA,0.000,0
2026-01-30 22:01:07,1801764,397.000,-1033.000,8129.000,50.000,-78.000,-7.000,NA,0.000,0
2026-01-30 22:01:07,1801804,625.000,-918.000,8675.000,-175.000,118.000,21.000,NA,0.000,0
2026-01-30 22:01:07,1801844,11.000,-1582.000,8468.000,141.000,484.000,53.000,NA,0.000,0
2026-01-30 22:01:07,1801884,-107.000,-792.000,8401.000,361.000,225.000,53.000,NA,0.000,0
2026-01-30 22:01:07,1801924,-205.000,-894.000,8631.000,-217.000,214.000,126.000,NA,0.000,0
2026-01-30 22:01:07,1801964,-439.000,-1432.000,9112.000,-328.000,347.000,192.000,NA,0.000,0
2026-01-30 22:01:07,1802004,-673.000,-1692.000,8878.000,95.000,243.000,189.000,NA,0.000,0
2026-01-30 22:01:07,1802044,-572.000,-1105.000,8673.000,248.000,-101.000,61.000,NA,0.000,0
2026-01-30 22:01:07,1802084,-392.000,-1048.000,8385.000,-2.000,-290.000,-33.000,NA,0.000,0
2026-01-30 22:01:07,1802124,-265.000,-1127.000,7878.000,171.000,-322.000,-181.000,NA,0.000,0
2026-01-30 22:01:07,1802164,14.000,-822.000,7559.000,164.000,-359.000,-180.000,NA,0.000,0
2026-01-30 22:01:07,1802204,144.000,-1097.000,7993.000,-286.000,-147.000,-122.000,NA,0.000,0
2026-01-30 22:01:07,1802244,10.000,-1820.000,8592.000,-644.000,239.000,-41.000,NA,0.000,0
2026-01-30 22:01:08,1802284,-147.000,-2446.000,8617.000,-452.000,277.000,1.000,NA,0.000,0
2026-01-30 22:01:08,1802324,-315.000,-1543.000,8234.000,478.000,-8.000,-58.000,NA,0.000,0
2026-01-30 22:01:08,1802364,-134.000,-1379.000,8514.000,-272.000,-104.000,78.000,NA,0.000,0
2026-01-30 22:01:08,1802407,-121.000,-1430.000,8726.000,82.000,55.000,79.000,NA,0.000,0
2026-01-30 22:01:08,1802446,-312.000,-1892.000,8767.000,-54.000,214.000,185.000,NA,0.000,0
2026-01-30 22:01:08,1802484,-559.000,-1792.000,8779.000,263.000,295.000,188.000,NA,0.000,0
2026-01-30 22:01:08,1802524,-857.000,-1553.000,8651.000,359.000,174.000,227.000,NA,0.000,0
2026-01-30 22:01:08,1802567,-462.000,-870.000,8115.000,336.000,-136.000,-21.000,NA,0.000,0
2026-01-30 22:01:08,1802604,-298.000,-1017.000,8321.000,-190.000,-164.000,15.000,NA,0.000,0
2026-01-30 22:01:08,1802644,-531.000,-1737.000,8432.000,-185.000,146.000,-25.000,NA,0.000,0
2026-01-30 22:01:08,1802684,-598.000,-1645.000,8395.000,70.000,52.000,-39.000,NA,0.000,0
2026-01-30 22:01:08,1802724,-541.000,-1203.000,8157.000,164.000,-76.000,-89.000,NA,0.000,0
2026-01-30 22:01:08,1802764,-306.000,-1262.000,8376.000,-269.000,-125.000,-29.000,NA,0.000,0
2026-01-30 22:01:08,1802804,-385.000,-1899.000,8165.000,-136.000,-5.000,-79.000,NA,0.000,0
2026-01-30 22:01:08,1802844,-385.000,-1325.000,8217.000,200.000,-12.000,-12.000,NA,0.000,0
2026-01-30 22:01:08,1802884,-527.000,-1093.000,8390.000,-7.000,93.000,50.000,NA,0.000,0
2026-01-30 22:01:08,1802924,-519.000,-1555.000,8590.000,-131.000,104.000,67.000,NA,0.000,0
2026-01-30 22:01:08,1802964,-383.000,-1152.000,8505.000,200.000,49.000,36.000,NA,0.000,0
2026-01-30 22:01:08,1803004,-391.000,-827.000,8440.000,236.000,19.000,-14.000,NA,0.000,0
2026-01-30 22:01:08,1803044,-321.000,-1140.000,8554.000,-167.000,22.000,-71.000,NA,0.000,0
2026-01-30 22:01:08,1803084,-481.000,-1460.000,8408.000,21.000,33.000,-149.000,NA,0.000,0
2026-01-30 22:01:08,1803124,-303.000,-937.000,8460.000,160.000,-68.000,-111.000,NA,0.000,0
2026-01-30 22:01:08,1803164,-141.000,-936.000,8759.000,22.000,-33.000,-12.000,NA,0.000,0
2026-01-30 22:01:08,1803204,43.000,-857.000,8504.000,185.000,-15.000,-61.000,NA,0.000,0
2026-01-30 22:01:08,1803244,282.000,-876.000,8457.000,38.000,-154.000,-84.000,NA,0.000,0
2026-01-30 22:01:09,1803284,182.000,-807.000,8216.000,219.000,-95.000,-98.000,NA,0.000,0
2026-01-30 22:01:09,1803324,160.000,-915.000,8155.000,-57.000,-14.000,-98.000,NA,0.000,0
2026-01-30 22:01:09,1803364,103.000,-708.000,8332.000,-148.000,-49.000,-104.000,NA,0.000,0
2026-01-30 22:01:09,1803404,-196.000,-1332.000,8550.000,-382.000,153.000,5.000,NA,0.000,0
2026-01-30 22:01:09,1803444,-446.000,-1445.000,8643.000,-65.000,155.000,79.000,NA,0.000,0
2026-01-30 22:01:09,1803484,-505.000,-1187.000,8455.000,16.000,18.000,103.000,NA,0.000,0
2026-01-30 22:01:09,1803524,-464.000,-1073.000,8158.000,-54.000,-73.000,32.000,NA,0.000,0
2026-01-30 22:01:09,1803564,-9.000,-1070.000,8515.000,-504.000,-177.000,-23.000,NA,0.000,0
2026-01-30 22:01:09,1803604,-177.000,-2043.000,8615.000,-509.000,64.000,-60.000,NA,0.000,0
2026-01-30 22:01:09,1803644,-399.000,-1669.000,8678.000,143.000,81.000,-35.000,NA,0.000,0
2026-01-30 22:01:09,1803684,-522.000,-1259.000,8260.000,216.000,-45.000,-12.000,NA,0.000,0
2026-01-30 22:01:09,1803724,-485.000,-1383.000,8237.000,-48.000,-147.000,-12.000,NA,0.000,0
2026-01-30 22:01:09,1803764,-287.000,-1920.000,8380.000,-254.000,-70.000,-3.000,NA,0.000,0
2026-01-30 22:01:09,1803804,-314.000,-1495.000,8207.000,242.000,-15.000,-18.000,NA,0.000,0
2026-01-30 22:01:09,1803844,-324.000,-1156.000,8142.000,129.000,-96.000,-3.000,NA,0.000,0
2026-01-30 22:01:09,1803884,-463.000,-1355.000,8289.000,-110.000,-24.000,3.000,NA,0.000,0
2026-01-30 22:01:09,1803924,-516.000,-1690.000,8274.000,-128.000,6.000,-4.000,NA,0.000,0
2026-01-30 22:01:09,1803964,-383.000,-1590.000,8147.000,41.000,-58.000,-20.000,NA,0.000,0
2026-01-30 22:01:09,1804004,-403.000,-1353.000,8309.000,-15.000,5.000,-3.000,NA,0.000,0
2026-01-30 22:01:09,1804044,-540.000,-1602.000,8530.000,-174.000,84.000,23.000,NA,0.000,0
2026-01-30 22:01:09,1804084,-570.000,-1787.000,8649.000,-121.000,54.000,27.000,NA,0.000,0
2026-01-30 22:01:09,1804124,-637.000,-1766.000,8246.000,88.000,-79.000,2.000,NA,0.000,0
2026-01-30 22:01:09,1804164,-466.000,-1221.000,8286.000,179.000,-209.000,-53.000,NA,0.000,0
2026-01-30 22:01:09,1804204,-462.000,-1572.000,8346.000,-210.000,-120.000,-22.000,NA,0.000,0
2026-01-30 22:01:09,1804244,-473.000,-1652.000,8504.000,-75.000,-62.000,-30.000,NA,0.000,0
2026-01-30 22:01:10,1804284,-505.000,-1794.000,8361.000,-5.000,-54.000,1.000,NA,0.000,0
2026-01-30 22:01:10,1804324,-520.000,-1349.000,8249.000,282.000,-119.000,-17.000,NA,0.000,0
2026-01-30 22:01:10,1804364,-507.000,-1534.000,7835.000,-17.000,-150.000,-16.000,NA,0.000,0
2026-01-30 22:01:10,1804404,-243.000,-1046.000,8101.000,64.000,-236.000,-101.000,NA,0.000,0
2026-01-30 22:01:10,1804444,-282.000,-1861.000,8408.000,-527.000,20.000,55.000,NA,0.000,0
2026-01-30 22:01:10,1804484,-518.000,-1883.000,8513.000,-16.000,132.000,30.000,NA,0.000,0
2026-01-30 22:01:10,1804524,-410.000,-1295.000,8387.000,150.000,-91.000,3.000,NA,0.000,0
2026-01-30 22:01:10,1804567,-351.000,-1914.000,8258.000,-253.000,-99.000,-48.000,NA,0.000,0
2026-01-30 22:01:10,1804604,-163.000,-1875.000,8400.000,-172.000,-145.000,-73.000,NA,0.000,0
2026-01-30 22:01:10,1804644,-289.000,-1967.000,8179.000,-25.000,-6.000,-23.000,NA,0.000,0
2026-01-30 22:01:10,1804684,-349.000,-1275.000,8622.000,88.000,38.000,52.000,NA,0.000,0
2026-01-30 22:01:10,1804724,-662.000,-1856.000,8506.000,-67.000,156.000,139.000,NA,0.000,0
2026-01-30 22:01:10,1804764,-330.000,-1559.000,8566.000,66.000,-46.000,82.000,NA,0.000,0
2026-01-30 22:01:10,1804804,-370.000,-2079.000,7983.000,-58.000,-59.000,16.000,NA,0.000,0
2026-01-30 22:01:10,1804844,-101.000,-1370.000,8259.000,108.000,-158.000,-108.000,NA,0.000,0
2026-01-30 22:01:10,1804884,-583.000,-2125.000,8423.000,55.000,221.000,-21.000,NA,0.000,0
2026-01-30 22:01:10,1804924,-514.000,-1598.000,8428.000,280.000,17.000,70.000,NA,0.000,0
2026-01-30 22:01:10,1804964,-511.000,-1430.000,8086.000,145.000,-44.000,72.000,NA,0.000,0
2026-01-30 22:01:10,1805004,-179.000,-1356.000,8312.000,-85.000,-116.000,59.000,NA,0.000,0
2026-01-30 22:01:10,1805044,-130.000,-1844.000,8253.000,19.000,46.000,12.000,NA,0.000,0
2026-01-30 22:01:10,1805084,-96.000,-1324.000,8355.000,354.000,64.000,-29.000,NA,0.000,0
2026-01-30 22:01:10,1805124,-157.000,-1283.000,8144.000,199.000,32.000,-28.000,NA,0.000,0
2026-01-30 22:01:10,1805164,-69.000,-1123.000,8290.000,114.000,-5.000,-51.000,NA,0.000,0
2026-01-30 22:01:10,1805204,-192.000,-1519.000,8414.000,-49.000,101.000,28.000,NA,0.000,0
2026-01-30 22:01:10,1805244,-373.000,-1308.000,8469.000,295.000,125.000,57.000,NA,0.000,0
2026-01-30 22:01:11,1805284,84.000,-787.000,8114.000,365.000,-61.000,-2.000,NA,0.000,0
2026-01-30 22:01:11,1805324,450.000,-799.000,8442.000,-128.000,-58.000,-66.000,NA,0.000,0
2026-01-30 22:01:11,1805364,286.000,-1392.000,8521.000,-63.000,107.000,-73.000,NA,0.000,0
2026-01-30 22:01:11,1805404,-146.000,-1189.000,8408.000,321.000,166.000,-46.000,NA,0.000,0
2026-01-30 22:01:11,1805444,-445.000,-925.000,8229.000,149.000,80.000,3.000,NA,0.000,0
2026-01-30 22:01:11,1805484,-430.000,-1107.000,8332.000,-237.000,29.000,4.000,NA,0.000,0
2026-01-30 22:01:11,1805524,-200.000,-1553.000,8521.000,-367.000,55.000,11.000,NA,0.000,0
2026-01-30 22:01:11,1805564,-182.000,-1540.000,8536.000,-97.000,144.000,35.000,NA,0.000,0
2026-01-30 22:01:11,1805604,-285.000,-1246.000,8606.000,22.000,131.000,38.000,NA,0.000,0
2026-01-30 22:01:11,1805644,-538.000,-1629.000,8404.000,-157.000,61.000,-14.000,NA,0.000,0
2026-01-30 22:01:11,1805684,-486.000,-1584.000,8636.000,-78.000,-42.000,-40.000,NA,0.000,0
2026-01-30 22:01:11,1805724,-661.000,-1733.000,8470.000,100.000,46.000,18.000,NA,0.000,0
2026-01-30 22:01:11,1805764,-567.000,-1146.000,8261.000,344.000,-78.000,-7.000,NA,0.000,0
2026-01-30 22:01:11,1805804,-462.000,-1211.000,8038.000,52.000,-123.000,-17.000,NA,0.000,0
2026-01-30 22:01:11,1805844,-476.000,-1350.000,8058.000,-71.000,-106.000,-32.000,NA,0.000,0
2026-01-30 22:01:11,1805884,-500.000,-1618.000,8172.000,-109.000,-77.000,-37.000,NA,0.000,0
2026-01-30 22:01:11,1805924,-546.000,-1361.000,8168.000,157.000,-47.000,-48.000,NA,0.000,0
2026-01-30 22:01:11,1805964,-391.000,-1220.000,8122.000,7.000,-113.000,-6.000,NA,0.000,0
2026-01-30 22:01:11,1806004,-252.000,-1455.000,8157.000,-152.000,-69.000,-18.000,NA,0.000,0
2026-01-30 22:01:11,1806044,-304.000,-1779.000,8188.000,2.000,-1.000,-13.000,NA,0.000,0
2026-01-30 22:01:11,1806084,-412.000,-1198.000,8150.000,268.000,31.000,-9.000,NA,0.000,0
2026-01-30 22:01:11,1806124,-377.000,-1246.000,8489.000,-197.000,86.000,56.000,NA,0.000,0
2026-01-30 22:01:11,1806164,-433.000,-1888.000,8759.000,-263.000,186.000,55.000,NA,0.000,0
2026-01-30 22:01:11,1806204,-492.000,-1873.000,8510.000,129.000,92.000,17.000,NA,0.000,0
2026-01-30 22:01:11,1806244,-438.000,-1089.000,8330.000,359.000,-64.000,-35.000,NA,0.000,0
2026-01-30 22:01:12,1806284,-351.000,-1009.000,8449.000,49.000,-50.000,8.000,NA,0.000,0
2026-01-30 22:01:12,1806324,-257.000,-1370.000,8751.000,-94.000,44.000,3.000,NA,0.000,0
2026-01-30 22:01:12,1806364,-351.000,-1602.000,8492.000,179.000,81.000,-12.000,NA,0.000,0
2026-01-30 22:01:12,1806407,-347.000,-892.000,8182.000,93.000,-65.000,-38.000,NA,0.000,0
2026-01-30 22:01:12,1806446,-214.000,-1023.000,8566.000,-9.000,38.000,-14.000,NA,0.000,0
2026-01-30 22:01:12,1806484,-168.000,-1127.000,8399.000,85.000,68.000,-8.000,NA,0.000,0
2026-01-30 22:01:12,1806524,230.000,-533.000,8338.000,308.000,-54.000,-60.000,NA,0.000,0
2026-01-30 22:01:12,1806564,232.000,-754.000,8641.000,-38.000,68.000,-12.000,NA,0.000,0
2026-01-30 22:01:12,1806604,37.000,-1107.000,8783.000,-59.000,130.000,-19.000,NA,0.000,0
2026-01-30 22:01:12,1806644,-70.000,-1011.000,8320.000,339.000,-19.000,-98.000,NA,0.000,0
2026-01-30 22:01:12,1806684,401.000,-165.000,8379.000,303.000,-218.000,-106.000,NA,0.000,0
2026-01-30 22:01:12,1806724,539.000,-603.000,8649.000,-247.000,-53.000,-93.000,NA,0.000,0
2026-01-30 22:01:12,1806764,682.000,-787.000,8773.000,43.000,14.000,-102.000,NA,0.000,0
2026-01-30 22:01:12,1806804,399.000,-489.000,8280.000,342.000,127.000,-27.000,NA,0.000,0
2026-01-30 22:01:12,1806844,354.000,-307.000,8293.000,32.000,13.000,-42.000,NA,0.000,0
2026-01-30 22:01:12,1806884,335.000,-827.000,8384.000,-327.000,47.000,-79.000,NA,0.000,0
2026-01-30 22:01:12,1806924,243.000,-1048.000,8640.000,-256.000,117.000,-37.000,NA,0.000,0
2026-01-30 22:01:12,1806964,95.000,-945.000,8643.000,-27.000,135.000,29.000,NA,0.000,0
2026-01-30 22:01:12,1807004,-14.000,-603.000,8685.000,155.000,76.000,65.000,NA,0.000,0
2026-01-30 22:01:12,1807044,6.000,-643.000,8928.000,-162.000,45.000,116.000,NA,0.000,0
2026-01-30 22:01:12,1807084,-105.000,-965.000,8348.000,64.000,-37.000,-36.000,NA,0.000,0
2026-01-30 22:01:12,1807124,236.000,-464.000,8266.000,80.000,-266.000,-69.000,NA,0.000,0
2026-01-30 22:01:12,1807164,-16.000,-787.000,8351.000,-125.000,-49.000,-63.000,NA,0.000,0
2026-01-30 22:01:12,1807204,118.000,-782.000,8515.000,-100.000,12.000,-49.000,NA,0.000,0
2026-01-30 22:01:12,1807244,133.000,-976.000,8501.000,-130.000,-52.000,-70.000,NA,0.000,0
2026-01-30 22:01:13,1807284,192.000,-1078.000,8584.000,-223.000,-130.000,-31.000,NA,0.000,0
2026-01-30 22:01:13,1807324,123.000,-1060.000,8422.000,-15.000,-149.000,-58.000,NA,0.000,0
2026-01-30 22:01:13,1807364,140.000,-923.000,8356.000,-56.000,-169.000,16.000,NA,0.000,0
2026-01-30 22:01:13,1807404,146.000,-873.000,8374.000,-81.000,-126.000,45.000,NA,0.000,0
2026-01-30 22:01:13,1807444,342.000,-1035.000,8378.000,-207.000,-115.000,-1.000,NA,0.000,0
2026-01-30 22:01:13,1807484,430.000,-1251.000,8571.000,-262.000,-30.000,-15.000,NA,0.000,0
2026-01-30 22:01:13,1807524,148.000,-1392.000,8672.000,-34.000,86.000,-19.000,NA,0.000,0
2026-01-30 22:01:13,1807564,5.000,-1020.000,8276.000,258.000,-61.000,-39.000,NA,0.000,0
2026-01-30 22:01:13,1807604,179.000,-826.000,8367.000,-41.000,-65.000,20.000,NA,0.000,0
2026-01-30 22:01:13,1807644,84.000,-1181.000,8576.000,-105.000,106.000,49.000,NA,0.000,0
2026-01-30 22:01:13,1807684,0.000,-1248.000,8712.000,38.000,160.000,100.000,NA,0.000,0
2026-01-30 22:01:13,1807724,-249.000,-1126.000,8470.000,302.000,118.000,72.000,NA,0.000,0
2026-01-30 22:01:13,1807764,-248.000,-687.000,8373.000,303.000,-58.000,16.000,NA,0.000,0
2026-01-30 22:01:13,1807804,-33.000,-796.000,8286.000,-59.000,-144.000,-73.000,NA,0.000,0
2026-01-30 22:01:13,1807844,238.000,-1301.000,8672.000,-358.000,-63.000,-60.000,NA,0.000,0
2026-01-30 22:01:13,1807884,-89.000,-1708.000,8277.000,61.000,65.000,-90.000,NA,0.000,0
2026-01-30 22:01:13,1807924,75.000,-394.000,8207.000,540.000,-206.000,-39.000,NA,0.000,0
2026-01-30 22:01:13,1807964,-149.000,-734.000,8122.000,0.000,14.000,47.000,NA,0.000,0
2026-01-30 22:01:13,1808004,86.000,-950.000,8608.000,-184.000,70.000,92.000,NA,0.000,0
2026-01-30 22:01:13,1808044,-50.000,-1254.000,8609.000,-84.000,164.000,58.000,NA,0.000,0
2026-01-30 22:01:13,1808084,-132.000,-988.000,8187.000,224.000,10.000,-60.000,NA,0.000,0
2026-01-30 22:01:13,1808124,137.000,-403.000,8455.000,26.000,-104.000,-113.000,NA,0.000,0
2026-01-30 22:01:13,1808164,-92.000,-1338.000,8287.000,-249.000,166.000,-77.000,NA,0.000,0
2026-01-30 22:01:13,1808204,157.000,-962.000,8704.000,49.000,53.000,-40.000,NA,0.000,0
2026-01-30 22:01:13,1808244,-74.000,-1155.000,8484.000,42.000,143.000,17.000,NA,0.000,0
2026-01-30 22:01:14,1808284,146.000,-512.000,8533.000,222.000,-55.000,18.000,NA,0.000,0
2026-01-30 22:01:14,1808324,343.000,-886.000,8809.000,-27.000,93.000,15.000,NA,0.000,0
2026-01-30 22:01:14,1808364,238.000,-650.000,8661.000,336.000,37.000,-37.000,NA,0.000,0
2026-01-30 22:01:14,1808409,271.000,-762.000,8281.000,98.000,2.000,-127.000,NA,0.000,0
2026-01-30 22:01:14,1808444,363.000,-577.000,8222.000,220.000,-82.000,-180.000,NA,0.000,0
2026-01-30 22:01:14,1808488,806.000,-398.000,8347.000,-39.000,-102.000,-183.000,NA,0.000,0
2026-01-30 22:01:14,1808524,817.000,-466.000,8524.000,-84.000,5.000,-113.000,NA,0.000,0
2026-01-30 22:01:14,1808567,436.000,-661.000,8419.000,244.000,141.000,8.000,NA,0.000,0
2026-01-30 22:01:14,1808605,436.000,-459.000,8365.000,250.000,53.000,41.000,NA,0.000,0
2026-01-30 22:01:14,1808644,283.000,-324.000,8494.000,-81.000,5.000,74.000,NA,0.000,0
2026-01-30 22:01:14,1808684,116.000,-1095.000,8515.000,-407.000,66.000,76.000,NA,0.000,0
2026-01-30 22:01:14,1808724,368.000,-800.000,8577.000,-36.000,-62.000,-14.000,NA,0.000,0
2026-01-30 22:01:14,1808764,163.000,-669.000,8433.000,49.000,84.000,-37.000,NA,0.000,0
2026-01-30 22:01:14,1808804,183.000,-954.000,8454.000,-182.000,39.000,-14.000,NA,0.000,0
2026-01-30 22:01:14,1808844,285.000,-874.000,8205.000,4.000,-22.000,-79.000,NA,0.000,0
2026-01-30 22:01:14,1808884,335.000,-829.000,8687.000,-329.000,34.000,52.000,NA,0.000,0
2026-01-30 22:01:14,1808924,-44.000,-1406.000,8649.000,-215.000,226.000,73.000,NA,0.000,0
2026-01-30 22:01:14,1808964,-15.000,-947.000,8593.000,175.000,37.000,71.000,NA,0.000,0
2026-01-30 22:01:14,1809004,-107.000,-1014.000,8358.000,-41.000,46.000,83.000,NA,0.000,0
2026-01-30 22:01:14,1809044,-107.000,-970.000,8569.000,-33.000,-11.000,19.000,NA,0.000,0
2026-01-30 22:01:14,1809084,72.000,-1286.000,8304.000,-64.000,-56.000,-76.000,NA,0.000,0
2026-01-30 22:01:14,1809124,92.000,-1038.000,8505.000,16.000,-18.000,-3.000,NA,0.000,0
2026-01-30 22:01:14,1809164,-192.000,-1104.000,8503.000,91.000,63.000,15.000,NA,0.000,0
2026-01-30 22:01:14,1809204,-216.000,-1030.000,8484.000,131.000,0.000,43.000,NA,0.000,0
2026-01-30 22:01:14,1809244,-93.000,-1013.000,8261.000,107.000,-75.000,-5.000,NA,0.000,0
2026-01-30 22:01:15,1809284,35.000,-1008.000,8141.000,19.000,-98.000,-22.000,NA,0.000,0
2026-01-30 22:01:15,1809324,79.000,-1042.000,8215.000,-23.000,-34.000,-59.000,NA,0.000,0
2026-01-30 22:01:15,1809364,-107.000,-1165.000,8478.000,-79.000,114.000,-14.000,NA,0.000,0
2026-01-30 22:01:15,1809404,-274.000,-1051.000,8558.000,161.000,142.000,63.000,NA,0.000,0
2026-01-30 22:01:15,1809444,-347.000,-1100.000,8265.000,42.000,68.000,92.000,NA,0.000,0
2026-01-30 22:01:15,1809484,-116.000,-819.000,8418.000,-89.000,-77.000,2.000,NA,0.000,0
2026-01-30 22:01:15,1809524,-48.000,-1271.000,8608.000,-292.000,19.000,-25.000,NA,0.000,0
2026-01-30 22:01:15,1809564,-194.000,-1486.000,8596.000,-91.000,98.000,-23.000,NA,0.000,0
2026-01-30 22:01:15,1809604,-232.000,-1166.000,8333.000,151.000,-42.000,-69.000,NA,0.000,0
2026-01-30 22:01:15,1809644,-165.000,-1057.000,8415.000,-53.000,-50.000,-6.000,NA,0.000,0
2026-01-30 22:01:15,1809684,-267.000,-1290.000,8290.000,30.000,11.000,2.000,NA,0.000,0
2026-01-30 22:01:15,1809724,-47.000,-955.000,8392.000,85.000,-52.000,34.000,NA,0.000,0
2026-01-30 22:01:15,1809764,-179.000,-1100.000,8546.000,-88.000,65.000,57.000,NA,0.000,0
2026-01-30 22:01:15,1809804,-324.000,-1358.000,8517.000,34.000,14.000,-10.000,NA,0.000,0
2026-01-30 22:01:15,1809844,-312.000,-964.000,8234.000,269.000,-45.000,-51.000,NA,0.000,0
2026-01-30 22:01:15,1809884,-97.000,-677.000,8330.000,153.000,-81.000,-32.000,NA,0.000,0
2026-01-30 22:01:15,1809924,141.000,-960.000,8488.000,-14.000,-21.000,-30.000,NA,0.000,0
2026-01-30 22:01:15,1809964,221.000,-913.000,8468.000,210.000,-20.000,-57.000,NA,0.000,0
2026-01-30 22:01:15,1810004,346.000,-801.000,8308.000,169.000,-95.000,-51.000,NA,0.000,0
2026-01-30 22:01:15,1810044,378.000,-612.000,8532.000,157.000,-55.000,-58.000,NA,0.000,0
2026-01-30 22:01:15,1810084,213.000,-696.000,8121.000,328.000,-6.000,-39.000,NA,0.000,0
2026-01-30 22:01:15,1810124,554.000,-39.000,8479.000,281.000,-50.000,-2.000,NA,0.000,0
2026-01-30 22:01:15,1810164,480.000,-537.000,8580.000,-80.000,153.000,26.000,NA,0.000,0
2026-01-30 22:01:15,1810204,554.000,-538.000,8602.000,76.000,85.000,-42.000,NA,0.000,0
2026-01-30 22:01:15,1810244,438.000,-554.000,8396.000,34.000,0.000,-86.000,NA,0.000,0
2026-01-30 22:01:16,1810284,456.000,-376.000,8457.000,21.000,-59.000,-60.000,NA,0.000,0
2026-01-30 22:01:16,1810324,376.000,-641.000,8541.000,-89.000,78.000,15.000,NA,0.000,0
2026-01-30 22:01:16,1810364,289.000,-386.000,8798.000,103.000,137.000,91.000,NA,0.000,0
2026-01-30 22:01:16,1810407,203.000,-427.000,8509.000,89.000,-24.000,35.000,NA,0.000,0
2026-01-30 22:01:16,1810446,336.000,-438.000,8498.000,-118.000,-94.000,-2.000,NA,0.000,0
2026-01-30 22:01:16,1810484,345.000,-547.000,8501.000,-158.000,-81.000,-53.000,NA,0.000,0
2026-01-30 22:01:16,1810524,432.000,-824.000,8440.000,-169.000,-104.000,-110.000,NA,0.000,0
2026-01-30 22:01:16,1810566,468.000,-624.000,8474.000,-19.000,-84.000,-105.000,NA,0.000,0
2026-01-30 22:01:16,1810604,325.000,-452.000,8548.000,55.000,-45.000,0.000,NA,0.000,0
2026-01-30 22:01:16,1810644,253.000,-687.000,8552.000,-41.000,0.000,74.000,NA,0.000,0
2026-01-30 22:01:16,1810684,327.000,-507.000,8426.000,67.000,-63.000,55.000,NA,0.000,0
2026-01-30 22:01:16,1810724,388.000,-448.000,8428.000,-80.000,-99.000,3.000,NA,0.000,0
2026-01-30 22:01:16,1810764,484.000,-690.000,8626.000,-234.000,-42.000,-58.000,NA,0.000,0
2026-01-30 22:01:16,1810804,469.000,-861.000,8638.000,-88.000,-6.000,-99.000,NA,0.000,0
2026-01-30 22:01:16,1810844,344.000,-752.000,8349.000,112.000,-33.000,-93.000,NA,0.000,0
2026-01-30 22:01:16,1810884,355.000,-384.000,8333.000,150.000,-115.000,-39.000,NA,0.000,0
2026-01-30 22:01:16,1810924,423.000,-479.000,8597.000,-132.000,-27.000,45.000,NA,0.000,0
2026-01-30 22:01:16,1810964,315.000,-730.000,8677.000,-13.000,98.000,85.000,NA,0.000,0
2026-01-30 22:01:16,1811004,255.000,-570.000,8494.000,-77.000,-41.000,36.000,NA,0.000,0
2026-01-30 22:01:16,1811044,304.000,-616.000,8523.000,-90.000,-137.000,-69.000,NA,0.000,0
2026-01-30 22:01:16,1811084,508.000,-823.000,8609.000,-238.000,-99.000,-112.000,NA,0.000,0
2026-01-30 22:01:16,1811124,500.000,-898.000,8499.000,33.000,-24.000,-126.000,NA,0.000,0
2026-01-30 22:01:16,1811164,453.000,-618.000,8527.000,70.000,-17.000,-11.000,NA,0.000,0
2026-01-30 22:01:16,1811204,218.000,-558.000,8426.000,-24.000,43.000,46.000,NA,0.000,0
2026-01-30 22:01:16,1811244,185.000,-793.000,8434.000,-174.000,-1.000,89.000,NA,0.000,0
2026-01-30 22:01:17,1811284,203.000,-886.000,8652.000,-232.000,-6.000,77.000,NA,0.000,0
2026-01-30 22:01:17,1811324,126.000,-1037.000,8490.000,-66.000,-2.000,0.000,NA,0.000,0
2026-01-30 22:01:17,1811364,281.000,-799.000,8327.000,-59.000,-76.000,-72.000,NA,0.000,0
2026-01-30 22:01:17,1811404,233.000,-894.000,8245.000,-24.000,-53.000,-71.000,NA,0.000,0
2026-01-30 22:01:17,1811444,401.000,-791.000,8638.000,-130.000,-3.000,20.000,NA,0.000,0
2026-01-30 22:01:17,1811484,97.000,-1118.000,8669.000,-9.000,175.000,65.000,NA,0.000,0
2026-01-30 22:01:17,1811524,95.000,-969.000,8502.000,175.000,5.000,62.000,NA,0.000,0
2026-01-30 22:01:17,1811564,276.000,-662.000,8449.000,43.000,-133.000,3.000,NA,0.000,0
2026-01-30 22:01:17,1811604,183.000,-985.000,8428.000,-58.000,-32.000,-21.000,NA,0.000,0
2026-01-30 22:01:17,1811644,368.000,-785.000,8495.000,36.000,-49.000,-42.000,NA,0.000,0
2026-01-30 22:01:17,1811684,305.000,-950.000,8517.000,-82.000,68.000,-1.000,NA,0.000,0
2026-01-30 22:01:17,1811724,191.000,-1013.000,8474.000,31.000,44.000,-21.000,NA,0.000,0
2026-01-30 22:01:17,1811764,270.000,-873.000,8295.000,-21.000,1.000,-1.000,NA,0.000,0
2026-01-30 22:01:17,1811804,211.000,-726.000,8424.000,-1.000,24.000,62.000,NA,0.000,0
2026-01-30 22:01:17,1811844,194.000,-849.000,8680.000,-134.000,80.000,104.000,NA,0.000,0
2026-01-30 22:01:17,1811884,56.000,-890.000,8498.000,32.000,117.000,70.000,NA,0.000,0
2026-01-30 22:01:17,1811924,314.000,-742.000,8489.000,-94.000,-69.000,-25.000,NA,0.000,0
2026-01-30 22:01:17,1811964,347.000,-1216.000,8570.000,-328.000,34.000,-65.000,NA,0.000,0
2026-01-30 22:01:17,1812004,298.000,-1242.000,8408.000,47.000,24.000,-109.000,NA,0.000,0
2026-01-30 22:01:17,1812044,289.000,-910.000,8284.000,113.000,0.000,-47.000,NA,0.000,0
2026-01-30 22:01:17,1812084,188.000,-804.000,8536.000,12.000,95.000,59.000,NA,0.000,0
2026-01-30 22:01:17,1812124,63.000,-974.000,8527.000,168.000,98.000,124.000,NA,0.000,0
2026-01-30 22:01:17,1812164,108.000,-711.000,8412.000,144.000,8.000,104.000,NA,0.000,0
2026-01-30 22:01:17,1812204,77.000,-612.000,8552.000,54.000,-5.000,25.000,NA,0.000,0
2026-01-30 22:01:17,1812244,137.000,-847.000,8400.000,23.000,-37.000,-63.000,NA,0.000,0
2026-01-30 22:01:18,1812284,306.000,-814.000,8717.000,-102.000,-14.000,-62.000,NA,0.000,0
2026-01-30 22:01:18,1812324,37.000,-1167.000,8578.000,-43.000,117.000,-52.000,NA,0.000,0
2026-01-30 22:01:18,1812364,111.000,-950.000,8415.000,78.000,-57.000,-39.000,NA,0.000,0
2026-01-30 22:01:18,1812404,196.000,-822.000,8309.000,5.000,-110.000,-28.000,NA,0.000,0
2026-01-30 22:01:18,1812444,231.000,-867.000,8416.000,-93.000,-78.000,34.000,NA,0.000,0
2026-01-30 22:01:18,1812484,297.000,-944.000,8453.000,-44.000,-47.000,44.000,NA,0.000,0
2026-01-30 22:01:18,1812524,230.000,-757.000,8384.000,50.000,-66.000,30.000,NA,0.000,0
2026-01-30 22:01:18,1812566,208.000,-1070.000,8468.000,-56.000,1.000,1.000,NA,0.000,0
2026-01-30 22:01:18,1812604,289.000,-1000.000,8585.000,27.000,-5.000,12.000,NA,0.000,0
2026-01-30 22:01:18,1812644,153.000,-1044.000,8400.000,109.000,42.000,16.000,NA,0.000,0
2026-01-30 22:01:18,1812684,130.000,-698.000,8305.000,164.000,-19.000,16.000,NA,0.000,0
2026-01-30 22:01:18,1812724,227.000,-743.000,8560.000,-71.000,-11.000,55.000,NA,0.000,0
2026-01-30 22:01:18,1812764,116.000,-1043.000,8596.000,28.000,93.000,66.000,NA,0.000,0
2026-01-30 22:01:18,1812804,108.000,-784.000,8366.000,153.000,-27.000,30.000,NA,0.000,0
2026-01-30 22:01:18,1812844,145.000,-782.000,8201.000,-23.000,-120.000,-21.000,NA,0.000,0
2026-01-30 22:01:18,1812884,285.000,-1028.000,8515.000,-214.000,-53.000,-2.000,NA,0.000,0
2026-01-30 22:01:18,1812924,313.000,-1069.000,8466.000,-6.000,-26.000,-11.000,NA,0.000,0
2026-01-30 22:01:18,1812964,176.000,-972.000,8436.000,13.000,-15.000,42.000,NA,0.000,0
2026-01-30 22:01:18,1813004,95.000,-864.000,8487.000,26.000,0.000,45.000,NA,0.000,0
2026-01-30 22:01:18,1813044,200.000,-943.000,8526.000,7.000,4.000,39.000,NA,0.000,0
2026-01-30 22:01:18,1813084,180.000,-942.000,8449.000,96.000,31.000,17.000,NA,0.000,0
2026-01-30 22:01:18,1813124,154.000,-763.000,8469.000,95.000,12.000,14.000,NA,0.000,0
2026-01-30 22:01:18,1813164,104.000,-1043.000,8432.000,-84.000,-1.000,-1.000,NA,0.000,0
2026-01-30 22:01:18,1813204,200.000,-1009.000,8395.000,20.000,-51.000,-3.000,NA,0.000,0
2026-01-30 22:01:18,1813244,247.000,-852.000,8550.000,9.000,9.000,59.000,NA,0.000,0
2026-01-30 22:01:19,1813284,33.000,-1024.000,8312.000,83.000,51.000,46.000,NA,0.000,0
2026-01-30 22:01:19,1813324,212.000,-622.000,8251.000,15.000,-91.000,6.000,NA,0.000,0
2026-01-30 22:01:19,1813364,133.000,-965.000,8594.000,-254.000,77.000,23.000,NA,0.000,0
2026-01-30 22:01:19,1813404,-1.000,-1272.000,8644.000,-87.000,140.000,1.000,NA,0.000,0
2026-01-30 22:01:19,1813444,-25.000,-1056.000,8291.000,140.000,33.000,-15.000,NA,0.000,0
2026-01-30 22:01:19,1813484,-64.000,-836.000,8310.000,-27.000,-31.000,23.000,NA,0.000,0
2026-01-30 22:01:19,1813524,-41.000,-1167.000,8565.000,-267.000,7.000,41.000,NA,0.000,0
2026-01-30 22:01:19,1813564,87.000,-1488.000,8576.000,-120.000,42.000,53.000,NA,0.000,0
2026-01-30 22:01:19,1813604,47.000,-1157.000,8383.000,193.000,39.000,31.000,NA,0.000,0
2026-01-30 22:01:19,1813644,-62.000,-1000.000,8170.000,81.000,-43.000,-2.000,NA,0.000,0
2026-01-30 22:01:19,1813684,70.000,-1128.000,8634.000,-95.000,55.000,81.000,NA,0.000,0
2026-01-30 22:01:19,1813724,-170.000,-1122.000,8436.000,222.000,237.000,39.000,NA,0.000,0
2026-01-30 22:01:19,1813764,-70.000,-890.000,8556.000,142.000,46.000,75.000,NA,0.000,0
2026-01-30 22:01:19,1813804,-413.000,-1058.000,8464.000,129.000,115.000,43.000,NA,0.000,0
2026-01-30 22:01:19,1813844,-303.000,-796.000,8598.000,134.000,-22.000,35.000,NA,0.000,0
2026-01-30 22:01:19,1813884,-287.000,-912.000,8418.000,132.000,-13.000,2.000,NA,0.000,0
2026-01-30 22:01:19,1813924,-275.000,-771.000,8257.000,72.000,-59.000,-3.000,NA,0.000,0
2026-01-30 22:01:19,1813964,-50.000,-757.000,8730.000,-213.000,-74.000,1.000,NA,0.000,0
2026-01-30 22:01:19,1814004,-225.000,-1262.000,8306.000,-72.000,-32.000,-63.000,NA,0.000,0
2026-01-30 22:01:19,1814044,181.000,-923.000,8391.000,-320.000,-229.000,-54.000,NA,0.000,0
2026-01-30 22:01:19,1814084,64.000,-1399.000,8676.000,-387.000,7.000,-58.000,NA,0.000,0
2026-01-30 22:01:19,1814124,134.000,-1607.000,8563.000,-185.000,-32.000,-54.000,NA,0.000,0
2026-01-30 22:01:19,1814164,130.000,-1250.000,8333.000,113.000,-64.000,-59.000,NA,0.000,0
2026-01-30 22:01:19,1814204,-153.000,-1229.000,8184.000,-6.000,13.000,42.000,NA,0.000,0
2026-01-30 22:01:19,1814244,-11.000,-740.000,8567.000,125.000,-53.000,75.000,NA,0.000,0
2026-01-30 22:01:20,1814284,65.000,-1318.000,8854.000,-34.000,146.000,209.000,NA,0.000,0
2026-01-30 22:01:20,1814324,-74.000,-915.000,8174.000,673.000,84.000,60.000,NA,0.000,0
2026-01-30 22:01:20,1814364,303.000,-449.000,8068.000,288.000,-145.000,53.000,NA,0.000,0
2026-01-30 22:01:20,1814404,307.000,-393.000,8493.000,274.000,116.000,-1.000,NA,0.000,0
2026-01-30 22:01:20,1814446,83.000,-621.000,8672.000,337.000,230.000,-6.000,NA,0.000,0
2026-01-30 22:01:20,1814486,-46.000,-686.000,8543.000,320.000,182.000,32.000,NA,0.000,0
2026-01-30 22:01:20,1814524,-19.000,-224.000,8184.000,256.000,-77.000,-21.000,NA,0.000,0
2026-01-30 22:01:20,1814564,535.000,-213.000,8811.000,-343.000,-155.000,-63.000,NA,0.000,0
2026-01-30 22:01:20,1814604,340.000,-1297.000,8724.000,-442.000,109.000,-54.000,NA,0.000,0
2026-01-30 22:01:20,1814644,376.000,-542.000,8720.000,162.000,-73.000,-55.000,NA,0.000,0
2026-01-30 22:01:20,1814684,343.000,-420.000,8675.000,-181.000,-65.000,-5.000,NA,0.000,0
2026-01-30 22:01:20,1814724,257.000,-1015.000,8728.000,-396.000,-42.000,-20.000,NA,0.000,0
2026-01-30 22:01:20,1814764,418.000,-1282.000,8456.000,-300.000,-187.000,-81.000,NA,0.000,0
2026-01-30 22:01:20,1814804,394.000,-834.000,8160.000,87.000,-142.000,-43.000,NA,0.000,0
2026-01-30 22:01:20,1814844,371.000,-507.000,8182.000,82.000,-32.000,23.000,NA,0.000,0
2026-01-30 22:01:20,1814884,298.000,-750.000,8349.000,-43.000,152.000,125.000,NA,0.000,0
2026-01-30 22:01:20,1814924,39.000,-841.000,8406.000,139.000,244.000,162.000,NA,0.000,0
2026-01-30 22:01:20,1814964,20.000,-631.000,8478.000,98.000,125.000,116.000,NA,0.000,0
2026-01-30 22:01:20,1815004,4.000,-871.000,8417.000,-7.000,25.000,-47.000,NA,0.000,0
2026-01-30 22:01:20,1815044,22.000,-1022.000,8352.000,7.000,-64.000,-134.000,NA,0.000,0
2026-01-30 22:01:20,1815084,-16.000,-815.000,8364.000,112.000,0.000,-78.000,NA,0.000,0
2026-01-30 22:01:20,1815124,-202.000,-773.000,8322.000,138.000,112.000,2.000,NA,0.000,0
2026-01-30 22:01:20,1815164,-361.000,-940.000,8409.000,-4.000,129.000,70.000,NA,0.000,0
2026-01-30 22:01:20,1815204,-542.000,-1426.000,8618.000,-364.000,101.000,82.000,NA,0.000,0
2026-01-30 22:01:20,1815244,-654.000,-1475.000,8738.000,-178.000,24.000,55.000,NA,0.000,0
2026-01-30 22:01:21,1815284,-511.000,-1350.000,8602.000,-55.000,-98.000,-22.000,NA,0.000,0
2026-01-30 22:01:21,1815324,-177.000,-1133.000,8579.000,-66.000,-167.000,-41.000,NA,0.000,0
2026-01-30 22:01:21,1815364,-186.000,-1383.000,8473.000,-135.000,-102.000,-50.000,NA,0.000,0
2026-01-30 22:01:21,1815404,-404.000,-1513.000,8251.000,14.000,-36.000,-71.000,NA,0.000,0
2026-01-30 22:01:21,1815444,-537.000,-1336.000,8263.000,45.000,-34.000,-40.000,NA,0.000,0
2026-01-30 22:01:21,1815484,-575.000,-1357.000,8260.000,40.000,-40.000,14.000,NA,0.000,0
2026-01-30 22:01:21,1815524,-452.000,-1138.000,8029.000,73.000,-101.000,0.000,NA,0.000,0
2026-01-30 22:01:21,1815564,-459.000,-1646.000,8444.000,-338.000,52.000,84.000,NA,0.000,0
2026-01-30 22:01:21,1815604,-856.000,-1728.000,8269.000,129.000,36.000,39.000,NA,0.000,0
2026-01-30 22:01:21,1815644,-804.000,-1445.000,8286.000,91.000,-160.000,42.000,NA,0.000,0
2026-01-30 22:01:21,1815684,-824.000,-1240.000,8282.000,28.000,-138.000,-5.000,NA,0.000,0
2026-01-30 22:01:21,1815724,-628.000,-1407.000,8387.000,-181.000,-105.000,12.000,NA,0.000,0
2026-01-30 22:01:21,1815764,-611.000,-1569.000,8404.000,-26.000,-11.000,-10.000,NA,0.000,0
2026-01-30 22:01:21,1815804,-538.000,-1368.000,8397.000,130.000,-29.000,6.000,NA,0.000,0
2026-01-30 22:01:21,1815844,-568.000,-1308.000,8387.000,61.000,-32.000,3.000,NA,0.000,0
2026-01-30 22:01:21,1815884,-586.000,-1493.000,8494.000,-48.000,-34.000,-14.000,NA,0.000,0
2026-01-30 22:01:21,1815924,-500.000,-1349.000,8282.000,81.000,-32.000,-30.000,NA,0.000,0
2026-01-30 22:01:21,1815964,-443.000,-1345.000,8231.000,-14.000,-95.000,-40.000,NA,0.000,0
2026-01-30 22:01:21,1816004,-367.000,-1351.000,8411.000,-53.000,-79.000,-39.000,NA,0.000,0
2026-01-30 22:01:21,1816044,-310.000,-1439.000,8442.000,-35.000,-65.000,-28.000,NA,0.000,0
2026-01-30 22:01:21,1816084,-248.000,-1265.000,8415.000,78.000,-92.000,9.000,NA,0.000,0
2026-01-30 22:01:21,1816124,-314.000,-1126.000,8373.000,110.000,-92.000,35.000,NA,0.000,0
2026-01-30 22:01:21,1816164,-267.000,-1105.000,8381.000,51.000,-129.000,12.000,NA,0.000,0
2026-01-30 22:01:21,1816204,-226.000,-1284.000,8266.000,-11.000,-101.000,-36.000,NA,0.000,0
2026-01-30 22:01:21,1816244,-172.000,-1217.000,8345.000,-41.000,-94.000,-98.000,NA,0.000,0
2026-01-30 22:01:22,1816284,-40.000,-1247.000,8644.000,-146.000,-87.000,-91.000,NA,0.000,0
2026-01-30 22:01:22,1816324,125.000,-1023.000,8428.000,124.000,-132.000,-32.000,NA,0.000,0
2026-01-30 22:01:22,1816364,149.000,-991.000,8420.000,128.000,-119.000,38.000,NA,0.000,0
2026-01-30 22:01:22,1816407,110.000,-596.000,8494.000,209.000,-3.000,91.000,NA,0.000,0
2026-01-30 22:01:22,1816446,192.000,-745.000,8552.000,11.000,9.000,65.000,NA,0.000,0
2026-01-30 22:01:22,1816484,183.000,-773.000,8526.000,54.000,-18.000,15.000,NA,0.000,0
2026-01-30 22:01:22,1816524,315.000,-790.000,8434.000,-29.000,-143.000,-64.000,NA,0.000,0
2026-01-30 22:01:22,1816566,492.000,-813.000,8427.000,-122.000,-90.000,-121.000,NA,0.000,0
2026-01-30 22:01:22,1816604,452.000,-966.000,8431.000,-157.000,-42.000,-103.000,NA,0.000,0
2026-01-30 22:01:22,1816644,346.000,-974.000,8427.000,-6.000,20.000,-54.000,NA,0.000,0
2026-01-30 22:01:22,1816684,314.000,-749.000,8419.000,94.000,20.000,42.000,NA,0.000,0
2026-01-30 22:01:22,1816724,370.000,-932.000,8425.000,-125.000,23.000,82.000,NA,0.000,0
2026-01-30 22:01:22,1816764,361.000,-962.000,8376.000,-50.000,52.000,37.000,NA,0.000,0
2026-01-30 22:01:22,1816804,377.000,-857.000,8487.000,-14.000,1.000,-26.000,NA,0.000,0
2026-01-30 22:01:22,1816844,225.000,-888.000,8553.000,34.000,110.000,-21.000,NA,0.000,0
2026-01-30 22:01:22,1816884,77.000,-826.000,8359.000,147.000,114.000,-57.000,NA,0.000,0
2026-01-30 22:01:22,1816924,175.000,-733.000,8282.000,-5.000,-9.000,-26.000,NA,0.000,0
2026-01-30 22:01:22,1816964,126.000,-727.000,8344.000,41.000,36.000,-19.000,NA,0.000,0
2026-01-30 22:01:22,1817004,329.000,-653.000,8679.000,-139.000,39.000,2.000,NA,0.000,0
2026-01-30 22:01:22,1817044,314.000,-1101.000,8608.000,-201.000,133.000,-13.000,NA,0.000,0
2026-01-30 22:01:22,1817084,102.000,-712.000,8513.000,175.000,-35.000,-50.000,NA,0.000,0
2026-01-30 22:01:22,1817124,198.000,-616.000,8478.000,-98.000,-86.000,-18.000,NA,0.000,0
2026-01-30 22:01:22,1817164,269.000,-1058.000,8431.000,-269.000,-44.000,-18.000,NA,0.000,0
2026-01-30 22:01:22,1817204,244.000,-1257.000,8398.000,-141.000,45.000,9.000,NA,0.000,0
2026-01-30 22:01:22,1817244,4.000,-1190.000,8353.000,-9.000,94.000,22.000,NA,0.000,0
2026-01-30 22:01:23,1817284,-154.000,-1189.000,8392.000,12.000,42.000,31.000,NA,0.000,0
2026-01-30 22:01:23,1817324,-179.000,-1099.000,8420.000,24.000,17.000,41.000,NA,0.000,0
2026-01-30 22:01:23,1817364,-146.000,-1069.000,8351.000,5.000,-4.000,38.000,NA,0.000,0
2026-01-30 22:01:23,1817404,-174.000,-1174.000,8363.000,-82.000,-1.000,47.000,NA,0.000,0
2026-01-30 22:01:23,1817444,-270.000,-1351.000,8368.000,-103.000,24.000,19.000,NA,0.000,0
2026-01-30 22:01:23,1817484,-433.000,-1403.000,8492.000,-44.000,34.000,-9.000,NA,0.000,0
2026-01-30 22:01:23,1817524,-337.000,-1301.000,8486.000,9.000,-9.000,-23.000,NA,0.000,0
2026-01-30 22:01:23,1817564,-254.000,-1257.000,8444.000,30.000,-21.000,1.000,NA,0.000,0
2026-01-30 22:01:23,1817604,-384.000,-1324.000,8258.000,36.000,-3.000,-13.000,NA,0.000,0
2026-01-30 22:01:23,1817644,-436.000,-1338.000,8379.000,-48.000,-33.000,3.000,NA,0.000,0
2026-01-30 22:01:23,1817684,-356.000,-1376.000,8504.000,-65.000,12.000,31.000,NA,0.000,0
2026-01-30 22:01:23,1817724,-423.000,-1377.000,8427.000,52.000,43.000,-21.000,NA,0.000,0
2026-01-30 22:01:23,1817764,-388.000,-1261.000,8352.000,-34.000,-53.000,-19.000,NA,0.000,0
2026-01-30 22:01:23,1817804,-437.000,-1298.000,8281.000,-84.000,-36.000,-39.000,NA,0.000,0
2026-01-30 22:01:23,1817844,-469.000,-1458.000,8519.000,-113.000,-25.000,-4.000,NA,0.000,0
2026-01-30 22:01:23,1817884,-454.000,-1365.000,8461.000,66.000,38.000,17.000,NA,0.000,0
2026-01-30 22:01:23,1817924,-314.000,-1255.000,8257.000,5.000,-56.000,-45.000,NA,0.000,0
2026-01-30 22:01:23,1817964,-106.000,-1574.000,8311.000,-330.000,-114.000,-37.000,NA,0.000,0
2026-01-30 22:01:23,1818004,-341.000,-1812.000,8300.000,1.000,67.000,-86.000,NA,0.000,0
2026-01-30 22:01:23,1818044,-442.000,-1392.000,8333.000,143.000,13.000,-20.000,NA,0.000,0
2026-01-30 22:01:23,1818084,-366.000,-1361.000,8387.000,-17.000,7.000,35.000,NA,0.000,0
2026-01-30 22:01:23,1818124,-440.000,-1514.000,8347.000,92.000,56.000,73.000,NA,0.000,0
2026-01-30 22:01:23,1818164,-373.000,-1317.000,8440.000,95.000,19.000,77.000,NA,0.000,0
2026-01-30 22:01:23,1818204,-489.000,-1247.000,8387.000,140.000,69.000,25.000,NA,0.000,0
2026-01-30 22:01:23,1818244,-460.000,-1324.000,8404.000,-22.000,-16.000,-33.000,NA,0.000,0
2026-01-30 22:01:24,1818284,-460.000,-1403.000,8389.000,-43.000,-14.000,-57.000,NA,0.000,0
2026-01-30 22:01:24,1818324,-401.000,-1400.000,8314.000,-31.000,-59.000,-67.000,NA,0.000,0
2026-01-30 22:01:24,1818364,-301.000,-1408.000,8316.000,-73.000,-69.000,-48.000,NA,0.000,0
2026-01-30 22:01:24,1818407,-306.000,-1505.000,8267.000,-41.000,-46.000,-20.000,NA,0.000,0
2026-01-30 22:01:24,1818446,-325.000,-1436.000,8427.000,-45.000,-42.000,46.000,NA,0.000,0
2026-01-30 22:01:24,1818484,-382.000,-1487.000,8461.000,-34.000,-8.000,65.000,NA,0.000,0
2026-01-30 22:01:24,1818524,-516.000,-1425.000,8434.000,151.000,25.000,72.000,NA,0.000,0
2026-01-30 22:01:24,1818567,-388.000,-1192.000,8379.000,14.000,-42.000,36.000,NA,0.000,0
2026-01-30 22:01:24,1818604,-345.000,-1333.000,8430.000,5.000,-17.000,-25.000,NA,0.000,0
2026-01-30 22:01:24,1818644,-334.000,-1377.000,8440.000,-1.000,-19.000,-60.000,NA,0.000,0
2026-01-30 22:01:24,1818684,-372.000,-1359.000,8419.000,22.000,-23.000,-61.000,NA,0.000,0
2026-01-30 22:01:24,1818724,-327.000,-1365.000,8340.000,0.000,-70.000,-34.000,NA,0.000,0
2026-01-30 22:01:24,1818764,-204.000,-1211.000,8360.000,-10.000,-88.000,-12.000,NA,0.000,0
2026-01-30 22:01:24,1818804,-138.000,-1330.000,8411.000,-98.000,-34.000,24.000,NA,0.000,0
2026-01-30 22:01:24,1818844,-196.000,-1411.000,8366.000,4.000,1.000,31.000,NA,0.000,0
2026-01-30 22:01:24,1818884,-287.000,-1344.000,8144.000,68.000,-61.000,7.000,NA,0.000,0
2026-01-30 22:01:24,1818924,-148.000,-1018.000,8324.000,74.000,-126.000,-38.000,NA,0.000,0
2026-01-30 22:01:24,1818964,45.000,-1347.000,8764.000,-319.000,33.000,63.000,NA,0.000,0
2026-01-30 22:01:24,1819004,-9.000,-1091.000,8395.000,447.000,0.000,-22.000,NA,0.000,0
2026-01-30 22:01:24,1819044,123.000,-876.000,8266.000,59.000,-224.000,-9.000,NA,0.000,0
2026-01-30 22:01:24,1819084,28.000,-880.000,8343.000,-4.000,-44.000,-45.000,NA,0.000,0
2026-01-30 22:01:24,1819124,150.000,-1221.000,8513.000,-160.000,0.000,-32.000,NA,0.000,0
2026-01-30 22:01:24,1819164,57.000,-1244.000,8417.000,166.000,78.000,-37.000,NA,0.000,0
2026-01-30 22:01:24,1819204,-48.000,-788.000,8383.000,171.000,14.000,42.000,NA,0.000,0
2026-01-30 22:01:24,1819244,47.000,-896.000,8389.000,-132.000,-54.000,31.000,NA,0.000,0
2026-01-30 22:01:25,1819284,139.000,-1264.000,8343.000,-178.000,-12.000,-7.000,NA,0.000,0
2026-01-30 22:01:25,1819324,118.000,-1288.000,8421.000,-65.000,29.000,-9.000,NA,0.000,0
2026-01-30 22:01:25,1819364,-125.000,-1082.000,8390.000,139.000,29.000,-19.000,NA,0.000,0
2026-01-30 22:01:25,1819404,-30.000,-894.000,8394.000,61.000,-12.000,11.000,NA,0.000,0
2026-01-30 22:01:25,1819444,-16.000,-1139.000,8439.000,-53.000,55.000,38.000,NA,0.000,0
2026-01-30 22:01:25,1819484,-36.000,-1174.000,8521.000,30.000,58.000,34.000,NA,0.000,0
2026-01-30 22:01:25,1819524,-127.000,-1022.000,8431.000,133.000,60.000,-1.000,NA,0.000,0
2026-01-30 22:01:25,1819564,-241.000,-1098.000,8323.000,-51.000,33.000,-24.000,NA,0.000,0
2026-01-30 22:01:25,1819604,-245.000,-1361.000,8305.000,-132.000,-2.000,-50.000,NA,0.000,0
2026-01-30 22:01:25,1819644,-253.000,-1406.000,8385.000,-80.000,20.000,-30.000,NA,0.000,0
2026-01-30 22:01:25,1819684,-294.000,-1361.000,8405.000,-16.000,54.000,1.000,NA,0.000,0
2026-01-30 22:01:25,1819724,-257.000,-1266.000,8380.000,19.000,5.000,38.000,NA,0.000,0
2026-01-30 22:01:25,1819764,-330.000,-1278.000,8294.000,-3.000,11.000,55.000,NA,0.000,0
2026-01-30 22:01:25,1819804,-454.000,-1337.000,8401.000,-56.000,25.000,20.000,NA,0.000,0
2026-01-30 22:01:25,1819844,-502.000,-1478.000,8522.000,-17.000,50.000,11.000,NA,0.000,0
2026-01-30 22:01:25,1819884,-403.000,-1200.000,8442.000,91.000,16.000,-7.000,NA,0.000,0
2026-01-30 22:01:25,1819924,-246.000,-1292.000,8319.000,-86.000,-89.000,-38.000,NA,0.000,0
2026-01-30 22:01:25,1819964,-152.000,-1377.000,8432.000,-30.000,-68.000,-51.000,NA,0.000,0
2026-01-30 22:01:25,1820004,-198.000,-1331.000,8401.000,43.000,21.000,-11.000,NA,0.000,0
2026-01-30 22:01:25,1820044,-236.000,-1386.000,8458.000,-33.000,51.000,11.000,NA,0.000,0
2026-01-30 22:01:25,1820084,-306.000,-1430.000,8358.000,71.000,24.000,7.000,NA,0.000,0
2026-01-30 22:01:25,1820124,-238.000,-1114.000,8356.000,82.000,-33.000,31.000,NA,0.000,0
2026-01-30 22:01:25,1820164,-272.000,-1311.000,8380.000,-17.000,38.000,9.000,NA,0.000,0
2026-01-30 22:01:25,1820204,-163.000,-1208.000,8508.000,95.000,4.000,7.000,NA,0.000,0
2026-01-30 22:01:25,1820244,-66.000,-1012.000,8387.000,193.000,-14.000,10.000,NA,0.000,0
2026-01-30 22:01:26,1820284,-35.000,-865.000,8329.000,55.000,-31.000,-6.000,NA,0.000,0
2026-01-30 22:01:26,1820324,-171.000,-1334.000,8413.000,-67.000,36.000,-15.000,NA,0.000,0
2026-01-30 22:01:26,1820364,-395.000,-1180.000,8419.000,134.000,100.000,-23.000,NA,0.000,0
2026-01-30 22:01:26,1820407,-200.000,-1245.000,8446.000,-136.000,-21.000,-6.000,NA,0.000,0
2026-01-30 22:01:26,1820446,-74.000,-1285.000,8346.000,-11.000,-53.000,-20.000,NA,0.000,0
2026-01-30 22:01:26,1820484,-28.000,-1203.000,8315.000,22.000,-75.000,-23.000,NA,0.000,0
2026-01-30 22:01:26,1820524,-186.000,-1129.000,8417.000,-17.000,8.000,29.000,NA,0.000,0
2026-01-30 22:01:26,1820567,-340.000,-1299.000,8472.000,37.000,56.000,49.000,NA,0.000,0
2026-01-30 22:01:26,1820604,-309.000,-1216.000,8358.000,97.000,2.000,23.000,NA,0.000,0
2026-01-30 22:01:26,1820644,-156.000,-1004.000,8290.000,21.000,-69.000,-11.000,NA,0.000,0
2026-01-30 22:01:26,1820684,-120.000,-1185.000,8372.000,-105.000,-3.000,-43.000,NA,0.000,0
2026-01-30 22:01:26,1820724,-212.000,-1402.000,8473.000,-42.000,63.000,-29.000,NA,0.000,0
2026-01-30 22:01:26,1820764,-360.000,-1252.000,8418.000,125.000,38.000,1.000,NA,0.000,0
2026-01-30 22:01:26,1820804,-380.000,-1074.000,8353.000,55.000,-44.000,48.000,NA,0.000,0
2026-01-30 22:01:26,1820844,-163.000,-1137.000,8413.000,-144.000,-66.000,36.000,NA,0.000,0
2026-01-30 22:01:26,1820884,-139.000,-1392.000,8373.000,-98.000,-4.000,-42.000,NA,0.000,0
2026-01-30 22:01:26,1820924,-279.000,-1196.000,8444.000,34.000,-1.000,-30.000,NA,0.000,0
2026-01-30 22:01:26,1820964,-456.000,-1210.000,8495.000,0.000,11.000,-4.000,NA,0.000,0
2026-01-30 22:01:26,1821004,-308.000,-1214.000,8410.000,-13.000,-58.000,30.000,NA,0.000,0
2026-01-30 22:01:26,1821044,-243.000,-1211.000,8318.000,8.000,-45.000,21.000,NA,0.000,0
2026-01-30 22:01:26,1821084,-232.000,-1155.000,8355.000,-38.000,-47.000,2.000,NA,0.000,0
2026-01-30 22:01:26,1821124,-173.000,-1274.000,8424.000,-101.000,-22.000,-49.000,NA,0.000,0
2026-01-30 22:01:26,1821164,-230.000,-1525.000,8400.000,-73.000,-1.000,-57.000,NA,0.000,0
2026-01-30 22:01:26,1821204,-248.000,-1255.000,8387.000,125.000,-36.000,-28.000,NA,0.000,0
2026-01-30 22:01:26,1821244,-259.000,-1156.000,8340.000,-14.000,-66.000,21.000,NA,0.000,0
2026-01-30 22:01:27,1821284,-189.000,-1300.000,8423.000,-20.000,0.000,68.000,NA,0.000,0
2026-01-30 22:01:27,1821324,-270.000,-1197.000,8350.000,71.000,25.000,25.000,NA,0.000,0
2026-01-30 22:01:27,1821364,-381.000,-1183.000,8174.000,49.000,-32.000,-49.000,NA,0.000,0
2026-01-30 22:01:27,1821404,-275.000,-1173.000,8515.000,-139.000,-52.000,-56.000,NA,0.000,0
2026-01-30 22:01:27,1821444,-290.000,-1452.000,8693.000,-48.000,98.000,8.000,NA,0.000,0
2026-01-30 22:01:27,1821484,-234.000,-1192.000,8532.000,162.000,2.000,15.000,NA,0.000,0
2026-01-30 22:01:27,1821524,-157.000,-1118.000,8278.000,17.000,-142.000,-8.000,NA,0.000,0
2026-01-30 22:01:27,1821564,-157.000,-1119.000,8298.000,-82.000,-101.000,-24.000,NA,0.000,0
2026-01-30 22:01:27,1821604,-126.000,-1503.000,8438.000,-216.000,-15.000,-28.000,NA,0.000,0
2026-01-30 22:01:27,1821644,-185.000,-1184.000,8435.000,103.000,52.000,-2.000,NA,0.000,0
2026-01-30 22:01:27,1821684,-192.000,-929.000,8331.000,66.000,-28.000,40.000,NA,0.000,0
2026-01-30 22:01:27,1821724,-128.000,-1283.000,8378.000,-181.000,-24.000,44.000,NA,0.000,0
2026-01-30 22:01:27,1821764,-129.000,-1425.000,8380.000,-9.000,15.000,-6.000,NA,0.000,0
2026-01-30 22:01:27,1821804,-165.000,-1204.000,8337.000,122.000,11.000,-35.000,NA,0.000,0
2026-01-30 22:01:27,1821844,-177.000,-1025.000,8409.000,51.000,3.000,-20.000,NA,0.000,0
2026-01-30 22:01:27,1821884,-167.000,-1143.000,8462.000,-15.000,24.000,12.000,NA,0.000,0
2026-01-30 22:01:27,1821924,-186.000,-1185.000,8463.000,65.000,41.000,52.000,NA,0.000,0
2026-01-30 22:01:27,1821964,-183.000,-958.000,8376.000,104.000,-11.000,38.000,NA,0.000,0
2026-01-30 22:01:27,1822004,-98.000,-1012.000,8393.000,-51.000,-37.000,-5.000,NA,0.000,0
2026-01-30 22:01:27,1822044,-26.000,-1252.000,8461.000,-46.000,25.000,-57.000,NA,0.000,0
2026-01-30 22:01:27,1822084,16.000,-1274.000,8376.000,-7.000,-3.000,-60.000,NA,0.000,0
2026-01-30 22:01:27,1822124,39.000,-1152.000,8383.000,39.000,-24.000,-35.000,NA,0.000,0
2026-01-30 22:01:27,1822164,36.000,-1123.000,8429.000,18.000,-1.000,34.000,NA,0.000,0
2026-01-30 22:01:27,1822204,0.000,-1099.000,8497.000,54.000,34.000,83.000,NA,0.000,0
2026-01-30 22:01:27,1822244,-61.000,-1021.000,8449.000,93.000,40.000,86.000,NA,0.000,0
2026-01-30 22:01:28,1822284,-83.000,-947.000,8392.000,102.000,19.000,39.000,NA,0.000,0
2026-01-30 22:01:28,1822324,-37.000,-937.000,8393.000,48.000,5.000,-22.000,NA,0.000,0
2026-01-30 22:01:28,1822364,-9.000,-971.000,8446.000,47.000,20.000,-48.000,NA,0.000,0
2026-01-30 22:01:28,1822407,27.000,-974.000,8442.000,4.000,-3.000,-9.000,NA,0.000,0
2026-01-30 22:01:28,1822445,44.000,-1039.000,8399.000,-17.000,-9.000,-3.000,NA,0.000,0
2026-01-30 22:01:28,1822487,88.000,-1027.000,8430.000,-19.000,-42.000,-2.000,NA,0.000,0
2026-01-30 22:01:28,1822524,92.000,-1069.000,8463.000,-47.000,-32.000,14.000,NA,0.000,0
2026-01-30 22:01:28,1822567,-17.000,-972.000,8520.000,37.000,8.000,32.000,NA,0.000,0
2026-01-30 22:01:28,1822606,-45.000,-1002.000,8459.000,9.000,-4.000,36.000,NA,0.000,0
2026-01-30 22:01:28,1822644,-81.000,-977.000,8390.000,14.000,-20.000,13.000,NA,0.000,0
2026-01-30 22:01:28,1822684,-35.000,-1009.000,8392.000,-40.000,-34.000,-14.000,NA,0.000,0
2026-01-30 22:01:28,1822724,13.000,-1156.000,8414.000,-64.000,-3.000,-35.000,NA,0.000,0
2026-01-30 22:01:28,1822764,-70.000,-1185.000,8455.000,31.000,18.000,-24.000,NA,0.000,0
2026-01-30 22:01:28,1822804,-120.000,-1024.000,8395.000,43.000,1.000,19.000,NA,0.000,0
2026-01-30 22:01:28,1822844,-120.000,-1045.000,8416.000,-2.000,-4.000,32.000,NA,0.000,0
2026-01-30 22:01:28,1822884,-138.000,-1121.000,8449.000,13.000,34.000,31.000,NA,0.000,0
2026-01-30 22:01:28,1822924,-250.000,-1046.000,8422.000,61.000,36.000,-9.000,NA,0.000,0
2026-01-30 22:01:28,1822964,-194.000,-1111.000,8406.000,-44.000,-34.000,-30.000,NA,0.000,0
2026-01-30 22:01:28,1823004,-180.000,-1150.000,8361.000,-2.000,-12.000,-36.000,NA,0.000,0
2026-01-30 22:01:28,1823044,-71.000,-1106.000,8430.000,-56.000,-41.000,-16.000,NA,0.000,0
2026-01-30 22:01:28,1823084,-90.000,-1239.000,8434.000,-41.000,15.000,-2.000,NA,0.000,0
2026-01-30 22:01:28,1823124,-149.000,-1166.000,8406.000,31.000,15.000,-2.000,NA,0.000,0
2026-01-30 22:01:28,1823164,-210.000,-1195.000,8412.000,-7.000,-12.000,-3.000,NA,0.000,0
2026-01-30 22:01:28,1823204,-207.000,-1115.000,8400.000,34.000,-10.000,-3.000,NA,0.000,0
2026-01-30 22:01:28,1823244,-203.000,-1102.000,8402.000,37.000,-2.000,5.000,NA,0.000,0
2026-01-30 22:01:29,1823284,-302.000,-1083.000,8376.000,66.000,14.000,22.000,NA,0.000,0
2026-01-30 22:01:29,1823324,-326.000,-1003.000,8377.000,69.000,3.000,22.000,NA,0.000,0
2026-01-30 22:01:29,1823364,-291.000,-1025.000,8483.000,-44.000,5.000,29.000,NA,0.000,0
2026-01-30 22:01:29,1823404,-241.000,-1159.000,8476.000,-60.000,9.000,-5.000,NA,0.000,0
2026-01-30 22:01:29,1823444,-73.000,-1175.000,8439.000,-81.000,-67.000,-55.000,NA,0.000,0
2026-01-30 22:01:29,1823484,3.000,-1313.000,8393.000,-134.000,-69.000,-94.000,NA,0.000,0
2026-01-30 22:01:29,1823524,-63.000,-1446.000,8358.000,-52.000,-36.000,-110.000,NA,0.000,0
2026-01-30 22:01:29,1823564,-235.000,-1266.000,8391.000,73.000,21.000,13.000,NA,0.000,0
2026-01-30 22:01:29,1823604,-309.000,-1084.000,8395.000,104.000,36.000,115.000,NA,0.000,0
2026-01-30 22:01:29,1823644,-246.000,-1012.000,8460.000,31.000,13.000,153.000,NA,0.000,0
2026-01-30 22:01:29,1823684,-241.000,-1061.000,8453.000,14.000,23.000,108.000,NA,0.000,0
2026-01-30 22:01:29,1823724,-260.000,-1119.000,8376.000,48.000,17.000,-2.000,NA,0.000,0
2026-01-30 22:01:29,1823764,-278.000,-1055.000,8411.000,39.000,20.000,-89.000,NA,0.000,0
2026-01-30 22:01:29,1823804,-276.000,-1207.000,8417.000,-28.000,0.000,-125.000,NA,0.000,0
2026-01-30 22:01:29,1823844,-219.000,-1258.000,8413.000,-10.000,-6.000,-70.000,NA,0.000,0
2026-01-30 22:01:29,1823884,-210.000,-1169.000,8374.000,28.000,-5.000,-4.000,NA,0.000,0
2026-01-30 22:01:29,1823924,-150.000,-1266.000,8372.000,-80.000,-52.000,50.000,NA,0.000,0
2026-01-30 22:01:29,1823964,-179.000,-1223.000,8437.000,-26.000,-14.000,41.000,NA,0.000,0
2026-01-30 22:01:29,1824004,-212.000,-1200.000,8415.000,10.000,-13.000,9.000,NA,0.000,0
2026-01-30 22:01:29,1824044,-225.000,-1089.000,8413.000,9.000,-14.000,-14.000,NA,0.000,0
2026-01-30 22:01:29,1824084,-211.000,-1192.000,8411.000,-44.000,-14.000,-30.000,NA,0.000,0
2026-01-30 22:01:29,1824124,-232.000,-1228.000,8395.000,18.000,1.000,-33.000,NA,0.000,0
2026-01-30 22:01:29,1824164,-246.000,-1152.000,8382.000,29.000,-8.000,-17.000,NA,0.000,0
2026-01-30 22:01:29,1824204,-222.000,-1184.000,8419.000,-29.000,-19.000,3.000,NA,0.000,0
2026-01-30 22:01:29,1824244,-234.000,-1225.000,8432.000,6.000,-10.000,9.000,NA,0.000,0
2026-01-30 22:01:30,1824284,-258.000,-1139.000,8405.000,47.000,-12.000,14.000,NA,0.000,0
2026-01-30 22:01:30,1824324,-251.000,-1136.000,8392.000,-16.000,-35.000,-3.000,NA,0.000,0
2026-01-30 22:01:30,1824364,-239.000,-1203.000,8375.000,-27.000,-32.000,-27.000,NA,0.000,0
2026-01-30 22:01:30,1824404,-187.000,-1150.000,8398.000,-32.000,-47.000,-25.000,NA,0.000,0
2026-01-30 22:01:30,1824444,-220.000,-1234.000,8429.000,-57.000,-32.000,-8.000,NA,0.000,0
2026-01-30 22:01:30,1824484,-253.000,-1239.000,8461.000,-22.000,-41.000,-3.000,NA,0.000,0
2026-01-30 22:01:30,1824524,-260.000,-1237.000,8378.000,-15.000,-64.000,-14.000,NA,0.000,0
2026-01-30 22:01:30,1824566,-232.000,-1225.000,8378.000,-45.000,-77.000,-8.000,NA,0.000,0
2026-01-30 22:01:30,1824604,-212.000,-1233.000,8392.000,-33.000,-66.000,-10.000,NA,0.000,0
2026-01-30 22:01:30,1824644,-226.000,-1204.000,8413.000,-9.000,-32.000,-13.000,NA,0.000,0
2026-01-30 22:01:30,1824684,-241.000,-1282.000,8398.000,0.000,-25.000,4.000,NA,0.000,0
2026-01-30 22:01:30,1824724,-258.000,-1211.000,8337.000,40.000,-31.000,10.000,NA,0.000,0
2026-01-30 22:01:30,1824764,-213.000,-1195.000,8355.000,-6.000,-49.000,-5.000,NA,0.000,0
2026-01-30 22:01:30,1824804,-243.000,-1298.000,8335.000,-53.000,-9.000,-16.000,NA,0.000,0
2026-01-30 22:01:30,1824844,-367.000,-1411.000,8428.000,-23.000,19.000,-26.000,NA,0.000,0
2026-01-30 22:01:30,1824884,-376.000,-1260.000,8456.000,67.000,6.000,-3.000,NA,0.000,0
2026-01-30 22:01:30,1824924,-355.000,-1174.000,8344.000,36.000,-31.000,2.000,NA,0.000,0
2026-01-30 22:01:30,1824964,-331.000,-1276.000,8334.000,-69.000,-47.000,2.000,NA,0.000,0
2026-01-30 22:01:30,1825004,-349.000,-1383.000,8395.000,-72.000,-10.000,-1.000,NA,0.000,0
2026-01-30 22:01:30,1825044,-383.000,-1412.000,8410.000,-27.000,10.000,-13.000,NA,0.000,0
2026-01-30 22:01:30,1825084,-335.000,-1371.000,8344.000,-20.000,-21.000,-27.000,NA,0.000,0
2026-01-30 22:01:30,1825124,-363.000,-1395.000,8344.000,-24.000,-11.000,-5.000,NA,0.000,0
2026-01-30 22:01:30,1825164,-381.000,-1415.000,8332.000,-11.000,10.000,5.000,NA,0.000,0
2026-01-30 22:01:30,1825204,-435.000,-1402.000,8405.000,22.000,28.000,20.000,NA,0.000,0
2026-01-30 22:01:30,1825244,-476.000,-1337.000,8400.000,29.000,40.000,26.000,NA,0.000,0
2026-01-30 22:01:31,1825284,-455.000,-1363.000,8395.000,3.000,10.000,7.000,NA,0.000,0
2026-01-30 22:01:31,1825324,-421.000,-1409.000,8363.000,-16.000,2.000,-20.000,NA,0.000,0
2026-01-30 22:01:31,1825364,-450.000,-1438.000,8339.000,2.000,15.000,-33.000,NA,0.000,0
2026-01-30 22:01:31,1825404,-427.000,-1480.000,8374.000,-17.000,1.000,-25.000,NA,0.000,0
2026-01-30 22:01:31,1825444,-501.000,-1436.000,8353.000,44.000,40.000,-4.000,NA,0.000,0
2026-01-30 22:01:31,1825484,-478.000,-1416.000,8330.000,-26.000,-17.000,20.000,NA,0.000,0
2026-01-30 22:01:31,1825524,-507.000,-1413.000,8368.000,5.000,23.000,26.000,NA,0.000,0
2026-01-30 22:01:31,1825564,-531.000,-1397.000,8369.000,12.000,23.000,9.000,NA,0.000,0
2026-01-30 22:01:31,1825604,-526.000,-1400.000,8346.000,4.000,15.000,-6.000,NA,0.000,0
2026-01-30 22:01:31,1825644,-577.000,-1449.000,8333.000,-23.000,14.000,-18.000,NA,0.000,0
2026-01-30 22:01:31,1825684,-550.000,-1524.000,8345.000,-44.000,-9.000,-26.000,NA,0.000,0
2026-01-30 22:01:31,1825724,-550.000,-1596.000,8362.000,-48.000,12.000,-29.000,NA,0.000,0
2026-01-30 22:01:31,1825764,-591.000,-1591.000,8358.000,0.000,11.000,-15.000,NA,0.000,0
2026-01-30 22:01:31,1825804,-556.000,-1522.000,8350.000,-5.000,-11.000,14.000,NA,0.000,0
2026-01-30 22:01:31,1825844,-584.000,-1514.000,8359.000,12.000,7.000,31.000,NA,0.000,0
2026-01-30 22:01:31,1825884,-623.000,-1518.000,8357.000,27.000,26.000,28.000,NA,0.000,0
2026-01-30 22:01:31,1825924,-660.000,-1449.000,8348.000,53.000,29.000,13.000,NA,0.000,0
2026-01-30 22:01:31,1825964,-648.000,-1524.000,8333.000,-17.000,14.000,-1.000,NA,0.000,0
2026-01-30 22:01:31,1826004,-654.000,-1504.000,8350.000,20.000,16.000,-20.000,NA,0.000,0
2026-01-30 22:01:31,1826044,-637.000,-1515.000,8335.000,9.000,10.000,-13.000,NA,0.000,0
2026-01-30 22:01:31,1826084,-623.000,-1470.000,8323.000,14.000,-2.000,-19.000,NA,0.000,0
2026-01-30 22:01:31,1826124,-602.000,-1511.000,8334.000,-24.000,-25.000,-12.000,NA,0.000,0
2026-01-30 22:01:31,1826164,-619.000,-1499.000,8328.000,-1.000,-12.000,-7.000,NA,0.000,0
2026-01-30 22:01:31,1826204,-645.000,-1525.000,8368.000,-25.000,1.000,4.000,NA,0.000,0
2026-01-30 22:01:31,1826244,-658.000,-1470.000,8352.000,39.000,3.000,6.000,NA,0.000,0
2026-01-30 22:01:32,1826284,-573.000,-1462.000,8342.000,-61.000,-39.000,-2.000,NA,0.000,0
2026-01-30 22:01:32,1826324,-544.000,-1563.000,8338.000,-45.000,-8.000,-9.000,NA,0.000,0
2026-01-30 22:01:32,1826364,-548.000,-1529.000,8338.000,6.000,1.000,-24.000,NA,0.000,0
2026-01-30 22:01:32,1826404,-548.000,-1556.000,8323.000,-5.000,-8.000,-26.000,NA,0.000,0
2026-01-30 22:01:32,1826444,-574.000,-1490.000,8372.000,30.000,26.000,8.000,NA,0.000,0
2026-01-30 22:01:32,1826484,-608.000,-1487.000,8347.000,36.000,36.000,21.000,NA,0.000,0
2026-01-30 22:01:32,1826524,-609.000,-1435.000,8335.000,50.000,6.000,19.000,NA,0.000,0
2026-01-30 22:01:32,1826564,-606.000,-1425.000,8414.000,-29.000,9.000,19.000,NA,0.000,0
2026-01-30 22:01:32,1826604,-550.000,-1437.000,8379.000,62.000,-10.000,-8.000,NA,0.000,0
2026-01-30 22:01:32,1826644,-442.000,-1358.000,8383.000,10.000,-32.000,-13.000,NA,0.000,0
2026-01-30 22:01:32,1826684,-432.000,-1338.000,8393.000,50.000,-11.000,-12.000,NA,0.000,0
2026-01-30 22:01:32,1826724,-329.000,-1265.000,8391.000,16.000,-15.000,3.000,NA,0.000,0
2026-01-30 22:01:32,1826764,-435.000,-1313.000,8386.000,31.000,22.000,9.000,NA,0.000,0
2026-01-30 22:01:32,1826804,-504.000,-1380.000,8356.000,-23.000,8.000,6.000,NA,0.000,0
2026-01-30 22:01:32,1826844,-500.000,-1397.000,8341.000,-31.000,-18.000,-32.000,NA,0.000,0
2026-01-30 22:01:32,1826884,-377.000,-1395.000,8381.000,-52.000,-52.000,-43.000,NA,0.000,0
2026-01-30 22:01:32,1826924,-276.000,-1475.000,8339.000,-45.000,-38.000,-42.000,NA,0.000,0
2026-01-30 22:01:32,1826964,-242.000,-1386.000,8336.000,28.000,-31.000,-24.000,NA,0.000,0
2026-01-30 22:01:32,1827004,-466.000,-1310.000,8374.000,75.000,63.000,50.000,NA,0.000,0
2026-01-30 22:01:32,1827044,-544.000,-1307.000,8381.000,79.000,58.000,74.000,NA,0.000,0
2026-01-30 22:01:32,1827084,-586.000,-1207.000,8417.000,58.000,52.000,59.000,NA,0.000,0
2026-01-30 22:01:32,1827124,-522.000,-1215.000,8331.000,0.000,-11.000,-5.000,NA,0.000,0
2026-01-30 22:01:32,1827164,-394.000,-1310.000,8362.000,-63.000,-22.000,-45.000,NA,0.000,0
2026-01-30 22:01:32,1827204,-434.000,-1425.000,8369.000,-25.000,18.000,-83.000,NA,0.000,0
2026-01-30 22:01:32,1827244,-382.000,-1415.000,8365.000,-24.000,-35.000,-69.000,NA,0.000,0
2026-01-30 22:01:33,1827284,-381.000,-1449.000,8357.000,-55.000,-8.000,-25.000,NA,0.000,0
2026-01-30 22:01:33,1827324,-463.000,-1496.000,8411.000,-6.000,18.000,38.000,NA,0.000,0
2026-01-30 22:01:33,1827364,-498.000,-1258.000,8356.000,51.000,0.000,67.000,NA,0.000,0
2026-01-30 22:01:33,1827404,-493.000,-1287.000,8357.000,-45.000,-20.000,30.000,NA,0.000,0
2026-01-30 22:01:33,1827444,-459.000,-1427.000,8314.000,-36.000,-12.000,-36.000,NA,0.000,0
2026-01-30 22:01:33,1827484,-461.000,-1401.000,8346.000,16.000,13.000,-59.000,NA,0.000,0
2026-01-30 22:01:33,1827524,-509.000,-1429.000,8303.000,12.000,30.000,-53.000,NA,0.000,0
2026-01-30 22:01:33,1827564,-517.000,-1399.000,8291.000,13.000,7.000,-24.000,NA,0.000,0
2026-01-30 22:01:33,1827604,-498.000,-1431.000,8430.000,-45.000,16.000,47.000,NA,0.000,0
2026-01-30 22:01:33,1827644,-530.000,-1393.000,8463.000,55.000,39.000,77.000,NA,0.000,0
2026-01-30 22:01:33,1827684,-408.000,-1217.000,8463.000,19.000,-32.000,58.000,NA,0.000,0
2026-01-30 22:01:33,1827724,-409.000,-1342.000,8450.000,-55.000,-8.000,-11.000,NA,0.000,0
2026-01-30 22:01:33,1827764,-480.000,-1406.000,8352.000,35.000,-28.000,-101.000,NA,0.000,0
2026-01-30 22:01:33,1827804,-572.000,-1423.000,8310.000,18.000,-6.000,-73.000,NA,0.000,0
2026-01-30 22:01:33,1827844,-503.000,-1343.000,8315.000,2.000,-17.000,-4.000,NA,0.000,0
2026-01-30 22:01:33,1827884,-393.000,-1442.000,8325.000,-57.000,-15.000,53.000,NA,0.000,0
2026-01-30 22:01:33,1827924,-460.000,-1371.000,8414.000,43.000,32.000,86.000,NA,0.000,0
2026-01-30 22:01:33,1827964,-462.000,-1304.000,8355.000,4.000,-17.000,35.000,NA,0.000,0
2026-01-30 22:01:33,1828004,-406.000,-1314.000,8407.000,0.000,-5.000,-15.000,NA,0.000,0
2026-01-30 22:01:33,1828044,-337.000,-1201.000,8438.000,52.000,3.000,-47.000,NA,0.000,0
2026-01-30 22:01:33,1828084,-263.000,-1280.000,8493.000,-18.000,-4.000,-42.000,NA,0.000,0
2026-01-30 22:01:33,1828124,-295.000,-1173.000,8388.000,99.000,15.000,-15.000,NA,0.000,0
2026-01-30 22:01:33,1828164,-245.000,-1113.000,8348.000,39.000,-57.000,17.000,NA,0.000,0
2026-01-30 22:01:33,1828204,-218.000,-1115.000,8414.000,3.000,-37.000,23.000,NA,0.000,0
2026-01-30 22:01:33,1828244,-124.000,-1093.000,8441.000,-11.000,-40.000,23.000,NA,0.000,0
2026-01-30 22:01:34,1828284,-124.000,-1112.000,8404.000,7.000,-27.000,0.000,NA,0.000,0
2026-01-30 22:01:34,1828324,-102.000,-1086.000,8361.000,-20.000,-69.000,-47.000,NA,0.000,0
2026-01-30 22:01:34,1828364,-43.000,-1174.000,8360.000,-82.000,-87.000,-73.000,NA,0.000,0
2026-01-30 22:01:34,1828407,-88.000,-1234.000,8417.000,14.000,-22.000,-41.000,NA,0.000,0
2026-01-30 22:01:34,1828446,-171.000,-1105.000,8420.000,87.000,-14.000,31.000,NA,0.000,0
2026-01-30 22:01:34,1828484,-204.000,-1021.000,8424.000,89.000,-11.000,56.000,NA,0.000,0
2026-01-30 22:01:34,1828524,-165.000,-1020.000,8441.000,-17.000,-33.000,74.000,NA,0.000,0
2026-01-30 22:01:34,1828567,-113.000,-1082.000,8455.000,-14.000,-20.000,2.000,NA,0.000,0
2026-01-30 22:01:34,1828604,-120.000,-1097.000,8448.000,-10.000,-32.000,-26.000,NA,0.000,0
2026-01-30 22:01:34,1828644,-102.000,-1119.000,8389.000,-15.000,-60.000,-94.000,NA,0.000,0
2026-01-30 22:01:34,1828684,-42.000,-1145.000,8431.000,-78.000,-78.000,-89.000,NA,0.000,0
2026-01-30 22:01:34,1828724,-68.000,-1325.000,8419.000,-74.000,-40.000,-51.000,NA,0.000,0
2026-01-30 22:01:34,1828764,-73.000,-1128.000,8405.000,56.000,-50.000,8.000,NA,0.000,0
2026-01-30 22:01:34,1828804,-110.000,-1082.000,8387.000,-13.000,-52.000,49.000,NA,0.000,0
2026-01-30 22:01:34,1828844,-164.000,-1114.000,8425.000,-5.000,-20.000,61.000,NA,0.000,0
2026-01-30 22:01:34,1828884,-122.000,-1081.000,8368.000,2.000,-31.000,3.000,NA,0.000,0
2026-01-30 22:01:34,1828924,-61.000,-1079.000,8424.000,-51.000,-46.000,-30.000,NA,0.000,0
2026-01-30 22:01:34,1828964,-66.000,-1252.000,8443.000,-66.000,-1.000,-51.000,NA,0.000,0
2026-01-30 22:01:34,1829004,-110.000,-1287.000,8424.000,27.000,-2.000,-49.000,NA,0.000,0
2026-01-30 22:01:34,1829044,-118.000,-1167.000,8324.000,47.000,-50.000,-25.000,NA,0.000,0
2026-01-30 22:01:34,1829084,-107.000,-1103.000,8343.000,-12.000,-52.000,7.000,NA,0.000,0
2026-01-30 22:01:34,1829124,-129.000,-1193.000,8470.000,-35.000,13.000,47.000,NA,0.000,0
2026-01-30 22:01:34,1829164,-200.000,-1167.000,8457.000,67.000,64.000,48.000,NA,0.000,0
2026-01-30 22:01:34,1829204,-232.000,-1085.000,8421.000,47.000,12.000,26.000,NA,0.000,0
2026-01-30 22:01:34,1829244,-170.000,-1099.000,8368.000,-21.000,-40.000,-25.000,NA,0.000,0
2026-01-30 22:01:35,1829284,-41.000,-1251.000,8426.000,-60.000,0.000,-44.000,NA,0.000,0
2026-01-30 22:01:35,1829324,-84.000,-1255.000,8470.000,25.000,34.000,-15.000,NA,0.000,0
2026-01-30 22:01:35,1829364,-168.000,-1179.000,8381.000,80.000,35.000,2.000,NA,0.000,0
2026-01-30 22:01:35,1829404,-146.000,-1085.000,8371.000,11.000,-12.000,21.000,NA,0.000,0
2026-01-30 22:01:35,1829444,-128.000,-1177.000,8425.000,-30.000,20.000,30.000,NA,0.000,0
2026-01-30 22:01:35,1829484,-159.000,-1179.000,8470.000,18.000,42.000,16.000,NA,0.000,0
2026-01-30 22:01:35,1829524,-175.000,-1170.000,8420.000,59.000,30.000,-9.000,NA,0.000,0
2026-01-30 22:01:35,1829564,-172.000,-1097.000,8321.000,27.000,-8.000,-29.000,NA,0.000,0
2026-01-30 22:01:35,1829604,-72.000,-1190.000,8352.000,-79.000,-11.000,-34.000,NA,0.000,0
2026-01-30 22:01:35,1829644,-144.000,-1296.000,8496.000,-29.000,66.000,-7.000,NA,0.000,0
2026-01-30 22:01:35,1829684,-221.000,-1182.000,8439.000,86.000,44.000,20.000,NA,0.000,0
2026-01-30 22:01:35,1829724,-248.000,-1091.000,8388.000,71.000,1.000,21.000,NA,0.000,0
2026-01-30 22:01:35,1829764,-204.000,-1086.000,8357.000,10.000,-2.000,9.000,NA,0.000,0
2026-01-30 22:01:35,1829804,-176.000,-1123.000,8394.000,15.000,35.000,-5.000,NA,0.000,0
2026-01-30 22:01:35,1829844,-210.000,-1116.000,8440.000,22.000,51.000,-12.000,NA,0.000,0
2026-01-30 22:01:35,1829884,-197.000,-1156.000,8431.000,-22.000,28.000,-15.000,NA,0.000,0
2026-01-30 22:01:35,1829924,-150.000,-1227.000,8421.000,-36.000,-3.000,-15.000,NA,0.000,0
2026-01-30 22:01:35,1829964,-128.000,-1232.000,8407.000,-18.000,-16.000,-10.000,NA,0.000,0
2026-01-30 22:01:35,1830004,-173.000,-1199.000,8397.000,36.000,2.000,3.000,NA,0.000,0
2026-01-30 22:01:35,1830044,-217.000,-1075.000,8383.000,26.000,9.000,18.000,NA,0.000,0
2026-01-30 22:01:35,1830084,-226.000,-1093.000,8420.000,-4.000,20.000,15.000,NA,0.000,0
2026-01-30 22:01:35,1830124,-223.000,-1137.000,8418.000,1.000,32.000,3.000,NA,0.000,0
2026-01-30 22:01:35,1830164,-240.000,-1152.000,8436.000,10.000,26.000,-10.000,NA,0.000,0
2026-01-30 22:01:35,1830204,-214.000,-1176.000,8442.000,-19.000,-3.000,-14.000,NA,0.000,0
2026-01-30 22:01:35,1830244,-169.000,-1189.000,8422.000,-4.000,-15.000,-16.000,NA,0.000,0
2026-01-30 22:01:36,1830284,-142.000,-1206.000,8376.000,-14.000,-20.000,-13.000,NA,0.000,0
2026-01-30 22:01:36,1830324,-159.000,-1180.000,8377.000,28.000,5.000,-10.000,NA,0.000,0
2026-01-30 22:01:36,1830364,-212.000,-1119.000,8391.000,-11.000,10.000,3.000,NA,0.000,0
2026-01-30 22:01:36,1830407,-276.000,-1151.000,8441.000,46.000,28.000,25.000,NA,0.000,0
2026-01-30 22:01:36,1830446,-264.000,-1072.000,8418.000,38.000,1.000,16.000,NA,0.000,0
2026-01-30 22:01:36,1830484,-242.000,-1093.000,8395.000,8.000,-8.000,11.000,NA,0.000,0
2026-01-30 22:01:36,1830524,-188.000,-1146.000,8395.000,-18.000,-3.000,-7.000,NA,0.000,0
2026-01-30 22:01:36,1830564,-195.000,-1207.000,8407.000,-24.000,26.000,-22.000,NA,0.000,0
2026-01-30 22:01:36,1830604,-196.000,-1216.000,8434.000,-2.000,8.000,-12.000,NA,0.000,0
2026-01-30 22:01:36,1830644,-233.000,-1193.000,8403.000,2.000,-12.000,-17.000,NA,0.000,0
2026-01-30 22:01:36,1830684,-219.000,-1177.000,8381.000,7.000,-15.000,0.000,NA,0.000,0
2026-01-30 22:01:36,1830724,-237.000,-1137.000,8388.000,2.000,-6.000,16.000,NA,0.000,0
2026-01-30 22:01:36,1830764,-286.000,-1178.000,8408.000,-9.000,14.000,14.000,NA,0.000,0
2026-01-30 22:01:36,1830804,-331.000,-1224.000,8415.000,-19.000,6.000,1.000,NA,0.000,0
2026-01-30 22:01:36,1830844,-320.000,-1235.000,8415.000,-1.000,-2.000,-11.000,NA,0.000,0
2026-01-30 22:01:36,1830884,-224.000,-1174.000,8400.000,-8.000,-30.000,-11.000,NA,0.000,0
2026-01-30 22:01:36,1830924,-209.000,-1235.000,8385.000,-13.000,-9.000,-17.000,NA,0.000,0
2026-01-30 22:01:36,1830964,-235.000,-1201.000,8405.000,21.000,-1.000,-4.000,NA,0.000,0
2026-01-30 22:01:36,1831004,-295.000,-1209.000,8382.000,-1.000,13.000,0.000,NA,0.000,0
2026-01-30 22:01:36,1831044,-405.000,-1264.000,8390.000,-22.000,12.000,-4.000,NA,0.000,0
2026-01-30 22:01:36,1831084,-509.000,-1372.000,8409.000,-31.000,13.000,1.000,NA,0.000,0
2026-01-30 22:01:36,1831124,-573.000,-1428.000,8409.000,-28.000,3.000,-5.000,NA,0.000,0
2026-01-30 22:01:36,1831164,-519.000,-1275.000,8347.000,-5.000,-22.000,-5.000,NA,0.000,0
2026-01-30 22:01:36,1831204,-339.000,-1389.000,8308.000,-108.000,-48.000,-22.000,NA,0.000,0
2026-01-30 22:01:36,1831244,-384.000,-1447.000,8352.000,-6.000,18.000,-19.000,NA,0.000,0
2026-01-30 22:01:37,1831284,-484.000,-1349.000,8389.000,57.000,28.000,0.000,NA,0.000,0
2026-01-30 22:01:37,1831324,-485.000,-1276.000,8367.000,61.000,6.000,21.000,NA,0.000,0
2026-01-30 22:01:37,1831364,-428.000,-1149.000,8365.000,57.000,8.000,33.000,NA,0.000,0
2026-01-30 22:01:37,1831404,-359.000,-1228.000,8385.000,3.000,14.000,11.000,NA,0.000,0
2026-01-30 22:01:37,1831444,-351.000,-1277.000,8419.000,5.000,33.000,-25.000,NA,0.000,0
2026-01-30 22:01:37,1831484,-403.000,-1380.000,8407.000,-39.000,21.000,-57.000,NA,0.000,0
2026-01-30 22:01:37,1831524,-431.000,-1408.000,8412.000,-14.000,-2.000,-52.000,NA,0.000,0
2026-01-30 22:01:37,1831564,-427.000,-1328.000,8367.000,-3.000,-29.000,8.000,NA,0.000,0
2026-01-30 22:01:37,1831604,-409.000,-1304.000,8375.000,-29.000,-28.000,43.000,NA,0.000,0
2026-01-30 22:01:37,1831644,-427.000,-1296.000,8378.000,-21.000,-12.000,41.000,NA,0.000,0
2026-01-30 22:01:37,1831684,-455.000,-1281.000,8396.000,3.000,-8.000,11.000,NA,0.000,0
2026-01-30 22:01:37,1831724,-434.000,-1285.000,8356.000,-10.000,-10.000,-25.000,NA,0.000,0
2026-01-30 22:01:37,1831764,-425.000,-1314.000,8355.000,9.000,-4.000,-45.000,NA,0.000,0
2026-01-30 22:01:37,1831804,-386.000,-1309.000,8364.000,7.000,-1.000,-31.000,NA,0.000,0
2026-01-30 22:01:37,1831844,-419.000,-1367.000,8365.000,14.000,21.000,-7.000,NA,0.000,0
2026-01-30 22:01:37,1831884,-437.000,-1317.000,8416.000,37.000,8.000,20.000,NA,0.000,0
