datetime_local,uptime_ms,acc_x,acc_y,acc_z,gyro_x,gyro_y,gyro_z,speed_mps,turn_rate_deg_s,gps_valid
2026-01-31 16:11:14,1830174,230.000,-6436.000,6619.000,-2041.000,151.000,336.000,0.000,0.000,1
2026-01-31 16:11:14,1830214,-1182.000,-5149.000,6419.000,644.000,-291.000,58.000,0.000,0.000,1
2026-01-31 16:11:14,1830254,-1214.000,-5461.000,6459.000,-172.000,-299.000,-52.000,0.000,0.000,1
2026-01-31 16:11:15,1830294,-1005.000,-5203.000,6841.000,-57.000,-358.000,19.000,0.000,0.000,1
2026-01-31 16:11:15,1830334,-919.000,-5488.000,6683.000,-66.000,-221.000,-97.000,0.000,0.000,1
2026-01-31 16:11:15,1830374,-871.000,-5146.000,6677.000,187.000,5.000,6.000,0.000,0.000,1
2026-01-31 16:11:15,1830414,-924.000,-5397.000,6681.000,-127.000,101.000,-52.000,0.000,0.000,1
2026-01-31 16:11:15,1830454,-1012.000,-5272.000,6552.000,55.000,126.000,-98.000,0.000,0.000,1
2026-01-31 16:11:15,1830494,-942.000,-5341.000,6500.000,-3.000,82.000,-94.000,0.000,0.000,1
2026-01-31 16:11:15,1830534,-919.000,-5217.000,6536.000,28.000,71.000,-94.000,0.000,0.000,1
2026-01-31 16:11:15,1830574,-890.000,-5378.000,6413.000,-73.000,27.000,-145.000,0.000,0.000,1
2026-01-31 16:11:15,1830614,-1054.000,-5304.000,6339.000,172.000,-23.000,-75.000,0.000,0.000,1
2026-01-31 16:11:15,1830654,-1122.000,-5473.000,6201.000,268.000,-226.000,11.000,0.000,0.000,1
2026-01-31 16:11:15,1830694,-1030.000,-5190.000,6266.000,411.000,-519.000,147.000,0.000,0.000,1
2026-01-31 16:11:15,1830734,-738.000,-5001.000,6508.000,552.000,-866.000,347.000,0.000,0.000,1
2026-01-31 16:11:15,1830774,-576.000,-5195.000,6589.000,345.000,-1028.000,352.000,0.000,0.000,1
2026-01-31 16:11:15,1830814,-498.000,-5159.000,6656.000,555.000,-1071.000,350.000,0.000,0.000,1
2026-01-31 16:11:15,1830854,-466.000,-5319.000,6442.000,456.000,-1208.000,285.000,0.000,0.000,1
2026-01-31 16:11:15,1830894,-411.000,-5300.000,6444.000,582.000,-1379.000,468.000,0.000,0.000,1
2026-01-31 16:11:15,1830934,-543.000,-4788.000,6669.000,559.000,-1596.000,678.000,0.000,0.000,1
2026-01-31 16:11:15,1830974,-424.000,-5058.000,6761.000,171.000,-1805.000,650.000,0.000,0.000,1
2026-01-31 16:11:15,1831014,-297.000,-4768.000,6824.000,877.000,-1851.000,593.000,0.000,0.000,1
2026-01-31 16:11:15,1831054,219.000,-4940.000,7057.000,843.000,-1827.000,493.000,0.000,0.000,1
2026-01-31 16:11:15,1831094,127.000,-4468.000,7080.000,949.000,-1604.000,490.000,0.000,0.000,1
2026-01-31 16:11:15,1831134,29.000,-4803.000,7029.000,-428.000,-1365.000,329.000,0.000,0.000,1
2026-01-31 16:11:15,1831174,93.000,-4864.000,6853.000,523.000,-1360.000,260.000,0.000,0.000,1
2026-01-31 16:11:15,1831214,202.000,-4797.000,6757.000,411.000,-1522.000,292.000,0.000,0.000,1
2026-01-31 16:11:15,1831254,399.000,-4472.000,6873.000,621.000,-1620.000,368.000,0.000,0.000,1
2026-01-31 16:11:16,1831294,740.000,-4716.000,6728.000,773.000,-1737.000,450.000,0.000,0.000,1
2026-01-31 16:11:16,1831334,855.000,-4692.000,6597.000,1487.000,-1902.000,734.000,0.000,0.000,1
2026-01-31 16:11:16,1831374,860.000,-4138.000,6808.000,2132.000,-2156.000,1061.000,0.000,0.000,1
2026-01-31 16:11:16,1831414,1026.000,-4352.000,6777.000,2100.000,-2414.000,1070.000,0.000,0.000,1
2026-01-31 16:11:16,1831454,1723.000,-3088.000,7345.000,3469.000,-2556.000,1134.000,0.000,0.000,1
2026-01-31 16:11:16,1831494,982.000,-3628.000,7325.000,1986.000,-2448.000,584.000,0.000,0.000,1
2026-01-31 16:11:16,1831534,4383.000,-3589.000,6660.000,3966.000,-2301.000,2094.000,0.000,0.000,1
2026-01-31 16:11:16,1831574,2894.000,-2374.000,7865.000,6455.000,-3045.000,5768.000,0.000,0.000,1
2026-01-31 16:11:16,1831614,1979.000,-2250.000,7515.000,6843.000,-2488.000,3138.000,0.000,0.000,1
2026-01-31 16:11:16,1831654,2361.000,-2631.000,7128.000,4851.000,-2979.000,1024.000,0.000,0.000,1
2026-01-31 16:11:16,1831694,3931.000,-924.000,7529.000,6776.000,-2890.000,1260.000,0.000,0.000,1
2026-01-31 16:11:16,1831734,2240.000,-1922.000,7420.000,4655.000,-3523.000,2339.000,0.000,0.000,1
2026-01-31 16:11:16,1831774,3268.000,-203.000,8191.000,6443.000,-3229.000,2454.000,0.000,0.000,1
2026-01-31 16:11:16,1831814,3072.000,-1281.000,7254.000,9658.000,-2455.000,3414.000,0.000,0.000,1
2026-01-31 16:11:16,1831854,3857.000,-64.000,6730.000,9061.000,-4850.000,2497.000,0.000,0.000,1
2026-01-31 16:11:16,1831897,3834.000,1734.000,8586.000,-4760.000,-5377.000,-2141.000,0.000,0.000,1
2026-01-31 16:11:16,1831937,5598.000,-1874.000,6597.000,-5201.000,-4778.000,10.000,0.000,0.000,1
2026-01-31 16:11:16,1831974,6061.000,-12.000,7115.000,-1648.000,-4447.000,1586.000,0.000,0.000,1
2026-01-31 16:11:16,1832014,5272.000,-851.000,6010.000,1581.000,-3087.000,5103.000,0.000,0.000,1
2026-01-31 16:11:16,1832054,5832.000,-156.000,6228.000,4690.000,-2485.000,4234.000,0.000,0.000,1
2026-01-31 16:11:16,1832094,6257.000,3140.000,6500.000,16791.000,-1539.000,-11885.000,0.000,0.000,1
2026-01-31 16:11:16,1832134,1339.000,1221.000,-1725.000,32732.000,2395.000,3080.000,0.000,0.000,1
2026-01-31 16:11:16,1832174,6647.000,14662.000,-2605.000,32144.000,-3080.000,1993.000,0.000,0.000,1
2026-01-31 16:11:16,1832214,5502.000,13588.000,2424.000,3358.000,-2754.000,-823.000,0.000,0.000,1
2026-01-31 16:11:16,1832254,6328.000,5012.000,2165.000,-14428.000,-1514.000,-2247.000,0.000,0.000,1
2026-01-31 16:11:17,1832294,7033.000,4155.000,4893.000,-3760.000,-995.000,-1690.000,0.000,0.000,1
2026-01-31 16:11:17,1832334,7824.000,4065.000,4835.000,-1957.000,1438.000,-1285.000,0.000,0.000,1
2026-01-31 16:11:17,1832374,7657.000,4576.000,6052.000,-473.000,4017.000,-895.000,0.000,0.000,1
2026-01-31 16:11:17,1832414,7453.000,5010.000,5714.000,-644.000,6860.000,-75.000,0.000,0.000,1
2026-01-31 16:11:17,1832454,6394.000,5326.000,5693.000,916.000,9214.000,1245.000,0.000,0.000,1
2026-01-31 16:11:17,1832494,4881.000,7102.000,5848.000,-3340.000,10597.000,2375.000,0.000,0.000,1
2026-01-31 16:11:17,1832534,2531.000,4478.000,6223.000,-8682.000,11163.000,4666.000,0.000,0.000,1
2026-01-31 16:11:17,1832574,1868.000,4262.000,6452.000,-10879.000,9041.000,7084.000,0.000,0.000,1
2026-01-31 16:11:17,1832614,1895.000,2503.000,6588.000,-9441.000,6867.000,8417.000,0.000,0.000,1
2026-01-31 16:11:17,1832654,907.000,3104.000,5502.000,-4041.000,3225.000,8206.000,0.000,0.000,1
2026-01-31 16:11:17,1832694,1451.000,3203.000,5872.000,-2245.000,1107.000,7631.000,0.000,0.000,1
2026-01-31 16:11:17,1832734,2554.000,2252.000,6112.000,-3244.000,-450.000,6607.000,0.000,0.000,1
2026-01-31 16:11:17,1832774,4254.000,3758.000,6925.000,-4093.000,-508.000,4533.000,0.000,0.000,1
2026-01-31 16:11:17,1832814,4080.000,2186.000,9301.000,-7230.000,874.000,815.000,0.000,0.000,1
2026-01-31 16:11:17,1832854,2641.000,-844.000,8363.000,383.000,2382.000,-630.000,0.000,0.000,1
2026-01-31 16:11:17,1832894,1767.000,689.000,6988.000,2030.000,2956.000,-1064.000,0.000,0.000,1
2026-01-31 16:11:17,1832934,2174.000,-512.000,6697.000,170.000,1250.000,-2256.000,0.000,0.000,1
2026-01-31 16:11:17,1832974,3135.000,-1118.000,8649.000,1750.000,800.000,-2673.000,0.000,0.000,1
2026-01-31 16:11:17,1833014,5034.000,836.000,7719.000,2664.000,1708.000,-1373.000,0.000,0.000,1
2026-01-31 16:11:17,1833054,228.000,1581.000,7802.000,-162.000,1890.000,-3355.000,0.000,0.000,1
2026-01-31 16:11:17,1833094,2079.000,1064.000,7531.000,1481.000,1829.000,-2131.000,0.000,0.000,1
2026-01-31 16:11:17,1833134,1626.000,1564.000,8203.000,3682.000,1354.000,-1537.000,0.000,0.000,1
2026-01-31 16:11:17,1833174,1947.000,703.000,9074.000,1726.000,772.000,-1717.000,0.000,0.000,1
2026-01-31 16:11:17,1833214,1472.000,1032.000,7907.000,3329.000,949.000,-1849.000,0.000,0.000,1
2026-01-31 16:11:17,1833254,1704.000,1756.000,7806.000,2978.000,662.000,-2026.000,0.000,0.000,1
2026-01-31 16:11:18,1833294,1979.000,1981.000,7830.000,2035.000,289.000,-1511.000,0.000,0.000,1
2026-01-31 16:11:18,1833334,1982.000,1722.000,7952.000,889.000,540.000,-1073.000,0.000,0.000,1
2026-01-31 16:11:18,1833374,2123.000,1295.000,7834.000,235.000,392.000,-756.000,0.000,0.000,1
2026-01-31 16:11:18,1833414,1898.000,2753.000,8122.000,-411.000,-31.000,-338.000,0.000,0.000,1
2026-01-31 16:11:18,1833454,1464.000,2263.000,8071.000,-511.000,-975.000,-335.000,0.000,0.000,1
2026-01-31 16:11:18,1833494,2033.000,2087.000,7969.000,-518.000,-1366.000,163.000,0.000,0.000,1
2026-01-31 16:11:18,1833534,2090.000,2781.000,7435.000,-275.000,-1165.000,694.000,0.000,0.000,1
2026-01-31 16:11:18,1833574,1962.000,627.000,8604.000,-1219.000,-979.000,1595.000,0.000,0.000,1
2026-01-31 16:11:18,1833614,3430.000,2479.000,6825.000,319.000,-998.000,2050.000,0.000,0.000,1
2026-01-31 16:11:18,1833654,3049.000,3287.000,7035.000,-763.000,-1244.000,1322.000,0.000,0.000,1
2026-01-31 16:11:18,1833694,2503.000,2366.000,8958.000,-1777.000,-919.000,2075.000,0.000,0.000,1
2026-01-31 16:11:18,1833734,2181.000,1127.000,5936.000,-450.000,-1070.000,2025.000,0.000,0.000,1
2026-01-31 16:11:18,1833774,2811.000,3247.000,7943.000,-1393.000,-973.000,1385.000,0.000,0.000,1
2026-01-31 16:11:18,1833814,3339.000,2956.000,8319.000,42.000,-1201.000,2193.000,0.000,0.000,1
2026-01-31 16:11:18,1833854,3551.000,1603.000,6345.000,416.000,-1086.000,2075.000,0.000,0.000,1
2026-01-31 16:11:18,1833897,2356.000,1614.000,7063.000,792.000,-208.000,1948.000,0.000,0.000,1
2026-01-31 16:11:18,1833936,3095.000,2702.000,8395.000,1034.000,-156.000,1627.000,0.000,0.000,1
2026-01-31 16:11:18,1833974,2579.000,1772.000,7796.000,292.000,286.000,1664.000,0.000,0.000,1
2026-01-31 16:11:18,1834014,2566.000,2047.000,7545.000,39.000,228.000,1461.000,0.000,0.000,1
2026-01-31 16:11:18,1834054,2723.000,1424.000,7811.000,-628.000,486.000,1469.000,0.000,0.000,0
2026-01-31 16:11:18,1834094,2773.000,1450.000,8131.000,-197.000,481.000,1511.000,0.000,0.000,0
2026-01-31 16:11:18,1834134,2780.000,667.000,8102.000,-238.000,262.000,1122.000,0.000,0.000,1
2026-01-31 16:11:18,1834177,2490.000,-75.000,7688.000,-794.000,-618.000,-426.000,0.000,0.000,1
2026-01-31 16:11:18,1834214,2842.000,68.000,7745.000,205.000,-982.000,-583.000,0.000,0.000,1
2026-01-31 16:11:18,1834254,3151.000,92.000,8177.000,-80.000,-1110.000,-507.000,0.000,0.000,1
2026-01-31 16:11:19,1834294,3263.000,-705.000,8119.000,-451.000,-1031.000,-556.000,0.000,0.000,1
2026-01-31 16:11:19,1834334,3344.000,-105.000,7693.000,-620.000,-817.000,-724.000,0.000,0.000,1
2026-01-31 16:11:19,1834374,3236.000,-10.000,7123.000,-748.000,-167.000,-891.000,0.000,0.000,1
2026-01-31 16:11:19,1834414,3519.000,-132.000,7887.000,-548.000,134.000,-1115.000,0.000,0.000,1
2026-01-31 16:11:19,1834454,3047.000,695.000,7257.000,765.000,924.000,-1157.000,0.000,0.000,1
2026-01-31 16:11:19,1834494,3338.000,-43.000,7574.000,-211.000,986.000,-1685.000,0.000,0.000,1
2026-01-31 16:11:19,1834534,4080.000,2060.000,7754.000,605.000,883.000,-2229.000,0.000,0.000,1
2026-01-31 16:11:19,1834574,2042.000,2070.000,8477.000,469.000,1595.000,-2479.000,0.000,0.000,1
2026-01-31 16:11:19,1834614,1936.000,963.000,7931.000,1067.000,1599.000,-1867.000,0.000,0.000,1
2026-01-31 16:11:19,1834654,2993.000,1655.000,8476.000,396.000,1121.000,-1836.000,0.000,0.000,1
2026-01-31 16:11:19,1834694,2214.000,573.000,7623.000,-695.000,1274.000,-1912.000,0.000,0.000,1
2026-01-31 16:11:19,1834734,2896.000,1614.000,7715.000,-126.000,869.000,-2383.000,0.000,0.000,1
2026-01-31 16:11:19,1834774,2753.000,1147.000,7454.000,-932.000,1055.000,-2635.000,0.000,0.000,1
2026-01-31 16:11:19,1834814,2501.000,1605.000,7227.000,123.000,1620.000,-2710.000,0.000,0.000,1
2026-01-31 16:11:19,1834854,2071.000,1972.000,7855.000,575.000,1952.000,-2309.000,0.000,0.000,1
2026-01-31 16:11:19,1834894,2296.000,2263.000,7847.000,934.000,1994.000,-1104.000,0.000,0.000,1
2026-01-31 16:11:19,1834934,1977.000,2733.000,8367.000,514.000,1286.000,-442.000,0.000,0.000,1
2026-01-31 16:11:19,1834974,2037.000,2631.000,8374.000,699.000,184.000,813.000,0.000,0.000,1
2026-01-31 16:11:19,1835014,1644.000,1942.000,8612.000,-75.000,-765.000,1413.000,0.000,0.000,1
2026-01-31 16:11:19,1835054,1065.000,1855.000,7169.000,83.000,-1037.000,1599.000,0.000,0.000,1
2026-01-31 16:11:19,1835094,1073.000,1161.000,7474.000,-90.000,-827.000,1497.000,0.000,0.000,1
2026-01-31 16:11:19,1835134,1343.000,2683.000,7577.000,644.000,-368.000,1514.000,0.000,0.000,1
2026-01-31 16:11:19,1835174,826.000,2209.000,7839.000,240.000,653.000,1805.000,0.000,0.000,1
2026-01-31 16:11:19,1835214,596.000,1812.000,7825.000,1033.000,1194.000,2103.000,0.000,0.000,1
2026-01-31 16:11:19,1835254,518.000,2355.000,7924.000,128.000,1504.000,2272.000,0.000,0.000,1
2026-01-31 16:11:20,1835294,1008.000,1324.000,7141.000,202.000,2209.000,2575.000,0.000,0.000,1
2026-01-31 16:11:20,1835334,2288.000,4382.000,9103.000,1281.000,2718.000,2617.000,0.000,0.000,1
2026-01-31 16:11:20,1835374,557.000,2431.000,9694.000,753.000,1901.000,2781.000,0.000,0.000,1
2026-01-31 16:11:20,1835414,-42.000,562.000,6930.000,-53.000,1892.000,1869.000,0.000,0.000,1
2026-01-31 16:11:20,1835454,2230.000,1835.000,8919.000,1477.000,-283.000,2041.000,0.000,0.000,1
2026-01-31 16:11:20,1835494,604.000,1488.000,7194.000,1340.000,-741.000,1433.000,0.000,0.000,1
2026-01-31 16:11:20,1835534,2971.000,2801.000,8540.000,1886.000,-1977.000,2040.000,0.000,0.000,1
2026-01-31 16:11:20,1835574,-594.000,1865.000,7770.000,1535.000,-937.000,2702.000,0.000,0.000,1
2026-01-31 16:11:20,1835614,1711.000,2782.000,8091.000,2144.000,-1252.000,3591.000,0.000,0.000,1
2026-01-31 16:11:20,1835654,1741.000,2317.000,6692.000,1553.000,-1787.000,3736.000,0.000,0.000,1
2026-01-31 16:11:20,1835694,1887.000,3187.000,7008.000,1915.000,-2696.000,3265.000,0.000,0.000,1
2026-01-31 16:11:20,1835734,1709.000,4012.000,6645.000,2198.000,-2510.000,3230.000,0.000,0.000,1
2026-01-31 16:11:20,1835774,1452.000,3444.000,7472.000,1752.000,-2738.000,2557.000,0.000,0.000,1
2026-01-31 16:11:20,1835814,1888.000,3109.000,7316.000,1728.000,-2934.000,2993.000,0.000,0.000,1
2026-01-31 16:11:20,1835854,2893.000,2825.000,9505.000,2781.000,-2398.000,3335.000,0.000,0.000,1
2026-01-31 16:11:20,1835897,5615.000,4498.000,6759.000,3584.000,-2691.000,3100.000,0.000,0.000,1
2026-01-31 16:11:20,1835934,5755.000,1637.000,8038.000,4070.000,-2078.000,2573.000,0.000,0.000,1
2026-01-31 16:11:20,1835974,2817.000,4659.000,5177.000,4766.000,-2584.000,1918.000,0.000,0.000,1
2026-01-31 16:11:20,1836014,5662.000,4059.000,6329.000,4141.000,-3183.000,1541.000,0.000,0.000,1
2026-01-31 16:11:20,1836054,3882.000,2968.000,5507.000,2382.000,-2692.000,660.000,0.000,0.000,1
2026-01-31 16:11:20,1836094,4883.000,4809.000,5697.000,1391.000,-2692.000,1215.000,0.000,0.000,1
2026-01-31 16:11:20,1836134,3934.000,3062.000,5629.000,-1032.000,-1532.000,-357.000,0.000,0.000,1
2026-01-31 16:11:20,1836177,4748.000,4413.000,5492.000,277.000,-560.000,107.000,0.000,0.000,1
2026-01-31 16:11:20,1836214,4595.000,3911.000,5875.000,304.000,-410.000,44.000,0.000,0.000,1
2026-01-31 16:11:20,1836254,5667.000,3005.000,5774.000,2106.000,-400.000,-23.000,0.000,0.000,1
2026-01-31 16:11:21,1836294,7531.000,3024.000,7843.000,3663.000,-403.000,-1077.000,0.000,0.000,1
2026-01-31 16:11:21,1836334,4877.000,3375.000,4007.000,2407.000,1113.000,73.000,0.000,0.000,1
2026-01-31 16:11:21,1836374,6634.000,2680.000,4029.000,3198.000,1061.000,-355.000,0.000,0.000,1
2026-01-31 16:11:21,1836414,7858.000,4381.000,6661.000,5786.000,1402.000,-1115.000,0.000,0.000,1
2026-01-31 16:11:21,1836454,4992.000,1908.000,3362.000,3525.000,2419.000,123.000,0.000,0.000,1
2026-01-31 16:11:21,1836494,6563.000,4003.000,6967.000,3295.000,1559.000,-120.000,0.000,0.000,1
2026-01-31 16:11:21,1836534,7231.000,9386.000,4107.000,7316.000,76.000,-798.000,0.000,0.000,1
2026-01-31 16:11:21,1836574,4498.000,-1842.000,4178.000,2342.000,1792.000,-247.000,0.000,0.000,1
2026-01-31 16:11:21,1836614,6399.000,9965.000,2670.000,5082.000,1425.000,-555.000,0.000,0.000,1
2026-01-31 16:11:21,1836654,3405.000,1748.000,1427.000,1492.000,2526.000,-722.000,0.000,0.000,1
2026-01-31 16:11:21,1836694,7421.000,7597.000,5977.000,3632.000,1261.000,-3439.000,0.000,0.000,1
2026-01-31 16:11:21,1836734,4186.000,5920.000,696.000,5784.000,2771.000,-821.000,0.000,0.000,1
2026-01-31 16:11:21,1836774,5557.000,5696.000,4358.000,2226.000,1768.000,-1862.000,0.000,0.000,1
2026-01-31 16:11:21,1836814,2989.000,6802.000,3290.000,3497.000,2146.000,-730.000,0.000,0.000,1
2026-01-31 16:11:21,1836854,4249.000,6602.000,2312.000,2533.000,2788.000,-718.000,0.000,0.000,1
2026-01-31 16:11:21,1836894,3869.000,8207.000,2282.000,1193.000,2849.000,-243.000,0.000,0.000,1
2026-01-31 16:11:21,1836934,2624.000,6836.000,2965.000,1115.000,3551.000,454.000,0.000,0.000,1
2026-01-31 16:11:21,1836974,3216.000,7226.000,2496.000,707.000,3673.000,581.000,0.000,0.000,1
2026-01-31 16:11:21,1837014,3379.000,6618.000,2390.000,-160.000,3314.000,1265.000,0.000,0.000,1
2026-01-31 16:11:21,1837054,3630.000,7118.000,2426.000,-681.000,2883.000,1240.000,0.000,0.000,1
2026-01-31 16:11:21,1837094,2309.000,6871.000,1906.000,-828.000,2303.000,1577.000,0.000,0.000,1
2026-01-31 16:11:21,1837134,3197.000,6505.000,2265.000,-821.000,1905.000,1590.000,0.000,0.000,1
2026-01-31 16:11:21,1837174,2019.000,7057.000,1188.000,137.000,1811.000,1766.000,0.000,0.000,1
2026-01-31 16:11:21,1837214,4013.000,6198.000,3154.000,-220.000,1134.000,1207.000,0.000,0.000,1
2026-01-31 16:11:21,1837254,4117.000,6941.000,2636.000,725.000,1495.000,971.000,0.000,0.000,1
2026-01-31 16:11:22,1837294,3622.000,6399.000,2684.000,771.000,1121.000,918.000,0.000,0.000,1
2026-01-31 16:11:22,1837334,4046.000,6608.000,2822.000,730.000,996.000,1100.000,0.000,0.000,1
2026-01-31 16:11:22,1837374,3667.000,6285.000,2637.000,910.000,485.000,974.000,0.000,0.000,1
2026-01-31 16:11:22,1837414,4008.000,6126.000,2979.000,897.000,12.000,677.000,0.000,0.000,1
2026-01-31 16:11:22,1837454,4304.000,6220.000,2924.000,952.000,177.000,255.000,0.000,0.000,1
2026-01-31 16:11:22,1837494,3514.000,6457.000,2781.000,518.000,103.000,-67.000,0.000,0.000,1
2026-01-31 16:11:22,1837534,4633.000,6449.000,3301.000,1370.000,263.000,-783.000,0.000,0.000,1
2026-01-31 16:11:22,1837574,3996.000,5896.000,3064.000,1158.000,496.000,-733.000,0.000,0.000,1
2026-01-31 16:11:22,1837614,4258.000,6068.000,3720.000,812.000,548.000,-908.000,0.000,0.000,1
2026-01-31 16:11:22,1837654,4072.000,6655.000,4141.000,581.000,1268.000,-679.000,0.000,0.000,1
2026-01-31 16:11:22,1837694,3621.000,5267.000,3088.000,1885.000,3140.000,-632.000,0.000,0.000,1
2026-01-31 16:11:22,1837734,2867.000,7616.000,4305.000,1419.000,4416.000,-264.000,0.000,0.000,1
2026-01-31 16:11:22,1837774,2808.000,6271.000,3677.000,920.000,5079.000,-282.000,0.000,0.000,1
2026-01-31 16:11:22,1837814,2637.000,7243.000,3628.000,921.000,3928.000,-759.000,0.000,0.000,1
2026-01-31 16:11:22,1837854,3085.000,7187.000,2804.000,-386.000,2991.000,-807.000,0.000,0.000,1
2026-01-31 16:11:22,1837897,2141.000,6997.000,2826.000,696.000,2230.000,-937.000,0.000,0.000,1
2026-01-31 16:11:22,1837936,2099.000,6740.000,3379.000,-503.000,2208.000,-1076.000,0.000,0.000,1
2026-01-31 16:11:22,1837974,1918.000,6817.000,3936.000,-599.000,2221.000,-944.000,0.000,0.000,1
2026-01-31 16:11:22,1838014,1000.000,6756.000,4315.000,1014.000,2092.000,-1694.000,0.000,0.000,1
2026-01-31 16:11:22,1838054,1594.000,7348.000,3736.000,-1636.000,1343.000,-730.000,0.000,0.000,0
2026-01-31 16:11:22,1838094,1513.000,6999.000,3868.000,-1124.000,1561.000,-56.000,0.000,0.000,0
2026-01-31 16:11:22,1838134,923.000,6802.000,3283.000,-847.000,2191.000,535.000,0.000,0.000,1
2026-01-31 16:11:22,1838177,2237.000,6631.000,2482.000,-433.000,2068.000,1054.000,0.000,0.000,1
2026-01-31 16:11:22,1838214,2403.000,7485.000,1320.000,265.000,1369.000,1110.000,0.000,0.000,1
2026-01-31 16:11:22,1838254,1460.000,8102.000,3350.000,-465.000,576.000,1376.000,0.000,0.000,1
2026-01-31 16:11:23,1838294,1221.000,8729.000,3508.000,1930.000,1000.000,1548.000,0.000,0.000,1
2026-01-31 16:11:23,1838334,344.000,7780.000,4338.000,1444.000,811.000,1842.000,0.000,0.000,1
2026-01-31 16:11:23,1838374,298.000,8128.000,3758.000,1599.000,604.000,1820.000,0.000,0.000,1
2026-01-31 16:11:23,1838414,567.000,8054.000,5223.000,1008.000,604.000,1901.000,0.000,0.000,1
2026-01-31 16:11:23,1838454,893.000,7247.000,5784.000,-1888.000,1336.000,2999.000,0.000,0.000,1
2026-01-31 16:11:23,1838494,678.000,8023.000,6129.000,-395.000,2586.000,3352.000,0.000,0.000,1
2026-01-31 16:11:23,1838534,697.000,6291.000,5847.000,-2690.000,2993.000,4082.000,0.000,0.000,1
2026-01-31 16:11:23,1838574,1250.000,6837.000,6422.000,-2661.000,2800.000,4211.000,0.000,0.000,1
2026-01-31 16:11:23,1838614,1339.000,7121.000,6321.000,-2749.000,3125.000,3897.000,0.000,0.000,1
2026-01-31 16:11:23,1838654,991.000,7044.000,5830.000,-3666.000,2152.000,3788.000,0.000,0.000,1
2026-01-31 16:11:23,1838694,1972.000,3281.000,5644.000,-4403.000,590.000,5191.000,0.000,0.000,1
2026-01-31 16:11:23,1838734,3496.000,3560.000,7207.000,-71.000,124.000,5432.000,0.000,0.000,1
2026-01-31 16:11:23,1838774,1396.000,4405.000,5691.000,456.000,931.000,5924.000,0.000,0.000,1
2026-01-31 16:11:23,1838814,4550.000,2346.000,6575.000,-2156.000,-986.000,6945.000,0.000,0.000,1
2026-01-31 16:11:23,1838854,4606.000,536.000,5674.000,-1567.000,-740.000,7051.000,0.000,0.000,1
2026-01-31 16:11:23,1838894,7871.000,1339.000,2808.000,-997.000,-269.000,5922.000,0.000,0.000,1
2026-01-31 16:11:23,1838934,6292.000,2833.000,4006.000,-1749.000,759.000,5736.000,0.000,0.000,1
2026-01-31 16:11:23,1838974,6584.000,-1875.000,3833.000,-1739.000,543.000,3987.000,0.000,0.000,1
2026-01-31 16:11:23,1839014,8143.000,-1140.000,3859.000,2339.000,-460.000,2178.000,0.000,0.000,1
2026-01-31 16:11:23,1839054,5666.000,1221.000,5130.000,4754.000,-537.000,368.000,0.000,0.000,1
2026-01-31 16:11:23,1839094,5813.000,2941.000,6122.000,3437.000,-626.000,771.000,0.000,0.000,1
2026-01-31 16:11:23,1839134,5766.000,1484.000,4993.000,2597.000,2.000,-67.000,0.000,0.000,1
2026-01-31 16:11:23,1839174,5608.000,2328.000,5810.000,3108.000,-308.000,341.000,0.000,0.000,1
2026-01-31 16:11:23,1839214,6191.000,980.000,3422.000,4761.000,-667.000,-256.000,0.000,0.000,1
2026-01-31 16:11:23,1839254,6574.000,4070.000,4003.000,6192.000,-1006.000,-204.000,0.000,0.000,1
2026-01-31 16:11:24,1839294,5069.000,4177.000,4806.000,3281.000,-1013.000,-594.000,0.000,0.000,1
2026-01-31 16:11:24,1839334,5610.000,3104.000,3391.000,4154.000,-286.000,-717.000,0.000,0.000,1
2026-01-31 16:11:24,1839374,3654.000,5497.000,5873.000,3888.000,-48.000,-63.000,0.000,0.000,1
2026-01-31 16:11:24,1839414,6598.000,2446.000,4490.000,3132.000,1304.000,-801.000,0.000,0.000,1
2026-01-31 16:11:24,1839454,4529.000,7333.000,7615.000,6466.000,1385.000,71.000,0.000,0.000,1
2026-01-31 16:11:24,1839494,7630.000,5346.000,3469.000,699.000,1886.000,-353.000,0.000,0.000,1
2026-01-31 16:11:24,1839534,2173.000,3555.000,5726.000,-1822.000,2251.000,-979.000,0.000,0.000,1
2026-01-31 16:11:24,1839574,6493.000,7041.000,7042.000,6583.000,1760.000,123.000,0.000,0.000,1
2026-01-31 16:11:24,1839614,4100.000,3327.000,7245.000,-1435.000,3726.000,1730.000,0.000,0.000,1
2026-01-31 16:11:24,1839654,2625.000,8223.000,3288.000,1957.000,3764.000,990.000,0.000,0.000,1
2026-01-31 16:11:24,1839694,5648.000,5187.000,4068.000,-1764.000,2276.000,500.000,0.000,0.000,1
2026-01-31 16:11:24,1839734,5028.000,5176.000,7405.000,-2375.000,2872.000,237.000,0.000,0.000,1
2026-01-31 16:11:24,1839774,188.000,6012.000,7451.000,-4055.000,3526.000,628.000,0.000,0.000,1
2026-01-31 16:11:24,1839814,4653.000,5722.000,6315.000,-2848.000,2770.000,-386.000,0.000,0.000,1
2026-01-31 16:11:24,1839854,1614.000,4369.000,6517.000,-5314.000,2797.000,-239.000,0.000,0.000,1
2026-01-31 16:11:24,1839894,3578.000,5612.000,4429.000,-3839.000,3636.000,-1582.000,0.000,0.000,1
2026-01-31 16:11:24,1839934,3396.000,4098.000,81.000,-3422.000,2030.000,-2765.000,0.000,0.000,1
2026-01-31 16:11:24,1839974,9892.000,-381.000,6549.000,-4496.000,-28.000,-1647.000,0.000,0.000,1
2026-01-31 16:11:24,1840014,1498.000,3584.000,7748.000,1898.000,1811.000,-1477.000,0.000,0.000,1
2026-01-31 16:11:24,1840054,3501.000,2758.000,7007.000,-823.000,-524.000,104.000,0.000,0.000,1
2026-01-31 16:11:24,1840094,3895.000,3110.000,6965.000,-1418.000,-1640.000,844.000,0.000,0.000,1
2026-01-31 16:11:24,1840134,2759.000,4194.000,7578.000,-1886.000,-2278.000,969.000,0.000,0.000,1
2026-01-31 16:11:24,1840177,1966.000,4834.000,6186.000,-4045.000,-1703.000,480.000,0.000,0.000,1
2026-01-31 16:11:24,1840214,1491.000,5681.000,7228.000,-4698.000,-1911.000,738.000,0.000,0.000,1
2026-01-31 16:11:24,1840254,1965.000,4329.000,7841.000,-4879.000,-889.000,678.000,0.000,0.000,1
2026-01-31 16:11:25,1840294,3976.000,3423.000,8029.000,-4219.000,-374.000,1288.000,0.000,0.000,1
2026-01-31 16:11:25,1840334,3509.000,2698.000,6827.000,-4122.000,268.000,980.000,0.000,0.000,1
2026-01-31 16:11:25,1840374,3855.000,1261.000,7025.000,-3617.000,-250.000,1384.000,0.000,0.000,1
2026-01-31 16:11:25,1840414,4413.000,1245.000,6819.000,-1113.000,222.000,2439.000,0.000,0.000,1
2026-01-31 16:11:25,1840454,4827.000,1841.000,6705.000,-2373.000,714.000,2011.000,0.000,0.000,1
2026-01-31 16:11:25,1840494,5728.000,-98.000,6417.000,-4901.000,353.000,1918.000,0.000,0.000,1
2026-01-31 16:11:25,1840534,5153.000,-1684.000,6353.000,-5588.000,785.000,1948.000,0.000,0.000,1
2026-01-31 16:11:25,1840574,5822.000,-859.000,6932.000,-5397.000,820.000,1123.000,0.000,0.000,1
2026-01-31 16:11:25,1840614,4097.000,-2956.000,5171.000,-4500.000,1269.000,-304.000,0.000,0.000,1
2026-01-31 16:11:25,1840654,4231.000,-2633.000,6741.000,-2660.000,1083.000,-739.000,0.000,0.000,1
2026-01-31 16:11:25,1840694,4000.000,-4129.000,7278.000,-1290.000,830.000,-896.000,0.000,0.000,1
2026-01-31 16:11:25,1840734,4259.000,-2186.000,7109.000,-108.000,402.000,-797.000,0.000,0.000,1
2026-01-31 16:11:25,1840774,4000.000,-2181.000,7476.000,933.000,-134.000,-258.000,0.000,0.000,1
2026-01-31 16:11:25,1840814,3978.000,-3289.000,7346.000,1381.000,-511.000,-552.000,0.000,0.000,1
2026-01-31 16:11:25,1840854,3641.000,-2422.000,7385.000,1516.000,-394.000,-829.000,0.000,0.000,1
2026-01-31 16:11:25,1840894,3603.000,-1220.000,7457.000,1249.000,-774.000,-410.000,0.000,0.000,1
2026-01-31 16:11:25,1840934,3261.000,-1910.000,7606.000,1003.000,-648.000,-457.000,0.000,0.000,1
2026-01-31 16:11:25,1840974,3644.000,-913.000,7318.000,1252.000,-746.000,124.000,0.000,0.000,1
2026-01-31 16:11:25,1841014,3043.000,-927.000,8712.000,1741.000,-458.000,-266.000,0.000,0.000,1
2026-01-31 16:11:25,1841054,4100.000,-1854.000,7613.000,1507.000,-321.000,-463.000,0.000,0.000,1
2026-01-31 16:11:25,1841094,3860.000,-586.000,7662.000,1902.000,-266.000,-730.000,0.000,0.000,1
2026-01-31 16:11:25,1841134,3217.000,177.000,8048.000,1439.000,-210.000,-1152.000,0.000,0.000,1
2026-01-31 16:11:25,1841174,4034.000,885.000,7825.000,1919.000,-292.000,-1251.000,0.000,0.000,1
2026-01-31 16:11:25,1841214,3224.000,1865.000,6885.000,1649.000,4.000,-1154.000,0.000,0.000,1
2026-01-31 16:11:25,1841254,3250.000,367.000,6492.000,731.000,-220.000,-1350.000,0.000,0.000,1
2026-01-31 16:11:26,1841294,3035.000,-333.000,7243.000,1641.000,-601.000,-1556.000,0.000,0.000,1
2026-01-31 16:11:26,1841334,4063.000,689.000,8645.000,3882.000,-541.000,-2366.000,0.000,0.000,1
2026-01-31 16:11:26,1841374,4417.000,563.000,8046.000,4042.000,-663.000,-3060.000,0.000,0.000,1
2026-01-31 16:11:26,1841414,3688.000,2816.000,7190.000,1987.000,-1161.000,-2916.000,0.000,0.000,1
2026-01-31 16:11:26,1841454,4141.000,2807.000,7030.000,759.000,-1218.000,-2585.000,0.000,0.000,1
2026-01-31 16:11:26,1841494,3497.000,3024.000,7421.000,-978.000,-573.000,-1116.000,0.000,0.000,1
2026-01-31 16:11:26,1841534,3657.000,2967.000,6267.000,557.000,28.000,-946.000,0.000,0.000,1
2026-01-31 16:11:26,1841574,4332.000,2579.000,6049.000,-1227.000,-8.000,-1800.000,0.000,0.000,1
2026-01-31 16:11:26,1841614,5857.000,1978.000,7407.000,-3261.000,-438.000,-2891.000,0.000,0.000,1
2026-01-31 16:11:26,1841654,5351.000,210.000,6382.000,-3854.000,165.000,-3421.000,0.000,0.000,1
2026-01-31 16:11:26,1841694,5531.000,900.000,6022.000,-2349.000,-17.000,-3925.000,0.000,0.000,1
2026-01-31 16:11:26,1841734,5515.000,-427.000,5977.000,-1257.000,559.000,-4957.000,0.000,0.000,1
2026-01-31 16:11:26,1841774,6024.000,69.000,6711.000,-117.000,414.000,-4705.000,0.000,0.000,1
2026-01-31 16:11:26,1841814,5548.000,701.000,7615.000,1042.000,481.000,-4616.000,0.000,0.000,1
2026-01-31 16:11:26,1841854,4699.000,1247.000,8638.000,3282.000,1111.000,-6007.000,0.000,0.000,1
2026-01-31 16:11:26,1841897,4652.000,2720.000,9244.000,280.000,2384.000,-5457.000,0.000,0.000,1
2026-01-31 16:11:26,1841937,3860.000,4476.000,8863.000,3366.000,4253.000,-5771.000,0.000,0.000,1
2026-01-31 16:11:26,1841974,3623.000,6503.000,9375.000,5784.000,5117.000,-6184.000,0.000,0.000,1
2026-01-31 16:11:26,1842014,1249.000,7566.000,9570.000,8829.000,6899.000,-9053.000,0.000,175.886,1
2026-01-31 16:11:26,1842054,222.000,8193.000,9173.000,6645.000,7908.000,-11936.000,0.000,175.886,1
2026-01-31 16:11:26,1842094,-2565.000,7088.000,7537.000,2726.000,8792.000,-12899.000,0.000,175.886,1
2026-01-31 16:11:26,1842134,-2933.000,4952.000,6258.000,4210.000,7806.000,-13331.000,0.000,175.886,1
2026-01-31 16:11:26,1842179,-3655.000,5448.000,3633.000,3593.000,5163.000,-13900.000,0.000,175.886,1
2026-01-31 16:11:26,1842214,-4488.000,3539.000,3235.000,2054.000,4360.000,-13782.000,0.000,175.886,1
2026-01-31 16:11:26,1842254,-5685.000,2498.000,2441.000,2233.000,2330.000,-11702.000,0.000,175.886,1
2026-01-31 16:11:27,1842294,-6102.000,1187.000,2366.000,1465.000,-173.000,-8626.000,0.000,175.886,1
2026-01-31 16:11:27,1842334,-5559.000,1318.000,3235.000,736.000,-3645.000,-6062.000,0.000,175.886,1
2026-01-31 16:11:27,1842374,-5173.000,-152.000,3524.000,566.000,-4720.000,-4377.000,0.000,175.886,1
2026-01-31 16:11:27,1842414,-4554.000,1272.000,4318.000,1690.000,-4817.000,-2401.000,0.000,175.886,1
2026-01-31 16:11:27,1842454,-4043.000,356.000,5260.000,632.000,-4059.000,-1819.000,0.000,175.886,1
2026-01-31 16:11:27,1842494,-3837.000,582.000,6006.000,354.000,-2265.000,-790.000,0.000,175.886,1
2026-01-31 16:11:27,1842534,-4169.000,126.000,4865.000,-134.000,-760.000,-296.000,0.000,175.886,1
2026-01-31 16:11:27,1842574,-5150.000,1460.000,4371.000,1659.000,-497.000,-362.000,0.000,175.886,1
2026-01-31 16:11:27,1842614,-5558.000,1450.000,4116.000,-517.000,-479.000,-751.000,0.000,175.886,1
2026-01-31 16:11:27,1842654,-6200.000,617.000,4031.000,-1251.000,-781.000,-1706.000,0.000,175.886,1
2026-01-31 16:11:27,1842694,-7275.000,1022.000,6404.000,-405.000,-1124.000,-2094.000,0.000,175.886,1
2026-01-31 16:11:27,1842734,-7081.000,657.000,6493.000,-1800.000,-2200.000,-2714.000,0.000,175.886,1
2026-01-31 16:11:27,1842774,-7394.000,561.000,7208.000,-3543.000,-2883.000,-3895.000,0.000,175.886,1
2026-01-31 16:11:27,1842814,-6345.000,-1987.000,6199.000,-4666.000,-3323.000,-4633.000,0.000,175.886,1
2026-01-31 16:11:27,1842854,-5405.000,-777.000,7523.000,-1798.000,-2849.000,-4072.000,0.000,175.886,1
2026-01-31 16:11:27,1842894,-4164.000,-1718.000,6151.000,-3265.000,-1981.000,-3175.000,0.000,175.886,1
2026-01-31 16:11:27,1842934,-3496.000,-1576.000,6218.000,-820.000,-1460.000,-2739.000,0.000,175.886,1
2026-01-31 16:11:27,1842974,-3023.000,-952.000,5432.000,-2034.000,-1086.000,-2613.000,0.000,175.886,1
2026-01-31 16:11:27,1843014,-2702.000,-974.000,5271.000,-8653.000,-1117.000,-3085.000,0.000,-7.540,1
2026-01-31 16:11:27,1843054,-2772.000,-8883.000,5623.000,-8202.000,-197.000,-3858.000,0.000,-7.540,1
2026-01-31 16:11:27,1843094,-5792.000,-5461.000,6279.000,5328.000,1643.000,-3743.000,0.000,-7.540,1
2026-01-31 16:11:27,1843134,-6155.000,-4255.000,6185.000,7377.000,2066.000,-3414.000,0.000,-7.540,1
2026-01-31 16:11:27,1843174,-5416.000,-2401.000,6570.000,7203.000,1825.000,-3022.000,0.000,-7.540,1
2026-01-31 16:11:27,1843214,-4312.000,-1564.000,7004.000,6141.000,1579.000,-2090.000,0.000,-7.540,1
2026-01-31 16:11:27,1843254,-4375.000,-1494.000,7767.000,4658.000,2067.000,-656.000,0.000,-7.540,1
2026-01-31 16:11:28,1843294,-5363.000,-3103.000,7338.000,4107.000,2766.000,1136.000,0.000,-7.540,1
2026-01-31 16:11:28,1843334,-6029.000,-1961.000,6842.000,4680.000,2772.000,3127.000,0.000,-7.540,1
2026-01-31 16:11:28,1843374,-6203.000,-797.000,6386.000,3214.000,1234.000,4470.000,0.000,-7.540,1
2026-01-31 16:11:28,1843414,-6163.000,999.000,5837.000,3690.000,259.000,5131.000,0.000,-7.540,1
2026-01-31 16:11:28,1843454,-5295.000,1321.000,5567.000,3200.000,-1002.000,4650.000,0.000,-7.540,1
2026-01-31 16:11:28,1843494,-5479.000,2098.000,5627.000,5110.000,-1012.000,3750.000,0.000,-7.540,1
2026-01-31 16:11:28,1843534,-5353.000,2543.000,4733.000,6113.000,-1183.000,2666.000,0.000,-7.540,1
2026-01-31 16:11:28,1843574,-4655.000,4024.000,5265.000,4813.000,-1515.000,1793.000,0.000,-7.540,1
2026-01-31 16:11:28,1843614,-4429.000,1751.000,5147.000,3337.000,-997.000,1053.000,0.000,-7.540,1
2026-01-31 16:11:28,1843654,-4198.000,3173.000,5591.000,3340.000,-601.000,1336.000,0.000,-7.540,1
2026-01-31 16:11:28,1843694,-5525.000,1985.000,4080.000,2770.000,-373.000,983.000,0.000,-7.540,1
2026-01-31 16:11:28,1843734,-5702.000,4326.000,3625.000,3636.000,-1695.000,638.000,0.000,-7.540,1
2026-01-31 16:11:28,1843774,-5963.000,3155.000,3704.000,3776.000,-3184.000,119.000,0.000,-7.540,1
2026-01-31 16:11:28,1843817,-2472.000,4334.000,4904.000,5569.000,-4681.000,2880.000,0.000,-7.540,1
2026-01-31 16:11:28,1843856,-581.000,6716.000,5065.000,3788.000,-5874.000,4042.000,0.000,-7.540,1
2026-01-31 16:11:28,1843897,1108.000,6994.000,7796.000,1615.000,-4726.000,3841.000,0.000,-7.540,1
2026-01-31 16:11:28,1843934,745.000,6248.000,7288.000,521.000,-3035.000,3922.000,0.000,-7.540,1
2026-01-31 16:11:28,1843974,985.000,7645.000,7476.000,809.000,-498.000,3167.000,0.000,-7.540,1
2026-01-31 16:11:28,1844014,-199.000,6953.000,6980.000,-37.000,2881.000,1581.000,0.000,-1.200,1
2026-01-31 16:11:28,1844054,-881.000,7103.000,5821.000,-2333.000,4616.000,845.000,0.000,-1.200,1
2026-01-31 16:11:28,1844094,-2164.000,5365.000,4872.000,-1624.000,6008.000,-297.000,0.000,-1.200,1
2026-01-31 16:11:28,1844134,-3335.000,7791.000,5279.000,150.000,6180.000,-420.000,0.000,-1.200,1
2026-01-31 16:11:28,1844177,-3445.000,4068.000,4087.000,-6180.000,6448.000,-478.000,0.000,-1.200,1
2026-01-31 16:11:28,1844216,-4416.000,7268.000,4092.000,-3695.000,6195.000,-142.000,0.000,-1.200,1
2026-01-31 16:11:28,1844254,-4499.000,7238.000,4842.000,-7844.000,5824.000,-2444.000,0.000,-1.200,1
2026-01-31 16:11:29,1844294,-6372.000,3779.000,5921.000,-10193.000,6438.000,-3849.000,0.000,-1.200,1
2026-01-31 16:11:29,1844334,-6395.000,4114.000,5228.000,-7432.000,6319.000,-4392.000,0.000,-1.200,1
2026-01-31 16:11:29,1844374,-9013.000,2915.000,4272.000,-10565.000,5205.000,-6460.000,0.000,-1.200,1
2026-01-31 16:11:29,1844414,-7961.000,210.000,3941.000,-10908.000,3025.000,-6990.000,0.000,-1.200,1
2026-01-31 16:11:29,1844454,-6326.000,-1545.000,3457.000,-9403.000,1728.000,-7483.000,0.000,-1.200,1
2026-01-31 16:11:29,1844494,-5872.000,-2776.000,3821.000,-5260.000,1235.000,-6929.000,0.000,-1.200,1
2026-01-31 16:11:29,1844534,-5301.000,-2925.000,4308.000,-3152.000,582.000,-5875.000,0.000,-1.200,1
2026-01-31 16:11:29,1844574,-5361.000,-3326.000,4831.000,-519.000,307.000,-4061.000,0.000,-1.200,1
2026-01-31 16:11:29,1844614,-5729.000,-3519.000,5032.000,-873.000,-219.000,-1764.000,0.000,-1.200,1
2026-01-31 16:11:29,1844654,-5519.000,-1786.000,5982.000,1224.000,-790.000,-1037.000,0.000,-1.200,1
2026-01-31 16:11:29,1844694,-6406.000,-3031.000,5434.000,360.000,-157.000,-1200.000,0.000,-1.200,1
2026-01-31 16:11:29,1844734,-6277.000,-2623.000,6325.000,988.000,-51.000,-1398.000,0.000,-1.200,1
2026-01-31 16:11:29,1844774,-6480.000,-2376.000,6689.000,-608.000,204.000,-1697.000,0.000,-1.200,1
2026-01-31 16:11:29,1844814,-5968.000,-2551.000,6429.000,-1478.000,374.000,-2063.000,0.000,-1.200,1
2026-01-31 16:11:29,1844854,-4990.000,-3190.000,5432.000,-3331.000,95.000,-2056.000,0.000,-1.200,1
2026-01-31 16:11:29,1844894,-4708.000,-3503.000,4433.000,-2148.000,-179.000,-1413.000,0.000,-1.200,1
2026-01-31 16:11:29,1844934,-4289.000,-3463.000,3845.000,-2355.000,-602.000,-296.000,0.000,-1.200,1
2026-01-31 16:11:29,1844974,-4773.000,-4073.000,4115.000,-3217.000,-696.000,632.000,0.000,-1.200,1
2026-01-31 16:11:29,1845014,-5745.000,-4996.000,3599.000,-6636.000,438.000,727.000,0.000,-1.200,1
2026-01-31 16:11:29,1845054,-5427.000,-4725.000,3482.000,-4630.000,656.000,-44.000,0.000,0.000,0
2026-01-31 16:11:29,1845094,-4440.000,-5474.000,2790.000,-4209.000,711.000,132.000,0.000,0.000,0
2026-01-31 16:11:29,1845134,-4158.000,-4660.000,2012.000,-2622.000,-4.000,1458.000,0.000,7.821,1
2026-01-31 16:11:29,1845174,-4648.000,-4557.000,2357.000,166.000,-761.000,2419.000,0.000,7.821,1
2026-01-31 16:11:29,1845214,-4666.000,-4065.000,2101.000,1769.000,-1257.000,3507.000,0.000,7.821,1
2026-01-31 16:11:29,1845254,-5019.000,-5045.000,1567.000,-121.000,-1601.000,4876.000,0.000,7.821,1
2026-01-31 16:11:30,1845294,-7876.000,-5468.000,1701.000,1344.000,-2089.000,7489.000,0.000,7.821,1
2026-01-31 16:11:30,1845334,-7355.000,-4606.000,2158.000,4235.000,-3912.000,10421.000,0.000,7.821,1
2026-01-31 16:11:30,1845374,-6505.000,-2104.000,4629.000,7263.000,-5368.000,11119.000,0.000,7.821,1
2026-01-31 16:11:30,1845414,-5803.000,-1130.000,5135.000,7572.000,-7348.000,12403.000,0.000,7.821,1
2026-01-31 16:11:30,1845454,-3329.000,2681.000,6512.000,7289.000,-9241.000,13768.000,0.000,7.821,1
2026-01-31 16:11:30,1845494,-2001.000,3637.000,6171.000,2302.000,-9933.000,14231.000,0.000,7.821,1
2026-01-31 16:11:30,1845534,-332.000,3641.000,6003.000,-1158.000,-11099.000,14937.000,0.000,7.821,1
2026-01-31 16:11:30,1845574,2597.000,4387.000,6928.000,-2759.000,-11458.000,13729.000,0.000,7.821,1
2026-01-31 16:11:30,1845614,4557.000,50.000,6654.000,-5137.000,-12285.000,13633.000,0.000,7.821,1
2026-01-31 16:11:30,1845654,8527.000,5110.000,8046.000,972.000,-10654.000,12566.000,0.000,7.821,1
2026-01-31 16:11:30,1845694,7516.000,5278.000,7435.000,-106.000,-8140.000,9154.000,0.000,7.821,1
2026-01-31 16:11:30,1845734,7059.000,5935.000,12236.000,-6898.000,-6073.000,3311.000,0.000,7.821,1
2026-01-31 16:11:30,1845774,5997.000,-5.000,10280.000,7466.000,1555.000,528.000,0.000,7.821,1
2026-01-31 16:11:30,1845817,4748.000,422.000,5898.000,8316.000,280.000,3934.000,0.000,7.821,1
2026-01-31 16:11:30,1845859,4440.000,1601.000,5748.000,6844.000,54.000,4381.000,0.000,7.821,1
2026-01-31 16:11:30,1845894,5068.000,1948.000,5287.000,8562.000,108.000,4428.000,0.000,7.821,1
2026-01-31 16:11:30,1845934,4911.000,2548.000,6273.000,8548.000,751.000,3890.000,0.000,7.821,1
2026-01-31 16:11:30,1845974,6927.000,2488.000,6652.000,7456.000,589.000,3876.000,0.000,7.821,1
2026-01-31 16:11:30,1846014,3194.000,5568.000,7386.000,5685.000,1718.000,3132.000,0.000,2.602,1
2026-01-31 16:11:30,1846054,3712.000,5107.000,5800.000,4067.000,2289.000,2693.000,0.000,2.602,1
2026-01-31 16:11:30,1846094,5080.000,4026.000,7400.000,-219.000,1398.000,2224.000,0.000,2.602,1
2026-01-31 16:11:30,1846134,5395.000,4904.000,6168.000,-1278.000,1176.000,2337.000,0.000,2.602,1
2026-01-31 16:11:30,1846178,5359.000,4568.000,6626.000,389.000,918.000,1364.000,0.000,2.602,1
2026-01-31 16:11:30,1846214,4204.000,3646.000,6229.000,-365.000,1501.000,1375.000,0.000,2.602,1
2026-01-31 16:11:30,1846254,4985.000,2765.000,6097.000,1356.000,1348.000,936.000,0.000,2.602,1
2026-01-31 16:11:31,1846294,2899.000,4394.000,6544.000,2906.000,1871.000,-110.000,0.000,2.602,1
2026-01-31 16:11:31,1846334,5368.000,4948.000,6031.000,2395.000,820.000,-79.000,0.000,2.602,1
2026-01-31 16:11:31,1846374,1605.000,3633.000,5184.000,-230.000,1317.000,-830.000,0.000,2.602,1
2026-01-31 16:11:31,1846414,5075.000,4340.000,5475.000,236.000,207.000,-982.000,0.000,2.602,1
2026-01-31 16:11:31,1846454,3962.000,3670.000,5270.000,-1541.000,565.000,-2010.000,0.000,2.602,1
2026-01-31 16:11:31,1846494,2624.000,4341.000,5497.000,-1620.000,521.000,-2762.000,0.000,2.602,1
2026-01-31 16:11:31,1846534,2694.000,4848.000,6380.000,-754.000,-130.000,-2085.000,0.000,2.602,1
2026-01-31 16:11:31,1846574,5565.000,3255.000,6614.000,-2107.000,-561.000,-1482.000,0.000,2.602,1
2026-01-31 16:11:31,1846614,5046.000,3620.000,6613.000,-781.000,-404.000,-1519.000,0.000,2.602,1
2026-01-31 16:11:31,1846654,2778.000,3955.000,5022.000,-458.000,-111.000,-1992.000,0.000,2.602,1
2026-01-31 16:11:31,1846694,4406.000,3122.000,4259.000,-999.000,-740.000,-1869.000,0.000,2.602,1
2026-01-31 16:11:31,1846734,4475.000,4101.000,4739.000,-2895.000,-1196.000,-2308.000,0.000,2.602,1
2026-01-31 16:11:31,1846774,3983.000,4219.000,5620.000,-6444.000,-1581.000,-2594.000,0.000,2.602,1
2026-01-31 16:11:31,1846814,5051.000,1416.000,7261.000,-8383.000,-1342.000,-2420.000,0.000,2.602,1
2026-01-31 16:11:31,1846854,4476.000,1773.000,8143.000,-5167.000,-1084.000,-1519.000,0.000,2.602,1
2026-01-31 16:11:31,1846894,2935.000,2494.000,7970.000,-3482.000,-266.000,-1275.000,0.000,2.602,1
2026-01-31 16:11:31,1846934,2819.000,1676.000,7377.000,-6258.000,-40.000,-770.000,0.000,2.602,1
2026-01-31 16:11:31,1846974,3230.000,-478.000,7171.000,-3400.000,299.000,-246.000,0.000,2.602,1
2026-01-31 16:11:31,1847014,4021.000,725.000,7533.000,792.000,-84.000,410.000,0.000,2.602,1
2026-01-31 16:11:31,1847054,3424.000,-1802.000,6846.000,3254.000,112.000,899.000,0.000,0.000,0
2026-01-31 16:11:31,1847094,4907.000,3281.000,7805.000,7091.000,-469.000,1443.000,0.000,0.000,0
2026-01-31 16:11:31,1847134,2208.000,2078.000,7129.000,6572.000,569.000,1042.000,0.000,5.054,1
2026-01-31 16:11:31,1847174,4198.000,3992.000,7243.000,5067.000,-104.000,1786.000,0.000,5.054,1
2026-01-31 16:11:31,1847214,4072.000,4329.000,6804.000,4052.000,-6.000,1518.000,0.000,5.054,1
2026-01-31 16:11:31,1847254,2237.000,3623.000,6013.000,3490.000,589.000,1744.000,0.000,5.054,1
2026-01-31 16:11:32,1847294,5278.000,3892.000,6381.000,3979.000,442.000,1960.000,0.000,5.054,1
2026-01-31 16:11:32,1847334,5096.000,3226.000,6948.000,1415.000,666.000,2443.000,0.000,5.054,1
2026-01-31 16:11:32,1847374,4076.000,4338.000,6869.000,2031.000,1568.000,3325.000,0.000,5.054,1
2026-01-31 16:11:32,1847414,3051.000,4597.000,6313.000,-832.000,1622.000,2829.000,0.000,5.054,1
2026-01-31 16:11:32,1847454,4015.000,2836.000,5390.000,-1199.000,1213.000,2502.000,0.000,5.054,1
2026-01-31 16:11:32,1847494,4287.000,2989.000,5812.000,-1692.000,392.000,1143.000,0.000,5.054,1
2026-01-31 16:11:32,1847534,4704.000,2218.000,6351.000,-1589.000,-209.000,376.000,0.000,5.054,1
2026-01-31 16:11:32,1847574,3750.000,2178.000,6911.000,-196.000,-126.000,114.000,0.000,5.054,1
2026-01-31 16:11:32,1847614,4060.000,1747.000,6675.000,-124.000,-278.000,-128.000,0.000,5.054,1
2026-01-31 16:11:32,1847654,5072.000,2016.000,7221.000,733.000,-618.000,-252.000,0.000,5.054,1
2026-01-31 16:11:32,1847694,4480.000,1963.000,6421.000,643.000,-351.000,-748.000,0.000,5.054,1
2026-01-31 16:11:32,1847734,4986.000,3636.000,5368.000,2884.000,299.000,-320.000,0.000,5.054,1
2026-01-31 16:11:32,1847774,1612.000,4626.000,5686.000,1406.000,518.000,-1386.000,0.000,5.054,1
2026-01-31 16:11:32,1847814,5734.000,5132.000,5929.000,1306.000,-738.000,-161.000,0.000,5.054,1
2026-01-31 16:11:32,1847854,2534.000,2789.000,5988.000,-3199.000,-239.000,-1204.000,0.000,5.054,1
2026-01-31 16:11:32,1847897,3799.000,2478.000,7558.000,-1280.000,258.000,-759.000,0.000,5.054,1
2026-01-31 16:11:32,1847937,3634.000,3154.000,5485.000,1190.000,278.000,-689.000,0.000,5.054,1
2026-01-31 16:11:32,1847974,4250.000,3356.000,5896.000,1222.000,-48.000,-816.000,0.000,5.054,1
2026-01-31 16:11:32,1848014,4116.000,3748.000,6070.000,806.000,-207.000,-1028.000,0.000,6.080,1
2026-01-31 16:11:32,1848054,5504.000,4075.000,6736.000,1448.000,-652.000,-1387.000,0.000,6.080,1
2026-01-31 16:11:32,1848094,5516.000,4193.000,5409.000,1833.000,-722.000,-802.000,0.000,6.080,1
2026-01-31 16:11:32,1848134,3101.000,3318.000,6133.000,-194.000,221.000,-1529.000,0.000,6.080,1
2026-01-31 16:11:32,1848177,3355.000,3286.000,5844.000,955.000,-74.000,-1510.000,0.000,6.080,1
2026-01-31 16:11:32,1848214,3261.000,3683.000,5787.000,971.000,-212.000,-1312.000,0.000,6.080,1
2026-01-31 16:11:32,1848254,4395.000,4115.000,6068.000,-53.000,-791.000,-965.000,0.000,6.080,1
2026-01-31 16:11:33,1848294,3904.000,3229.000,7309.000,-368.000,-711.000,-1172.000,0.000,6.080,1
2026-01-31 16:11:33,1848334,4138.000,3771.000,6520.000,1809.000,-555.000,-256.000,0.000,6.080,1
2026-01-31 16:11:33,1848374,3695.000,4449.000,6179.000,1147.000,-492.000,-45.000,0.000,6.080,1
2026-01-31 16:11:33,1848414,3545.000,3594.000,6101.000,198.000,-230.000,448.000,0.000,6.080,1
2026-01-31 16:11:33,1848454,4101.000,4415.000,6261.000,836.000,-392.000,1169.000,0.000,6.080,1
2026-01-31 16:11:33,1848494,4633.000,3804.000,6540.000,-814.000,-323.000,1178.000,0.000,6.080,1
2026-01-31 16:11:33,1848534,3820.000,4007.000,6002.000,619.000,395.000,1140.000,0.000,6.080,1
2026-01-31 16:11:33,1848574,3151.000,4212.000,5706.000,350.000,639.000,1487.000,0.000,6.080,1
2026-01-31 16:11:33,1848614,4976.000,4395.000,6188.000,185.000,226.000,1517.000,0.000,6.080,1
2026-01-31 16:11:33,1848654,3429.000,5262.000,5711.000,595.000,602.000,2208.000,0.000,6.080,1
2026-01-31 16:11:33,1848694,4063.000,3430.000,6628.000,-1344.000,524.000,2097.000,0.000,6.080,1
2026-01-31 16:11:33,1848734,3672.000,4062.000,5912.000,-138.000,997.000,2752.000,0.000,6.080,1
2026-01-31 16:11:33,1848774,6625.000,3410.000,7468.000,-1314.000,267.000,2108.000,0.000,6.080,1
2026-01-31 16:11:33,1848814,3504.000,2830.000,6032.000,-491.000,1346.000,1682.000,0.000,6.080,1
2026-01-31 16:11:33,1848854,2678.000,3862.000,6135.000,-757.000,1211.000,1105.000,0.000,6.080,1
2026-01-31 16:11:33,1848894,4660.000,4180.000,6575.000,-876.000,950.000,1213.000,0.000,6.080,1
2026-01-31 16:11:33,1848934,4321.000,3646.000,5966.000,-687.000,1273.000,1310.000,0.000,6.080,1
2026-01-31 16:11:33,1848974,4114.000,3371.000,5844.000,-1009.000,1209.000,804.000,0.000,6.080,1
2026-01-31 16:11:33,1849014,4688.000,3122.000,5371.000,-1239.000,695.000,657.000,0.000,6.080,1
2026-01-31 16:11:33,1849054,4663.000,2414.000,5592.000,-971.000,405.000,479.000,0.000,0.000,0
2026-01-31 16:11:33,1849094,3939.000,2250.000,6215.000,-295.000,187.000,335.000,0.000,0.000,0
2026-01-31 16:11:33,1849134,3687.000,2345.000,7238.000,-554.000,167.000,-171.000,0.000,4.304,1
2026-01-31 16:11:33,1849174,5189.000,2849.000,7098.000,18.000,-168.000,-356.000,0.000,4.304,1
2026-01-31 16:11:33,1849214,3913.000,3254.000,6540.000,580.000,-16.000,-582.000,0.000,4.304,1
2026-01-31 16:11:33,1849254,3598.000,3835.000,6782.000,565.000,-39.000,-243.000,0.000,4.304,1
2026-01-31 16:11:34,1849294,4257.000,3038.000,6345.000,-187.000,-28.000,-204.000,0.000,4.304,1
2026-01-31 16:11:34,1849334,4908.000,3178.000,5784.000,147.000,-7.000,-47.000,0.000,4.304,1
2026-01-31 16:11:34,1849374,3740.000,2495.000,6551.000,18.000,355.000,-878.000,0.000,4.304,1
2026-01-31 16:11:34,1849414,4049.000,2985.000,6178.000,577.000,-56.000,-1363.000,0.000,4.304,1
2026-01-31 16:11:34,1849454,3966.000,3998.000,6180.000,627.000,-68.000,-1318.000,0.000,4.304,1
2026-01-31 16:11:34,1849494,3089.000,3605.000,5790.000,-146.000,255.000,-1324.000,0.000,4.304,1
2026-01-31 16:11:34,1849534,6128.000,3353.000,6095.000,130.000,-496.000,-1736.000,0.000,4.304,1
2026-01-31 16:11:34,1849574,3956.000,4012.000,7018.000,93.000,-209.000,-2372.000,0.000,4.304,1
2026-01-31 16:11:34,1849614,4826.000,3767.000,5816.000,513.000,-73.000,-1896.000,0.000,4.304,1
2026-01-31 16:11:34,1849654,3508.000,3571.000,5438.000,682.000,-139.000,-1564.000,0.000,4.304,1
2026-01-31 16:11:34,1849694,4335.000,2894.000,6417.000,127.000,-636.000,-1331.000,0.000,4.304,1
2026-01-31 16:11:34,1849734,2899.000,3932.000,6691.000,665.000,-348.000,-798.000,0.000,4.304,1
2026-01-31 16:11:34,1849774,2976.000,4394.000,5434.000,140.000,-302.000,213.000,0.000,4.304,1
2026-01-31 16:11:34,1849814,4162.000,2923.000,7171.000,-2283.000,-496.000,294.000,0.000,4.304,1
2026-01-31 16:11:34,1849854,3995.000,4378.000,7554.000,106.000,-368.000,1164.000,0.000,4.304,1
2026-01-31 16:11:34,1849899,3523.000,3402.000,6181.000,-831.000,-395.000,1424.000,0.000,4.304,1
2026-01-31 16:11:34,1849934,5013.000,3749.000,6920.000,-1358.000,-805.000,1409.000,0.000,4.304,1
2026-01-31 16:11:34,1849974,3685.000,4145.000,5806.000,-1177.000,-548.000,1335.000,0.000,4.304,1
2026-01-31 16:11:34,1850014,3984.000,3338.000,7533.000,-1475.000,-278.000,1243.000,0.000,4.304,1
2026-01-31 16:11:34,1850054,3934.000,3044.000,6614.000,-386.000,55.000,1085.000,0.000,4.304,1
2026-01-31 16:11:34,1850094,2739.000,2459.000,6642.000,-1094.000,547.000,1283.000,0.000,4.304,1
2026-01-31 16:11:34,1850134,6780.000,3707.000,6980.000,-829.000,-390.000,1924.000,0.000,-3.990,1
2026-01-31 16:11:34,1850177,6659.000,2420.000,5134.000,-241.000,171.000,2074.000,0.000,-3.990,1
2026-01-31 16:11:34,1850214,5628.000,1981.000,5949.000,-1079.000,498.000,1312.000,0.000,-3.990,1
2026-01-31 16:11:34,1850254,4801.000,1321.000,6802.000,-82.000,198.000,646.000,0.000,-3.990,1
2026-01-31 16:11:35,1850294,3792.000,2065.000,7382.000,846.000,228.000,171.000,0.000,-3.990,1
2026-01-31 16:11:35,1850334,4497.000,1859.000,6959.000,34.000,-363.000,322.000,0.000,-3.990,1
2026-01-31 16:11:35,1850374,4740.000,2065.000,6108.000,588.000,-236.000,567.000,0.000,-3.990,1
2026-01-31 16:11:35,1850414,6049.000,2256.000,7377.000,1298.000,-176.000,-35.000,0.000,-3.990,1
2026-01-31 16:11:35,1850454,4488.000,3173.000,6142.000,2345.000,-18.000,-251.000,0.000,-3.990,1
2026-01-31 16:11:35,1850494,3896.000,2371.000,7353.000,732.000,37.000,-240.000,0.000,-3.990,1
2026-01-31 16:11:35,1850534,4439.000,2353.000,6485.000,997.000,-171.000,300.000,0.000,-3.990,1
2026-01-31 16:11:35,1850574,4313.000,2520.000,6561.000,742.000,-124.000,76.000,0.000,-3.990,1
2026-01-31 16:11:35,1850614,5322.000,2252.000,6366.000,1027.000,-115.000,-194.000,0.000,-3.990,1
2026-01-31 16:11:35,1850654,1889.000,1829.000,5808.000,1871.000,999.000,281.000,0.000,-3.990,1
2026-01-31 16:11:35,1850694,7095.000,3656.000,6142.000,1238.000,-1249.000,1207.000,0.000,-3.990,1
2026-01-31 16:11:35,1850734,3794.000,1501.000,9024.000,-678.000,-328.000,-500.000,0.000,-3.990,1
2026-01-31 16:11:35,1850774,3534.000,3884.000,5615.000,2833.000,-181.000,-1049.000,0.000,-3.990,1
2026-01-31 16:11:35,1850814,5796.000,4692.000,6153.000,769.000,-210.000,-686.000,0.000,-3.990,1
2026-01-31 16:11:35,1850854,6803.000,4799.000,10219.000,-388.000,-326.000,-1213.000,0.000,-3.990,1
2026-01-31 16:11:35,1850894,-177.000,2441.000,3094.000,3423.000,2138.000,115.000,0.000,-3.990,1
2026-01-31 16:11:35,1850934,7388.000,5739.000,6041.000,-469.000,-915.000,-770.000,0.000,-3.990,1
2026-01-31 16:11:35,1850974,3165.000,4354.000,5145.000,1027.000,653.000,-236.000,0.000,-3.990,1
2026-01-31 16:11:35,1851014,5431.000,3634.000,7077.000,-52.000,36.000,-1462.000,0.000,-3.990,1
2026-01-31 16:11:35,1851054,3008.000,5213.000,8163.000,424.000,641.000,-565.000,0.000,-3.990,1
2026-01-31 16:11:35,1851094,4024.000,4924.000,6153.000,-461.000,476.000,149.000,0.000,-3.990,1
2026-01-31 16:11:35,1851134,2399.000,3632.000,5620.000,-1475.000,1104.000,131.000,0.000,-4.060,1
2026-01-31 16:11:35,1851174,2935.000,3488.000,4927.000,-1608.000,514.000,-578.000,0.000,-4.060,1
2026-01-31 16:11:35,1851214,2678.000,4154.000,7498.000,-611.000,420.000,433.000,0.000,-4.060,1
2026-01-31 16:11:35,1851254,3953.000,3503.000,5925.000,-2280.000,271.000,946.000,0.000,-4.060,1
2026-01-31 16:11:36,1851294,2879.000,3165.000,4803.000,-1917.000,693.000,766.000,0.000,-4.060,1
2026-01-31 16:11:36,1851334,3603.000,2804.000,6135.000,-2115.000,506.000,56.000,0.000,-4.060,1
2026-01-31 16:11:36,1851374,3219.000,3779.000,7514.000,-1365.000,424.000,-132.000,0.000,-4.060,1
2026-01-31 16:11:36,1851414,4744.000,3406.000,7729.000,-1538.000,-61.000,345.000,0.000,-4.060,1
2026-01-31 16:11:36,1851454,4637.000,3666.000,6612.000,-1535.000,-177.000,776.000,0.000,-4.060,1
2026-01-31 16:11:36,1851494,3561.000,1868.000,5833.000,-1997.000,347.000,563.000,0.000,-4.060,1
2026-01-31 16:11:36,1851534,2940.000,2465.000,5805.000,-1473.000,541.000,304.000,0.000,-4.060,1
2026-01-31 16:11:36,1851574,2509.000,2608.000,6261.000,-1481.000,294.000,-255.000,0.000,-4.060,1
2026-01-31 16:11:36,1851614,5198.000,2546.000,8132.000,-903.000,-284.000,322.000,0.000,-4.060,1
2026-01-31 16:11:36,1851654,4299.000,2374.000,6353.000,-618.000,-84.000,501.000,0.000,-4.060,1
2026-01-31 16:11:36,1851694,3747.000,1592.000,6072.000,-1084.000,-205.000,-198.000,0.000,-4.060,1
2026-01-31 16:11:36,1851734,5493.000,1957.000,6205.000,-397.000,-785.000,-245.000,0.000,-4.060,1
2026-01-31 16:11:36,1851774,3200.000,1416.000,6368.000,-533.000,-397.000,-801.000,0.000,-4.060,1
2026-01-31 16:11:36,1851814,4589.000,1809.000,7119.000,386.000,-725.000,-576.000,0.000,-4.060,1
2026-01-31 16:11:36,1851854,3859.000,2077.000,7057.000,162.000,-372.000,-713.000,0.000,-4.060,1
2026-01-31 16:11:36,1851897,4181.000,2188.000,6648.000,759.000,-486.000,-621.000,0.000,-4.060,1
2026-01-31 16:11:36,1851937,3467.000,2342.000,6734.000,893.000,-251.000,-760.000,0.000,-4.060,1
2026-01-31 16:11:36,1851974,3277.000,2218.000,6136.000,1174.000,-158.000,-467.000,0.000,-4.060,1
2026-01-31 16:11:36,1852014,4604.000,2465.000,6356.000,568.000,-667.000,14.000,0.000,-4.060,1
2026-01-31 16:11:36,1852054,4471.000,2312.000,6599.000,338.000,-467.000,-156.000,0.000,-4.060,1
2026-01-31 16:11:36,1852094,3424.000,2325.000,6058.000,927.000,-475.000,-1045.000,0.000,-4.060,1
2026-01-31 16:11:36,1852134,5347.000,2463.000,6792.000,694.000,-1179.000,-1520.000,0.000,0.240,1
2026-01-31 16:11:36,1852179,5646.000,3122.000,6815.000,993.000,-637.000,-1973.000,0.000,0.240,1
2026-01-31 16:11:36,1852214,5091.000,3406.000,7075.000,816.000,-534.000,-2512.000,0.000,0.240,1
2026-01-31 16:11:36,1852254,3515.000,3737.000,5329.000,2139.000,-176.000,-2276.000,0.000,0.240,1
2026-01-31 16:11:37,1852294,4948.000,4817.000,6519.000,834.000,-757.000,-1855.000,0.000,0.240,1
2026-01-31 16:11:37,1852334,5779.000,3942.000,6998.000,620.000,-790.000,-1259.000,0.000,0.240,1
2026-01-31 16:11:37,1852374,2752.000,2359.000,6300.000,1802.000,500.000,-958.000,0.000,0.240,1
2026-01-31 16:11:37,1852414,4210.000,3576.000,6474.000,1276.000,16.000,-328.000,0.000,0.240,1
2026-01-31 16:11:37,1852454,3981.000,3783.000,6174.000,1160.000,-45.000,-197.000,0.000,0.240,1
2026-01-31 16:11:37,1852494,3662.000,4017.000,6807.000,1060.000,146.000,428.000,0.000,0.240,1
2026-01-31 16:11:37,1852534,2868.000,3236.000,6403.000,169.000,110.000,844.000,0.000,0.240,1
2026-01-31 16:11:37,1852574,4916.000,5149.000,6753.000,1139.000,-712.000,1404.000,0.000,0.240,1
2026-01-31 16:11:37,1852614,3947.000,4557.000,6841.000,-533.000,-554.000,1214.000,0.000,0.240,1
2026-01-31 16:11:37,1852654,2303.000,5561.000,6130.000,335.000,132.000,1551.000,0.000,0.240,1
2026-01-31 16:11:37,1852694,3202.000,4209.000,5180.000,-1625.000,720.000,1948.000,0.000,0.240,1
2026-01-31 16:11:37,1852734,5324.000,3481.000,6042.000,-841.000,889.000,1994.000,0.000,0.240,1
2026-01-31 16:11:37,1852774,6153.000,3532.000,6235.000,35.000,1073.000,2013.000,0.000,0.240,1
2026-01-31 16:11:37,1852814,4276.000,2644.000,5357.000,509.000,1503.000,1559.000,0.000,0.240,1
2026-01-31 16:11:37,1852854,3148.000,3483.000,6184.000,241.000,1272.000,1186.000,0.000,0.240,1
2026-01-31 16:11:37,1852894,5860.000,3364.000,6272.000,212.000,627.000,1722.000,0.000,0.240,1
2026-01-31 16:11:37,1852934,3163.000,3030.000,6231.000,-429.000,1330.000,1005.000,0.000,0.240,1
2026-01-31 16:11:37,1852974,5873.000,2803.000,5486.000,836.000,941.000,1225.000,0.000,0.240,1
2026-01-31 16:11:37,1853014,2343.000,2700.000,5280.000,-4.000,1090.000,-12.000,0.000,0.240,1
2026-01-31 16:11:37,1853054,5154.000,3716.000,6017.000,1098.000,379.000,328.000,0.000,0.240,1
2026-01-31 16:11:37,1853094,3926.000,3332.000,6514.000,-487.000,-59.000,-526.000,0.000,0.240,1
2026-01-31 16:11:37,1853134,5074.000,3390.000,7327.000,27.000,-583.000,-641.000,0.000,-3.920,1
2026-01-31 16:11:37,1853174,4054.000,2832.000,6548.000,-1218.000,-808.000,-994.000,0.000,-3.920,1
2026-01-31 16:11:37,1853214,3492.000,3652.000,6096.000,-1529.000,-873.000,-963.000,0.000,-3.920,1
2026-01-31 16:11:37,1853254,4323.000,4002.000,6180.000,-1588.000,-1153.000,-1174.000,0.000,-3.920,1
2026-01-31 16:11:38,1853294,4001.000,3435.000,5911.000,-1042.000,-814.000,-1485.000,0.000,-3.920,1
2026-01-31 16:11:38,1853334,4266.000,3976.000,5915.000,-584.000,-691.000,-1656.000,0.000,-3.920,1
2026-01-31 16:11:38,1853374,2766.000,3900.000,5534.000,-1227.000,-382.000,-1961.000,0.000,-3.920,1
2026-01-31 16:11:38,1853414,6323.000,2800.000,5141.000,-179.000,-979.000,-1937.000,0.000,-3.920,1
2026-01-31 16:11:38,1853454,5460.000,1959.000,5876.000,-85.000,-796.000,-2563.000,0.000,-3.920,1
2026-01-31 16:11:38,1853494,5147.000,3992.000,6685.000,535.000,-729.000,-2790.000,0.000,-3.920,1
2026-01-31 16:11:38,1853534,4082.000,3698.000,6463.000,-63.000,-144.000,-1732.000,0.000,-3.920,1
2026-01-31 16:11:38,1853574,2690.000,3788.000,6136.000,279.000,386.000,-1026.000,0.000,-3.920,1
2026-01-31 16:11:38,1853614,3068.000,4022.000,5523.000,637.000,298.000,-658.000,0.000,-3.920,1
2026-01-31 16:11:38,1853654,4110.000,4299.000,6790.000,-229.000,-238.000,53.000,0.000,-3.920,1
2026-01-31 16:11:38,1853694,3400.000,4381.000,7276.000,-160.000,213.000,570.000,0.000,-3.920,1
2026-01-31 16:11:38,1853734,2845.000,4438.000,6805.000,-1102.000,366.000,1268.000,0.000,-3.920,1
2026-01-31 16:11:38,1853774,4507.000,3334.000,5855.000,-2274.000,79.000,1556.000,0.000,-3.920,1
2026-01-31 16:11:38,1853814,5365.000,2952.000,6329.000,-1658.000,-254.000,1182.000,0.000,-3.920,1
2026-01-31 16:11:38,1853854,1761.000,3033.000,6032.000,-800.000,470.000,835.000,0.000,-3.920,1
2026-01-31 16:11:38,1853897,2233.000,3809.000,6844.000,-1165.000,281.000,850.000,0.000,-3.920,1
2026-01-31 16:11:38,1853936,4546.000,3236.000,5783.000,80.000,629.000,1604.000,0.000,-3.920,1
2026-01-31 16:11:38,1853974,4395.000,3013.000,5515.000,-59.000,1031.000,1352.000,0.000,-3.920,1
2026-01-31 16:11:38,1854014,2230.000,2761.000,4821.000,-444.000,1502.000,815.000,0.000,-3.920,1
2026-01-31 16:11:38,1854054,7288.000,1872.000,5324.000,569.000,546.000,1112.000,0.000,-3.920,1
2026-01-31 16:11:38,1854094,2850.000,3148.000,6899.000,-1067.000,332.000,-132.000,0.000,-3.920,1
2026-01-31 16:11:38,1854134,4452.000,1863.000,7239.000,-1540.000,-300.000,258.000,0.000,-2.800,1
2026-01-31 16:11:38,1854177,1157.000,3026.000,7853.000,-599.000,234.000,-178.000,0.000,-2.800,1
2026-01-31 16:11:38,1854214,-399.000,791.000,5874.000,-1234.000,419.000,-1085.000,0.000,-2.800,1
2026-01-31 16:11:38,1854254,3304.000,3849.000,6593.000,1592.000,-748.000,-917.000,0.000,-2.800,1
2026-01-31 16:11:39,1854294,6115.000,2850.000,7100.000,792.000,-1056.000,-377.000,0.000,-2.800,1
2026-01-31 16:11:39,1854334,3533.000,3187.000,7056.000,1168.000,-646.000,-529.000,0.000,-2.800,1
2026-01-31 16:11:39,1854374,3881.000,2471.000,5508.000,66.000,-329.000,-1087.000,0.000,-2.800,1
2026-01-31 16:11:39,1854414,4527.000,3000.000,5702.000,1270.000,118.000,-1299.000,0.000,-2.800,1
2026-01-31 16:11:39,1854454,4665.000,3456.000,6703.000,1581.000,-147.000,-791.000,0.000,-2.800,1
2026-01-31 16:11:39,1854494,350.000,4086.000,6645.000,149.000,551.000,-1227.000,0.000,-2.800,1
2026-01-31 16:11:39,1854534,10709.000,4517.000,7047.000,1671.000,-1620.000,329.000,0.000,-2.800,1
2026-01-31 16:11:39,1854574,1436.000,3901.000,7067.000,-2137.000,-251.000,-616.000,0.000,-2.800,1
2026-01-31 16:11:39,1854614,5972.000,2666.000,5113.000,-469.000,-219.000,420.000,0.000,-2.800,1
2026-01-31 16:11:39,1854654,4166.000,2438.000,4914.000,-579.000,165.000,-32.000,0.000,-2.800,1
2026-01-31 16:11:39,1854694,5984.000,2549.000,5787.000,320.000,-239.000,-31.000,0.000,-2.800,1
2026-01-31 16:11:39,1854734,3419.000,3340.000,7069.000,-562.000,-28.000,-571.000,0.000,-2.800,1
2026-01-31 16:11:39,1854774,5215.000,3195.000,6894.000,366.000,-218.000,42.000,0.000,-2.800,1
2026-01-31 16:11:39,1854814,5515.000,3449.000,6939.000,-44.000,-269.000,765.000,0.000,-2.800,1
2026-01-31 16:11:39,1854854,2273.000,3280.000,6774.000,-1397.000,285.000,751.000,0.000,-2.800,1
2026-01-31 16:11:39,1854894,6107.000,1409.000,5580.000,-384.000,6.000,1068.000,0.000,-2.800,1
2026-01-31 16:11:39,1854934,2166.000,3076.000,6467.000,-605.000,747.000,528.000,0.000,-2.800,1
2026-01-31 16:11:39,1854974,4384.000,4597.000,7223.000,85.000,61.000,833.000,0.000,-2.800,1
2026-01-31 16:11:39,1855014,4337.000,3170.000,6787.000,-1181.000,-49.000,1037.000,0.000,1.250,1
2026-01-31 16:11:39,1855054,7636.000,1040.000,5977.000,-2053.000,-329.000,1062.000,0.000,1.250,1
2026-01-31 16:11:39,1855094,1620.000,2597.000,6872.000,-2654.000,1087.000,-42.000,0.000,1.250,1
2026-01-31 16:11:39,1855134,5958.000,2147.000,5759.000,648.000,394.000,964.000,0.000,1.250,1
2026-01-31 16:11:39,1855174,3725.000,2189.000,6158.000,274.000,960.000,718.000,0.000,1.250,1
2026-01-31 16:11:39,1855214,4329.000,1708.000,6561.000,734.000,645.000,796.000,0.000,1.250,1
2026-01-31 16:11:39,1855254,2528.000,1979.000,6641.000,647.000,950.000,574.000,0.000,1.250,1
2026-01-31 16:11:40,1855294,6019.000,862.000,7030.000,-24.000,175.000,650.000,0.000,1.250,1
2026-01-31 16:11:40,1855334,3337.000,2145.000,7592.000,916.000,366.000,-192.000,0.000,1.250,1
2026-01-31 16:11:40,1855374,4923.000,2461.000,6742.000,1080.000,-11.000,-25.000,0.000,1.250,1
2026-01-31 16:11:40,1855414,5091.000,3778.000,6748.000,869.000,-236.000,16.000,0.000,1.250,1
2026-01-31 16:11:40,1855454,4745.000,2962.000,6901.000,-288.000,-433.000,-116.000,0.000,1.250,1
2026-01-31 16:11:40,1855494,3755.000,2201.000,7033.000,-858.000,-308.000,-518.000,0.000,1.250,1
2026-01-31 16:11:40,1855534,4101.000,2404.000,6289.000,-24.000,-341.000,-915.000,0.000,1.250,1
2026-01-31 16:11:40,1855574,3383.000,2704.000,6317.000,101.000,-263.000,-1132.000,0.000,1.250,1
2026-01-31 16:11:40,1855614,3763.000,3784.000,6860.000,337.000,-144.000,-1041.000,0.000,1.250,1
2026-01-31 16:11:40,1855654,4947.000,2444.000,5349.000,19.000,81.000,-1084.000,0.000,1.250,1
2026-01-31 16:11:40,1855694,3766.000,3134.000,5928.000,348.000,64.000,-1030.000,0.000,1.250,1
2026-01-31 16:11:40,1855734,6064.000,2116.000,6242.000,498.000,-516.000,-1298.000,0.000,1.250,1
2026-01-31 16:11:40,1855774,4370.000,2727.000,6414.000,723.000,-3.000,-1064.000,0.000,1.250,1
2026-01-31 16:11:40,1855814,8292.000,2525.000,6654.000,679.000,-1059.000,-870.000,0.000,1.250,1
2026-01-31 16:11:40,1855854,-11.000,2817.000,5612.000,488.000,881.000,-1579.000,0.000,1.250,1
2026-01-31 16:11:40,1855897,4408.000,4089.000,6757.000,743.000,-418.000,-170.000,0.000,1.250,1
2026-01-31 16:11:40,1855937,4916.000,2604.000,6444.000,129.000,-479.000,-780.000,0.000,1.250,1
2026-01-31 16:11:40,1855974,4198.000,3368.000,7266.000,1189.000,-408.000,-603.000,0.000,1.250,1
2026-01-31 16:11:40,1856014,3572.000,4368.000,6831.000,610.000,135.000,9.000,0.000,0.280,1
2026-01-31 16:11:40,1856054,2434.000,3621.000,6245.000,-518.000,182.000,317.000,0.000,0.280,1
2026-01-31 16:11:40,1856094,5052.000,3799.000,7295.000,-1224.000,-452.000,642.000,0.000,0.280,1
2026-01-31 16:11:40,1856134,4902.000,3632.000,7107.000,-1272.000,-154.000,943.000,0.000,0.280,1
2026-01-31 16:11:40,1856177,4988.000,3315.000,7249.000,-1168.000,-422.000,845.000,0.000,0.280,1
2026-01-31 16:11:40,1856214,3308.000,3218.000,7616.000,-1302.000,-250.000,800.000,0.000,0.280,1
2026-01-31 16:11:40,1856254,5127.000,2763.000,6300.000,-1165.000,-227.000,1053.000,0.000,0.280,1
2026-01-31 16:11:41,1856294,3514.000,2404.000,5838.000,-1002.000,400.000,1152.000,0.000,0.280,1
2026-01-31 16:11:41,1856334,4868.000,1977.000,5905.000,-6.000,618.000,1571.000,0.000,0.280,1
2026-01-31 16:11:41,1856374,5222.000,2409.000,6157.000,904.000,829.000,1821.000,0.000,0.280,1
2026-01-31 16:11:41,1856414,4133.000,1757.000,5990.000,-247.000,1058.000,1849.000,0.000,0.280,1
2026-01-31 16:11:41,1856454,4262.000,1477.000,7191.000,-495.000,792.000,1270.000,0.000,0.280,1
2026-01-31 16:11:41,1856494,4081.000,1821.000,6283.000,757.000,690.000,1064.000,0.000,0.280,1
2026-01-31 16:11:41,1856534,4056.000,1844.000,6433.000,-81.000,327.000,730.000,0.000,0.280,1
2026-01-31 16:11:41,1856574,4577.000,1928.000,6461.000,422.000,54.000,228.000,0.000,0.280,1
2026-01-31 16:11:41,1856614,4452.000,2199.000,6823.000,698.000,-173.000,-268.000,0.000,0.280,1
2026-01-31 16:11:41,1856654,4242.000,2487.000,7463.000,321.000,-209.000,-449.000,0.000,0.280,1
2026-01-31 16:11:41,1856694,4298.000,2407.000,6554.000,413.000,-269.000,-626.000,0.000,0.280,1
2026-01-31 16:11:41,1856734,3826.000,3521.000,6991.000,403.000,-538.000,-712.000,0.000,0.280,1
2026-01-31 16:11:41,1856774,4293.000,1867.000,5508.000,-440.000,-35.000,-978.000,0.000,0.280,1
2026-01-31 16:11:41,1856814,5906.000,2618.000,6490.000,659.000,-323.000,-1111.000,0.000,0.280,1
2026-01-31 16:11:41,1856854,3648.000,2424.000,7238.000,-129.000,-236.000,-1716.000,0.000,0.280,1
2026-01-31 16:11:41,1856894,3430.000,2620.000,6780.000,102.000,-81.000,-1596.000,0.000,0.280,1
2026-01-31 16:11:41,1856934,6311.000,3092.000,5706.000,1151.000,-522.000,-1017.000,0.000,0.280,1
2026-01-31 16:11:41,1856974,4725.000,3126.000,5100.000,1122.000,68.000,-949.000,0.000,0.280,1
2026-01-31 16:11:41,1857014,4637.000,2775.000,5835.000,994.000,8.000,-730.000,0.000,-2.920,1
2026-01-31 16:11:41,1857054,3809.000,3567.000,7190.000,428.000,10.000,-953.000,0.000,-2.920,1
2026-01-31 16:11:41,1857094,4313.000,3632.000,6683.000,468.000,342.000,-564.000,0.000,-2.920,1
2026-01-31 16:11:41,1857134,3207.000,4606.000,6462.000,565.000,588.000,-306.000,0.000,-2.920,1
2026-01-31 16:11:41,1857174,4036.000,4162.000,5445.000,-213.000,317.000,-122.000,0.000,-2.920,1
2026-01-31 16:11:41,1857214,3536.000,2792.000,7643.000,-1229.000,-23.000,276.000,0.000,-2.920,1
2026-01-31 16:11:41,1857254,4025.000,3653.000,7276.000,-372.000,76.000,697.000,0.000,-2.920,1
2026-01-31 16:11:42,1857294,4064.000,2850.000,6558.000,-1954.000,122.000,738.000,0.000,-2.920,1
2026-01-31 16:11:42,1857334,3549.000,2942.000,5946.000,-1724.000,-34.000,902.000,0.000,-2.920,1
2026-01-31 16:11:42,1857374,4700.000,2620.000,6541.000,-1765.000,-243.000,1079.000,0.000,-2.920,1
2026-01-31 16:11:42,1857414,3459.000,2689.000,6772.000,-983.000,231.000,1171.000,0.000,-2.920,1
2026-01-31 16:11:42,1857454,5180.000,1981.000,6556.000,-618.000,88.000,1436.000,0.000,-2.920,1
2026-01-31 16:11:42,1857494,3340.000,2546.000,7126.000,-331.000,329.000,1258.000,0.000,-2.920,1
2026-01-31 16:11:42,1857534,4920.000,1270.000,6505.000,9.000,331.000,1416.000,0.000,-2.920,1
2026-01-31 16:11:42,1857574,5420.000,1733.000,5942.000,342.000,203.000,1259.000,0.000,-2.920,1
2026-01-31 16:11:42,1857614,2778.000,3108.000,6741.000,195.000,450.000,486.000,0.000,-2.920,1
2026-01-31 16:11:42,1857654,4635.000,3231.000,7407.000,112.000,243.000,522.000,0.000,-2.920,1
2026-01-31 16:11:42,1857694,4150.000,2555.000,6659.000,-1234.000,373.000,755.000,0.000,-2.920,1
2026-01-31 16:11:42,1857734,3402.000,454.000,6010.000,-947.000,584.000,285.000,0.000,-2.920,1
2026-01-31 16:11:42,1857774,3984.000,2269.000,6899.000,757.000,344.000,262.000,0.000,-2.920,1
2026-01-31 16:11:42,1857814,5344.000,1129.000,6593.000,448.000,-281.000,-563.000,0.000,-2.920,1
2026-01-31 16:11:42,1857854,3516.000,2239.000,6726.000,1429.000,-545.000,-1127.000,0.000,-2.920,1
2026-01-31 16:11:42,1857897,5580.000,2267.000,6952.000,-50.000,-1099.000,-1179.000,0.000,-2.920,1
2026-01-31 16:11:42,1857936,4748.000,2629.000,7351.000,315.000,-926.000,-1383.000,0.000,-2.920,1
2026-01-31 16:11:42,1857977,6143.000,1991.000,6787.000,1759.000,-921.000,-1145.000,0.000,-2.920,1
2026-01-31 16:11:42,1858014,3486.000,2413.000,6531.000,1434.000,-411.000,-1345.000,0.000,30.860,1
2026-01-31 16:11:42,1858054,6410.000,2243.000,6580.000,759.000,-919.000,-1386.000,0.000,30.860,1
2026-01-31 16:11:42,1858094,4107.000,2697.000,5626.000,1056.000,-145.000,-1870.000,0.000,30.860,1
2026-01-31 16:11:42,1858134,6621.000,3476.000,5524.000,2274.000,-802.000,-944.000,0.000,30.860,1
2026-01-31 16:11:42,1858177,3249.000,3646.000,6555.000,2113.000,87.000,-1042.000,0.000,30.860,1
2026-01-31 16:11:42,1858216,4466.000,3918.000,6559.000,1917.000,97.000,-603.000,0.000,30.860,1
2026-01-31 16:11:42,1858254,4126.000,3739.000,5653.000,1004.000,180.000,-56.000,0.000,30.860,1
2026-01-31 16:11:43,1858294,6835.000,3889.000,6945.000,773.000,-729.000,-206.000,0.000,30.860,1
2026-01-31 16:11:43,1858334,2554.000,3189.000,6569.000,592.000,502.000,-110.000,0.000,30.860,1
2026-01-31 16:11:43,1858374,3945.000,4335.000,6197.000,72.000,186.000,651.000,0.000,30.860,1
2026-01-31 16:11:43,1858414,4134.000,3117.000,6000.000,-786.000,347.000,880.000,0.000,30.860,1
2026-01-31 16:11:43,1858454,2768.000,4150.000,6495.000,-339.000,539.000,855.000,0.000,30.860,1
2026-01-31 16:11:43,1858494,4986.000,3440.000,4780.000,-842.000,425.000,1418.000,0.000,30.860,1
2026-01-31 16:11:43,1858534,3818.000,4166.000,7704.000,-1426.000,459.000,1914.000,0.000,30.860,1
2026-01-31 16:11:43,1858574,4319.000,3965.000,7232.000,-1356.000,914.000,2076.000,0.000,30.860,1
2026-01-31 16:11:43,1858614,2354.000,2447.000,4694.000,-1410.000,1770.000,2565.000,0.000,30.860,1
2026-01-31 16:11:43,1858654,7597.000,2697.000,7162.000,-353.000,385.000,2229.000,0.000,30.860,1
2026-01-31 16:11:43,1858694,3373.000,2578.000,7608.000,-630.000,746.000,1463.000,0.000,30.860,1
2026-01-31 16:11:43,1858734,4703.000,2011.000,6843.000,-620.000,441.000,1016.000,0.000,30.860,1
2026-01-31 16:11:43,1858774,6018.000,1539.000,6350.000,-508.000,207.000,704.000,0.000,30.860,1
2026-01-31 16:11:43,1858814,4035.000,3733.000,7639.000,284.000,497.000,-428.000,0.000,30.860,1
2026-01-31 16:11:43,1858854,-37.000,2164.000,3670.000,-386.000,2152.000,131.000,0.000,30.860,1
2026-01-31 16:11:43,1858894,2275.000,3204.000,6568.000,-2235.000,968.000,-112.000,0.000,30.860,1
2026-01-31 16:11:43,1858934,6755.000,2733.000,8461.000,-106.000,-242.000,862.000,0.000,30.860,1
2026-01-31 16:11:43,1858974,4606.000,1966.000,7489.000,425.000,288.000,151.000,0.000,30.860,1
2026-01-31 16:11:43,1859014,5470.000,2235.000,7618.000,-21.000,-711.000,-545.000,0.000,-0.390,1
2026-01-31 16:11:43,1859054,2553.000,3223.000,7318.000,-46.000,-382.000,-836.000,0.000,-0.390,1
2026-01-31 16:11:43,1859094,3707.000,2923.000,6394.000,-197.000,-666.000,-650.000,0.000,-0.390,1
2026-01-31 16:11:43,1859134,5170.000,1157.000,4810.000,-70.000,-482.000,-379.000,0.000,-0.390,1
2026-01-31 16:11:43,1859174,5691.000,3943.000,7297.000,1475.000,-871.000,-1755.000,0.000,-0.390,1
2026-01-31 16:11:43,1859214,1100.000,2250.000,6437.000,75.000,-71.000,-2087.000,0.000,-0.390,1
2026-01-31 16:11:43,1859254,4268.000,3339.000,5440.000,265.000,-296.000,-889.000,0.000,-0.390,1
2026-01-31 16:11:44,1859294,6095.000,1878.000,5497.000,758.000,-379.000,-1146.000,0.000,-0.390,1
2026-01-31 16:11:44,1859334,4256.000,3396.000,6549.000,1681.000,-134.000,-934.000,0.000,-0.390,1
2026-01-31 16:11:44,1859374,4992.000,2884.000,7130.000,131.000,-287.000,-1029.000,0.000,-0.390,1
2026-01-31 16:11:44,1859414,5486.000,3558.000,6650.000,-269.000,-518.000,-753.000,0.000,-0.390,1
2026-01-31 16:11:44,1859454,4613.000,3049.000,6784.000,-108.000,-636.000,-1181.000,0.000,-0.390,1
2026-01-31 16:11:44,1859494,3933.000,4814.000,5739.000,738.000,-47.000,-635.000,0.000,-0.390,1
2026-01-31 16:11:44,1859534,3952.000,3489.000,6426.000,-326.000,1.000,-189.000,0.000,-0.390,1
2026-01-31 16:11:44,1859574,2314.000,4149.000,7166.000,-661.000,253.000,603.000,0.000,-0.390,1
2026-01-31 16:11:44,1859614,3642.000,3333.000,6066.000,-1757.000,502.000,1071.000,0.000,-0.390,1
2026-01-31 16:11:44,1859654,4140.000,2897.000,6095.000,-1558.000,655.000,1259.000,0.000,-0.390,1
2026-01-31 16:11:44,1859694,5508.000,2620.000,7527.000,-1001.000,337.000,1052.000,0.000,-0.390,1
2026-01-31 16:11:44,1859734,2719.000,3139.000,7346.000,-1350.000,692.000,852.000,0.000,-0.390,1
2026-01-31 16:11:44,1859774,4576.000,2475.000,6538.000,-1084.000,288.000,845.000,0.000,-0.390,1
2026-01-31 16:11:44,1859814,5028.000,2294.000,6029.000,-803.000,353.000,1184.000,0.000,-0.390,1
2026-01-31 16:11:44,1859854,4581.000,2444.000,6348.000,-842.000,366.000,871.000,0.000,-0.390,1
2026-01-31 16:11:44,1859899,3785.000,2425.000,6481.000,-1140.000,45.000,236.000,0.000,-0.390,1
2026-01-31 16:11:44,1859934,4722.000,2107.000,6057.000,-1240.000,74.000,168.000,0.000,-0.390,1
2026-01-31 16:11:44,1859974,4345.000,2635.000,6105.000,-885.000,222.000,9.000,0.000,-0.390,1
2026-01-31 16:11:44,1860014,5042.000,1829.000,6072.000,-814.000,605.000,56.000,0.000,-1.990,1
2026-01-31 16:11:44,1860054,5049.000,2608.000,7144.000,-16.000,567.000,187.000,0.000,-1.990,1
2026-01-31 16:11:44,1860094,3869.000,1568.000,7435.000,-36.000,321.000,-755.000,0.000,-1.990,1
2026-01-31 16:11:44,1860134,5212.000,1272.000,7182.000,618.000,-353.000,-1159.000,0.000,-1.990,1
2026-01-31 16:11:44,1860174,2319.000,2584.000,6533.000,694.000,-420.000,-1645.000,0.000,-1.990,1
2026-01-31 16:11:44,1860214,5609.000,2651.000,7265.000,675.000,-1119.000,-1344.000,0.000,-1.990,1
2026-01-31 16:11:44,1860254,3564.000,2696.000,7273.000,139.000,-799.000,-1626.000,0.000,-1.990,1
2026-01-31 16:11:45,1860294,3860.000,3207.000,7197.000,-531.000,-1007.000,-1719.000,0.000,-1.990,1
2026-01-31 16:11:45,1860334,5035.000,2129.000,6443.000,-1293.000,-804.000,-1746.000,0.000,-1.990,1
2026-01-31 16:11:45,1860374,3198.000,2472.000,5388.000,-572.000,-42.000,-1415.000,0.000,-1.990,1
2026-01-31 16:11:45,1860414,4452.000,2255.000,5395.000,667.000,-260.000,-1302.000,0.000,-1.990,1
2026-01-31 16:11:45,1860454,4704.000,2192.000,6047.000,2056.000,-578.000,-1264.000,0.000,-1.990,1
2026-01-31 16:11:45,1860494,4744.000,3151.000,7674.000,1781.000,-851.000,-593.000,0.000,-1.990,1
2026-01-31 16:11:45,1860534,5060.000,3337.000,7175.000,572.000,-542.000,-183.000,0.000,-1.990,1
2026-01-31 16:11:45,1860574,3884.000,2546.000,5979.000,635.000,-25.000,-201.000,0.000,-1.990,1
2026-01-31 16:11:45,1860614,3574.000,3051.000,6337.000,1696.000,-185.000,-147.000,0.000,-1.990,1
2026-01-31 16:11:45,1860654,4568.000,3228.000,7171.000,1379.000,-462.000,-463.000,0.000,-1.990,1
2026-01-31 16:11:45,1860694,3798.000,3423.000,7197.000,746.000,208.000,32.000,0.000,-1.990,1
2026-01-31 16:11:45,1860734,4246.000,4063.000,6685.000,594.000,-65.000,370.000,0.000,-1.990,1
2026-01-31 16:11:45,1860774,5008.000,4386.000,6350.000,-596.000,-254.000,839.000,0.000,-1.990,1
2026-01-31 16:11:45,1860814,3292.000,4280.000,5766.000,-174.000,-49.000,1139.000,0.000,-1.990,1
2026-01-31 16:11:45,1860854,2795.000,3377.000,6348.000,-1217.000,290.000,997.000,0.000,-1.990,1
2026-01-31 16:11:45,1860894,5311.000,3085.000,7200.000,-1040.000,-285.000,1000.000,0.000,-1.990,1
2026-01-31 16:11:45,1860934,3634.000,3586.000,7745.000,-1638.000,419.000,798.000,0.000,-1.990,1
2026-01-31 16:11:45,1860974,5757.000,3358.000,7272.000,-2204.000,614.000,1097.000,0.000,-1.990,1
2026-01-31 16:11:45,1861014,4034.000,2427.000,5167.000,-261.000,1448.000,1192.000,0.000,-1.990,1
2026-01-31 16:11:45,1861054,3517.000,3190.000,5393.000,1720.000,496.000,776.000,0.000,0.000,0
2026-01-31 16:11:45,1861094,5226.000,2338.000,5808.000,2344.000,175.000,417.000,0.000,0.000,0
2026-01-31 16:11:45,1861134,3853.000,3745.000,6138.000,3613.000,338.000,-343.000,0.000,-11.527,1
2026-01-31 16:11:45,1861174,3440.000,4312.000,6355.000,1306.000,249.000,-507.000,0.000,-11.527,1
2026-01-31 16:11:45,1861214,5131.000,3328.000,6308.000,-1781.000,331.000,-404.000,0.000,-11.527,1
2026-01-31 16:11:45,1861254,3861.000,2883.000,6712.000,-4109.000,316.000,-1361.000,0.000,-11.527,1
2026-01-31 16:11:46,1861294,3352.000,919.000,5267.000,-6558.000,-444.000,-2153.000,0.000,-11.527,1
2026-01-31 16:11:46,1861334,4919.000,2739.000,6133.000,-824.000,-1210.000,-1458.000,0.000,-11.527,1
2026-01-31 16:11:46,1861374,4081.000,3356.000,8157.000,-2791.000,-1065.000,-1738.000,0.000,-11.527,1
2026-01-31 16:11:46,1861414,2644.000,746.000,6762.000,-1509.000,291.000,-886.000,0.000,-11.527,1
2026-01-31 16:11:46,1861454,4592.000,4676.000,5638.000,1537.000,-178.000,-1146.000,0.000,-11.527,1
2026-01-31 16:11:46,1861494,3164.000,1407.000,6132.000,-6259.000,-973.000,-1698.000,0.000,-11.527,1
2026-01-31 16:11:46,1861534,4898.000,1163.000,6519.000,-4589.000,-682.000,-64.000,0.000,-11.527,1
2026-01-31 16:11:46,1861574,4484.000,1581.000,6616.000,-1840.000,90.000,-591.000,0.000,-11.527,1
2026-01-31 16:11:46,1861614,6851.000,-736.000,7208.000,-1609.000,179.000,-1767.000,0.000,-11.527,1
2026-01-31 16:11:46,1861654,3626.000,3502.000,7669.000,533.000,184.000,-731.000,0.000,-11.527,1
2026-01-31 16:11:46,1861694,3443.000,1051.000,6451.000,-1646.000,209.000,-183.000,0.000,-11.527,1
2026-01-31 16:11:46,1861734,5478.000,1652.000,6944.000,736.000,112.000,-382.000,0.000,-11.527,1
2026-01-31 16:11:46,1861774,3804.000,2036.000,7720.000,-63.000,155.000,290.000,0.000,-11.527,1
2026-01-31 16:11:46,1861814,2325.000,386.000,6457.000,-388.000,530.000,467.000,0.000,-11.527,1
2026-01-31 16:11:46,1861857,4411.000,946.000,7796.000,-794.000,-253.000,834.000,0.000,-11.527,1
2026-01-31 16:11:46,1861897,3242.000,45.000,7147.000,-1911.000,-467.000,1345.000,0.000,-11.527,1
2026-01-31 16:11:46,1861934,2680.000,1834.000,8489.000,-1723.000,-494.000,1833.000,0.000,-11.527,1
2026-01-31 16:11:46,1861974,4151.000,499.000,7075.000,-1215.000,-480.000,1290.000,0.000,-11.527,1
2026-01-31 16:11:46,1862014,5366.000,179.000,6865.000,-1038.000,-886.000,1447.000,0.000,-11.527,1
2026-01-31 16:11:46,1862054,4701.000,-167.000,7101.000,-663.000,-853.000,1503.000,0.000,-11.527,1
2026-01-31 16:11:46,1862094,3362.000,-654.000,6671.000,-174.000,-506.000,1933.000,0.000,-11.527,1
2026-01-31 16:11:46,1862134,5319.000,-439.000,6227.000,973.000,-496.000,1718.000,0.000,-10.660,1
2026-01-31 16:11:46,1862178,7983.000,-312.000,6880.000,2021.000,-446.000,1562.000,0.000,-10.660,1
2026-01-31 16:11:46,1862214,3071.000,-190.000,6491.000,179.000,249.000,1713.000,0.000,-10.660,1
2026-01-31 16:11:46,1862254,7589.000,1432.000,8502.000,2678.000,-416.000,676.000,0.000,-10.660,1
2026-01-31 16:11:47,1862294,816.000,315.000,6479.000,-1806.000,1246.000,882.000,0.000,-10.660,1
2026-01-31 16:11:47,1862334,6645.000,1750.000,8848.000,954.000,-243.000,102.000,0.000,-10.660,1
2026-01-31 16:11:47,1862374,2639.000,1157.000,6339.000,-963.000,541.000,514.000,0.000,-10.660,1
2026-01-31 16:11:47,1862414,4641.000,517.000,5977.000,-1005.000,-327.000,-348.000,0.000,-10.660,1
2026-01-31 16:11:47,1862454,5677.000,-49.000,7592.000,-469.000,24.000,-1071.000,0.000,-10.660,1
2026-01-31 16:11:47,1862494,3391.000,370.000,8277.000,20.000,286.000,-1070.000,0.000,-10.660,1
2026-01-31 16:11:47,1862534,4730.000,342.000,7273.000,-541.000,99.000,-1424.000,0.000,-10.660,1
2026-01-31 16:11:47,1862574,4637.000,374.000,7729.000,-1411.000,126.000,-1483.000,0.000,-10.660,1
2026-01-31 16:11:47,1862614,3407.000,904.000,6816.000,-757.000,289.000,-1264.000,0.000,-10.660,1
2026-01-31 16:11:47,1862654,4367.000,-304.000,6738.000,-91.000,196.000,-1237.000,0.000,-10.660,1
2026-01-31 16:11:47,1862694,4864.000,1594.000,6698.000,2499.000,274.000,-1559.000,0.000,-10.660,1
2026-01-31 16:11:47,1862734,5080.000,407.000,6907.000,-489.000,270.000,-1433.000,0.000,-10.660,1
2026-01-31 16:11:47,1862774,4435.000,538.000,6449.000,798.000,653.000,-892.000,0.000,-10.660,1
2026-01-31 16:11:47,1862814,3712.000,1605.000,6692.000,1520.000,420.000,-813.000,0.000,-10.660,1
2026-01-31 16:11:47,1862854,4715.000,582.000,6971.000,1603.000,323.000,-480.000,0.000,-10.660,1
2026-01-31 16:11:47,1862894,7378.000,657.000,8721.000,2205.000,-172.000,-1097.000,0.000,-10.660,1
2026-01-31 16:11:47,1862934,531.000,842.000,6495.000,-1948.000,95.000,287.000,0.000,-10.660,1
2026-01-31 16:11:47,1862974,4550.000,1269.000,6849.000,-256.000,-691.000,-221.000,0.000,-10.660,1
2026-01-31 16:11:47,1863014,4631.000,686.000,7419.000,-672.000,113.000,146.000,0.000,-10.660,1
2026-01-31 16:11:47,1863054,5421.000,1375.000,8189.000,555.000,78.000,336.000,0.000,-10.660,1
2026-01-31 16:11:47,1863094,2634.000,-904.000,6508.000,-2175.000,402.000,963.000,0.000,-10.660,1
2026-01-31 16:11:47,1863134,5134.000,1145.000,6511.000,-139.000,-289.000,797.000,0.000,1.550,1
2026-01-31 16:11:47,1863174,6234.000,777.000,8138.000,-2.000,-152.000,1030.000,0.000,1.550,1
2026-01-31 16:11:47,1863214,3433.000,1651.000,8868.000,-146.000,-172.000,1771.000,0.000,1.550,1
2026-01-31 16:11:47,1863254,4773.000,-566.000,6222.000,-1092.000,-847.000,1691.000,0.000,1.550,1
2026-01-31 16:11:48,1863294,5382.000,-712.000,7205.000,-1280.000,-1034.000,1415.000,0.000,1.550,1
2026-01-31 16:11:48,1863334,4521.000,-6.000,7042.000,-274.000,-690.000,858.000,0.000,1.550,1
2026-01-31 16:11:48,1863374,4043.000,-330.000,6215.000,-636.000,-515.000,698.000,0.000,1.550,1
2026-01-31 16:11:48,1863414,4708.000,120.000,6997.000,557.000,474.000,691.000,0.000,1.550,1
2026-01-31 16:11:48,1863454,5083.000,-704.000,6713.000,760.000,224.000,1287.000,0.000,1.550,1
2026-01-31 16:11:48,1863494,4186.000,814.000,7820.000,1229.000,409.000,705.000,0.000,1.550,1
2026-01-31 16:11:48,1863534,3515.000,184.000,6369.000,-1120.000,734.000,150.000,0.000,1.550,1
2026-01-31 16:11:48,1863574,5005.000,-435.000,6409.000,328.000,439.000,-366.000,0.000,1.550,1
2026-01-31 16:11:48,1863614,4688.000,828.000,8584.000,1808.000,43.000,-562.000,0.000,1.550,1
2026-01-31 16:11:48,1863654,3951.000,1427.000,8257.000,1546.000,-310.000,-558.000,0.000,1.550,1
2026-01-31 16:11:48,1863694,5603.000,671.000,7270.000,-1096.000,-717.000,-1313.000,0.000,1.550,1
2026-01-31 16:11:48,1863734,2709.000,-221.000,6171.000,-2732.000,125.000,-1253.000,0.000,1.550,1
2026-01-31 16:11:48,1863774,3119.000,940.000,6565.000,-23.000,381.000,-1327.000,0.000,1.550,1
2026-01-31 16:11:48,1863814,5572.000,358.000,6793.000,2616.000,759.000,-1243.000,0.000,1.550,1
2026-01-31 16:11:48,1863854,3411.000,2087.000,7491.000,2681.000,1172.000,-1091.000,0.000,1.550,1
2026-01-31 16:11:48,1863894,5277.000,776.000,7570.000,253.000,515.000,-694.000,0.000,1.550,1
2026-01-31 16:11:48,1863935,4384.000,857.000,7015.000,-37.000,101.000,-709.000,0.000,1.550,1
2026-01-31 16:11:48,1863974,5077.000,1083.000,6330.000,16.000,-102.000,-1251.000,0.000,1.550,1
2026-01-31 16:11:48,1864014,3900.000,1769.000,6717.000,657.000,178.000,-848.000,0.000,1.550,1
2026-01-31 16:11:48,1864054,3265.000,1208.000,6777.000,1027.000,460.000,-253.000,0.000,1.550,1
2026-01-31 16:11:48,1864094,5367.000,1868.000,7755.000,2035.000,209.000,-405.000,0.000,1.550,1
2026-01-31 16:11:48,1864134,3726.000,2362.000,7846.000,142.000,323.000,-5.000,0.000,-7.900,1
2026-01-31 16:11:48,1864177,4169.000,986.000,7202.000,-731.000,240.000,-37.000,0.000,-7.900,1
2026-01-31 16:11:48,1864214,3296.000,871.000,6791.000,-671.000,221.000,362.000,0.000,-7.900,1
2026-01-31 16:11:48,1864254,3243.000,1335.000,6962.000,-445.000,-11.000,405.000,0.000,-7.900,1
2026-01-31 16:11:49,1864294,6209.000,2438.000,7876.000,1358.000,-160.000,275.000,0.000,-7.900,1
2026-01-31 16:11:49,1864334,3310.000,1434.000,8288.000,-924.000,-142.000,991.000,0.000,-7.900,1
2026-01-31 16:11:49,1864374,4138.000,702.000,7255.000,-2495.000,-409.000,637.000,0.000,-7.900,1
2026-01-31 16:11:49,1864414,4617.000,876.000,7226.000,-2508.000,-224.000,542.000,0.000,-7.900,1
2026-01-31 16:11:49,1864454,1030.000,126.000,6226.000,-3576.000,389.000,1037.000,0.000,-7.900,1
2026-01-31 16:11:49,1864494,5608.000,326.000,7119.000,103.000,-651.000,988.000,0.000,-7.900,1
2026-01-31 16:11:49,1864534,4171.000,782.000,7636.000,-599.000,-425.000,1376.000,0.000,-7.900,1
2026-01-31 16:11:49,1864574,5962.000,-11.000,6980.000,-1398.000,-1164.000,1009.000,0.000,-7.900,1
2026-01-31 16:11:49,1864614,4467.000,-244.000,6699.000,-2450.000,-924.000,221.000,0.000,-7.900,1
2026-01-31 16:11:49,1864654,4558.000,-394.000,6653.000,-695.000,-382.000,-377.000,0.000,-7.900,1
2026-01-31 16:11:49,1864694,4205.000,-80.000,6529.000,596.000,662.000,288.000,0.000,-7.900,1
2026-01-31 16:11:49,1864734,4064.000,1172.000,7350.000,2284.000,478.000,530.000,0.000,-7.900,1
2026-01-31 16:11:49,1864774,5146.000,475.000,7723.000,875.000,-264.000,70.000,0.000,-7.900,1
2026-01-31 16:11:49,1864814,4064.000,-353.000,7341.000,-1100.000,-479.000,-615.000,0.000,-7.900,1
2026-01-31 16:11:49,1864854,4157.000,268.000,7062.000,-827.000,-388.000,-1104.000,0.000,-7.900,1
2026-01-31 16:11:49,1864894,4305.000,686.000,7471.000,-199.000,144.000,-1452.000,0.000,-7.900,1
2026-01-31 16:11:49,1864934,3145.000,-106.000,6052.000,429.000,480.000,-1402.000,0.000,-7.900,1
2026-01-31 16:11:49,1864974,4147.000,821.000,7032.000,2450.000,285.000,-1211.000,0.000,-7.900,1
2026-01-31 16:11:49,1865014,4572.000,1342.000,7832.000,1889.000,-265.000,-1253.000,0.000,-7.900,1
2026-01-31 16:11:49,1865054,4831.000,886.000,7319.000,-304.000,-620.000,-1284.000,0.000,-7.900,1
2026-01-31 16:11:49,1865094,6637.000,-765.000,6489.000,-756.000,-480.000,-1921.000,0.000,-7.900,1
2026-01-31 16:11:49,1865134,-611.000,1374.000,4319.000,-834.000,641.000,-557.000,0.000,-1.610,1
2026-01-31 16:11:49,1865174,7648.000,1269.000,8156.000,2551.000,-359.000,-615.000,0.000,-1.610,1
2026-01-31 16:11:49,1865214,4461.000,1012.000,7305.000,535.000,616.000,-3.000,0.000,-1.610,1
2026-01-31 16:11:49,1865254,5591.000,74.000,7106.000,124.000,-90.000,261.000,0.000,-1.610,1
2026-01-31 16:11:50,1865294,5530.000,188.000,7633.000,-398.000,-458.000,129.000,0.000,-1.610,1
2026-01-31 16:11:50,1865334,4270.000,116.000,7040.000,-499.000,-517.000,56.000,0.000,-1.610,1
2026-01-31 16:11:50,1865374,3785.000,1512.000,7003.000,-160.000,-350.000,248.000,0.000,-1.610,1
2026-01-31 16:11:50,1865414,3729.000,593.000,6738.000,-306.000,227.000,503.000,0.000,-1.610,1
2026-01-31 16:11:50,1865454,5361.000,1254.000,7766.000,1025.000,580.000,680.000,0.000,-1.610,1
2026-01-31 16:11:50,1865494,4376.000,1106.000,7690.000,143.000,175.000,1028.000,0.000,-1.610,1
2026-01-31 16:11:50,1865534,3410.000,1698.000,7698.000,-1106.000,217.000,972.000,0.000,-1.610,1
2026-01-31 16:11:50,1865574,5130.000,522.000,6491.000,-1125.000,-318.000,846.000,0.000,-1.610,1
2026-01-31 16:11:50,1865614,4748.000,553.000,6884.000,-1150.000,-266.000,425.000,0.000,-1.610,1
2026-01-31 16:11:50,1865654,3976.000,1565.000,7140.000,-873.000,-182.000,268.000,0.000,-1.610,1
2026-01-31 16:11:50,1865694,4279.000,872.000,7573.000,-780.000,-237.000,90.000,0.000,-1.610,1
2026-01-31 16:11:50,1865734,4712.000,977.000,7288.000,-718.000,-74.000,-251.000,0.000,-1.610,1
2026-01-31 16:11:50,1865774,2977.000,742.000,6279.000,-913.000,338.000,-276.000,0.000,-1.610,1
2026-01-31 16:11:50,1865814,5336.000,655.000,6944.000,367.000,290.000,-247.000,0.000,-1.610,1
2026-01-31 16:11:50,1865854,4193.000,511.000,6910.000,472.000,247.000,-176.000,0.000,-1.610,1
2026-01-31 16:11:50,1865897,3810.000,93.000,7394.000,-119.000,20.000,-413.000,0.000,-1.610,1
2026-01-31 16:11:50,1865936,5349.000,-246.000,6803.000,-55.000,-555.000,-474.000,0.000,-1.610,1
2026-01-31 16:11:50,1865974,3603.000,307.000,6823.000,-162.000,-121.000,-479.000,0.000,-1.610,1
2026-01-31 16:11:50,1866014,5307.000,320.000,6778.000,100.000,-327.000,-446.000,0.000,-1.610,1
2026-01-31 16:11:50,1866054,4700.000,-589.000,6478.000,401.000,116.000,202.000,0.000,-1.610,1
2026-01-31 16:11:50,1866094,3524.000,392.000,8224.000,-338.000,-7.000,549.000,0.000,-1.610,1
2026-01-31 16:11:50,1866134,5709.000,341.000,5864.000,2708.000,16.000,595.000,0.000,3.390,1
2026-01-31 16:11:50,1866174,2629.000,-232.000,6193.000,-1431.000,-164.000,479.000,0.000,3.390,1
2026-01-31 16:11:50,1866214,4775.000,1428.000,8520.000,610.000,-60.000,215.000,0.000,3.390,1
2026-01-31 16:11:50,1866254,3387.000,1180.000,7201.000,277.000,-4.000,609.000,0.000,3.390,1
2026-01-31 16:11:51,1866294,6298.000,1477.000,6690.000,1605.000,-404.000,91.000,0.000,3.390,1
2026-01-31 16:11:51,1866334,5069.000,988.000,7236.000,-370.000,62.000,-294.000,0.000,3.390,1
2026-01-31 16:11:51,1866374,2700.000,1519.000,6905.000,-966.000,-254.000,-97.000,0.000,3.390,1
2026-01-31 16:11:51,1866414,5226.000,1595.000,6992.000,-49.000,-690.000,-228.000,0.000,3.390,1
2026-01-31 16:11:51,1866454,4177.000,607.000,6176.000,-947.000,-137.000,48.000,0.000,3.390,1
2026-01-31 16:11:51,1866494,4890.000,575.000,7417.000,-249.000,274.000,-2.000,0.000,3.390,1
2026-01-31 16:11:51,1866534,5917.000,-184.000,6846.000,382.000,337.000,-139.000,0.000,3.390,1
2026-01-31 16:11:51,1866574,3965.000,808.000,6533.000,-145.000,-37.000,-116.000,0.000,3.390,1
2026-01-31 16:11:51,1866614,3939.000,671.000,6003.000,-877.000,-110.000,-181.000,0.000,3.390,1
2026-01-31 16:11:51,1866654,5323.000,207.000,6605.000,905.000,168.000,179.000,0.000,3.390,1
2026-01-31 16:11:51,1866694,4520.000,628.000,7484.000,1015.000,318.000,313.000,0.000,3.390,1
2026-01-31 16:11:51,1866734,4841.000,576.000,7784.000,554.000,90.000,240.000,0.000,3.390,1
2026-01-31 16:11:51,1866774,5279.000,574.000,7016.000,-89.000,-387.000,-184.000,0.000,3.390,1
2026-01-31 16:11:51,1866814,4188.000,1155.000,7166.000,-238.000,-287.000,-192.000,0.000,3.390,1
2026-01-31 16:11:51,1866854,3590.000,1096.000,6432.000,-649.000,-235.000,152.000,0.000,3.390,1
2026-01-31 16:11:51,1866894,5444.000,557.000,6796.000,621.000,-169.000,-20.000,0.000,3.390,1
2026-01-31 16:11:51,1866934,4502.000,1334.000,7365.000,784.000,241.000,-111.000,0.000,3.390,1
2026-01-31 16:11:51,1866974,4266.000,1546.000,7177.000,452.000,301.000,-24.000,0.000,3.390,1
2026-01-31 16:11:51,1867014,4287.000,1015.000,7368.000,-107.000,-155.000,-67.000,0.000,3.390,1
2026-01-31 16:11:51,1867054,3724.000,1340.000,6260.000,-793.000,-350.000,-234.000,0.000,3.390,1
2026-01-31 16:11:51,1867094,4506.000,229.000,6640.000,-469.000,-38.000,-266.000,0.000,3.390,1
2026-01-31 16:11:51,1867134,4762.000,597.000,6579.000,685.000,276.000,-216.000,0.000,2.780,1
2026-01-31 16:11:51,1867174,4059.000,1274.000,7150.000,522.000,315.000,-133.000,0.000,2.780,1
2026-01-31 16:11:51,1867214,5986.000,1090.000,7758.000,744.000,-31.000,-235.000,0.000,2.780,1
2026-01-31 16:11:51,1867254,4239.000,1378.000,6866.000,44.000,-9.000,-27.000,0.000,2.780,1
2026-01-31 16:11:52,1867294,5100.000,860.000,7006.000,69.000,-277.000,-166.000,0.000,2.780,1
2026-01-31 16:11:52,1867334,4027.000,922.000,6424.000,223.000,-45.000,-126.000,0.000,2.780,1
2026-01-31 16:11:52,1867374,4223.000,1133.000,6777.000,61.000,-58.000,166.000,0.000,2.780,1
2026-01-31 16:11:52,1867414,4727.000,741.000,6810.000,202.000,90.000,80.000,0.000,2.780,1
2026-01-31 16:11:52,1867454,5144.000,1137.000,6846.000,679.000,127.000,116.000,0.000,2.780,1
2026-01-31 16:11:52,1867494,3718.000,1230.000,6980.000,198.000,185.000,319.000,0.000,2.780,1
2026-01-31 16:11:52,1867534,5142.000,737.000,6863.000,327.000,-10.000,223.000,0.000,2.780,1
2026-01-31 16:11:52,1867574,5089.000,1361.000,6884.000,568.000,-81.000,-32.000,0.000,2.780,1
2026-01-31 16:11:52,1867614,4587.000,1156.000,6864.000,327.000,208.000,176.000,0.000,2.780,1
2026-01-31 16:11:52,1867654,3459.000,1113.000,6986.000,-104.000,384.000,317.000,0.000,2.780,1
2026-01-31 16:11:52,1867694,6059.000,1343.000,7161.000,832.000,161.000,20.000,0.000,2.780,1
2026-01-31 16:11:52,1867734,3564.000,1846.000,7196.000,391.000,298.000,452.000,0.000,2.780,1
2026-01-31 16:11:52,1867774,4335.000,1146.000,6871.000,48.000,62.000,275.000,0.000,2.780,1
2026-01-31 16:11:52,1867814,4183.000,1212.000,6812.000,1264.000,284.000,201.000,0.000,2.780,1
2026-01-31 16:11:52,1867854,4307.000,1926.000,7194.000,1879.000,414.000,151.000,0.000,2.780,1
2026-01-31 16:11:52,1867894,-427.000,709.000,3852.000,1215.000,1130.000,1290.000,0.000,2.780,1
2026-01-31 16:11:52,1867934,17841.000,3150.000,12359.000,4787.000,-2355.000,-3856.000,0.000,2.780,1
2026-01-31 16:11:52,1867974,-2297.000,4507.000,7904.000,210.000,2540.000,985.000,0.000,2.780,1
2026-01-31 16:11:52,1868014,4540.000,1176.000,5983.000,-1449.000,-716.000,-658.000,0.000,2.780,1
2026-01-31 16:11:52,1868054,5131.000,2884.000,6418.000,-1417.000,-257.000,-733.000,0.000,2.780,1
2026-01-31 16:11:52,1868094,5260.000,1350.000,6162.000,-557.000,327.000,-213.000,0.000,2.780,1
2026-01-31 16:11:52,1868134,4417.000,1404.000,6754.000,589.000,410.000,-166.000,0.000,16.310,1
2026-01-31 16:11:52,1868174,5049.000,1444.000,6688.000,22.000,323.000,-500.000,0.000,16.310,1
2026-01-31 16:11:52,1868214,3830.000,1771.000,6939.000,-299.000,86.000,-602.000,0.000,16.310,1
2026-01-31 16:11:52,1868254,4969.000,2080.000,6604.000,-228.000,-280.000,-666.000,0.000,16.310,1
2026-01-31 16:11:53,1868294,4608.000,2312.000,6550.000,-339.000,-240.000,-94.000,0.000,16.310,1
2026-01-31 16:11:53,1868334,5082.000,579.000,5282.000,-747.000,-677.000,76.000,0.000,16.310,1
2026-01-31 16:11:53,1868374,1152.000,1005.000,7347.000,-1153.000,110.000,-47.000,0.000,16.310,1
2026-01-31 16:11:53,1868414,4991.000,2017.000,5753.000,615.000,586.000,-795.000,0.000,16.310,1
2026-01-31 16:11:53,1868454,6547.000,720.000,6916.000,1385.000,406.000,323.000,0.000,16.310,1
2026-01-31 16:11:53,1868494,4374.000,2114.000,7781.000,2259.000,-489.000,488.000,0.000,16.310,1
2026-01-31 16:11:53,1868534,3758.000,496.000,6271.000,-1777.000,-1035.000,530.000,0.000,16.310,1
2026-01-31 16:11:53,1868574,5002.000,46.000,5368.000,-793.000,-1211.000,254.000,0.000,16.310,1
2026-01-31 16:11:53,1868614,2034.000,1977.000,5926.000,-1112.000,-507.000,1253.000,0.000,16.310,1
2026-01-31 16:11:53,1868654,9493.000,-765.000,6733.000,4107.000,-1267.000,-104.000,0.000,16.310,1
2026-01-31 16:11:53,1868694,3881.000,1796.000,6524.000,2131.000,0.000,1037.000,0.000,16.310,1
2026-01-31 16:11:53,1868734,4645.000,1403.000,6969.000,1865.000,-778.000,738.000,0.000,16.310,1
2026-01-31 16:11:53,1868774,5936.000,1115.000,6796.000,1975.000,-1035.000,705.000,0.000,16.310,1
2026-01-31 16:11:53,1868814,5435.000,1430.000,6092.000,1755.000,-1203.000,1521.000,0.000,16.310,1
2026-01-31 16:11:53,1868854,4802.000,1822.000,6384.000,1590.000,-921.000,1901.000,0.000,16.310,1
2026-01-31 16:11:53,1868894,4574.000,1489.000,6237.000,1030.000,-738.000,1959.000,0.000,16.310,1
2026-01-31 16:11:53,1868934,4680.000,1987.000,6178.000,1436.000,39.000,1592.000,0.000,16.310,1
2026-01-31 16:11:53,1868974,5619.000,1823.000,6128.000,1274.000,322.000,1775.000,0.000,16.310,1
2026-01-31 16:11:53,1869014,4517.000,4047.000,5005.000,1562.000,1159.000,2180.000,0.000,16.310,1
2026-01-31 16:11:53,1869054,5663.000,338.000,7007.000,1478.000,1133.000,1995.000,0.000,16.310,1
2026-01-31 16:11:53,1869094,4560.000,3249.000,5797.000,1684.000,361.000,1272.000,0.000,16.310,1
2026-01-31 16:11:53,1869134,463.000,1881.000,5524.000,-475.000,1630.000,1792.000,0.000,11.940,1
2026-01-31 16:11:53,1869174,6337.000,3394.000,6867.000,2253.000,141.000,1091.000,0.000,11.940,1
2026-01-31 16:11:53,1869214,-1281.000,888.000,3770.000,-863.000,2261.000,4100.000,0.000,11.940,1
2026-01-31 16:11:53,1869254,26126.000,718.000,11207.000,8750.000,-2561.000,-1482.000,0.000,11.940,1
2026-01-31 16:11:54,1869294,-84.000,3489.000,5870.000,276.000,-740.000,2361.000,0.000,11.940,1
2026-01-31 16:11:54,1869334,1026.000,-259.000,4289.000,-4116.000,-25.000,1141.000,0.000,11.940,1
2026-01-31 16:11:54,1869374,15003.000,1451.000,8264.000,4951.000,-2418.000,-388.000,0.000,11.940,1
2026-01-31 16:11:54,1869414,3914.000,1934.000,7554.000,248.000,298.000,-215.000,0.000,11.940,1
2026-01-31 16:11:54,1869454,4172.000,1750.000,6610.000,713.000,134.000,-201.000,0.000,11.940,1
2026-01-31 16:11:54,1869494,4568.000,2706.000,6220.000,607.000,1034.000,-101.000,0.000,11.940,1
2026-01-31 16:11:54,1869534,10249.000,1678.000,7442.000,1815.000,240.000,-1325.000,0.000,11.940,1
2026-01-31 16:11:54,1869574,-1508.000,3763.000,3111.000,-746.000,1847.000,365.000,0.000,11.940,1
2026-01-31 16:11:54,1869614,6898.000,4228.000,6141.000,-599.000,-1029.000,-767.000,0.000,11.940,1
2026-01-31 16:11:54,1869654,5382.000,2004.000,3185.000,-2739.000,-259.000,-269.000,0.000,11.940,1
2026-01-31 16:11:54,1869694,-592.000,7852.000,4926.000,67.000,6512.000,-671.000,0.000,11.940,1
2026-01-31 16:11:54,1869734,6027.000,856.000,2353.000,891.000,139.000,-476.000,0.000,11.940,1
2026-01-31 16:11:54,1869774,9902.000,-2764.000,10015.000,-3555.000,2357.000,-3746.000,0.000,11.940,1
2026-01-31 16:11:54,1869814,608.000,2999.000,8210.000,993.000,2165.000,1510.000,0.000,11.940,1
2026-01-31 16:11:54,1869854,6846.000,3528.000,9933.000,1648.000,-315.000,-688.000,0.000,11.940,1
2026-01-31 16:11:54,1869897,3026.000,1938.000,5724.000,-2725.000,61.000,1291.000,0.000,11.940,1
2026-01-31 16:11:54,1869936,3319.000,3098.000,5444.000,-1783.000,340.000,640.000,0.000,11.940,1
2026-01-31 16:11:54,1869974,3991.000,1428.000,4815.000,-1463.000,443.000,12.000,0.000,11.940,1
2026-01-31 16:11:54,1870014,8216.000,3153.000,7612.000,2171.000,-56.000,-891.000,0.000,11.940,1
2026-01-31 16:11:54,1870054,-232.000,1539.000,7796.000,-2753.000,1248.000,1447.000,0.000,11.940,1
2026-01-31 16:11:54,1870094,6229.000,6362.000,7961.000,1873.000,-1457.000,-614.000,0.000,11.940,1
2026-01-31 16:11:54,1870134,4020.000,-1914.000,7521.000,-3538.000,-188.000,53.000,0.000,-15.410,1
2026-01-31 16:11:54,1870177,-1297.000,-1347.000,5844.000,-707.000,893.000,2910.000,0.000,-15.410,1
2026-01-31 16:11:54,1870214,-224.000,8204.000,8640.000,-754.000,-102.000,4344.000,0.000,-15.410,1
2026-01-31 16:11:54,1870254,6185.000,-1284.000,8355.000,-1696.000,-645.000,298.000,0.000,-15.410,1
2026-01-31 16:11:55,1870294,1461.000,2489.000,6070.000,-5734.000,1508.000,3625.000,0.000,-15.410,1
2026-01-31 16:11:55,1870334,2517.000,260.000,7476.000,-3046.000,-415.000,2477.000,0.000,-15.410,1
2026-01-31 16:11:55,1870374,7958.000,2126.000,7189.000,1663.000,-1831.000,2002.000,0.000,-15.410,1
2026-01-31 16:11:55,1870414,3630.000,835.000,6436.000,-1832.000,1375.000,1127.000,0.000,-15.410,1
2026-01-31 16:11:55,1870454,1472.000,2021.000,7888.000,178.000,916.000,486.000,0.000,-15.410,1
2026-01-31 16:11:55,1870494,3107.000,3277.000,5764.000,0.000,1401.000,508.000,0.000,-15.410,1
2026-01-31 16:11:55,1870534,5886.000,-354.000,5410.000,-1721.000,1613.000,259.000,0.000,-15.410,1
2026-01-31 16:11:55,1870574,3576.000,1732.000,7253.000,-326.000,554.000,315.000,0.000,-15.410,1
2026-01-31 16:11:55,1870614,5342.000,900.000,9347.000,-1356.000,-64.000,-691.000,0.000,-15.410,1
2026-01-31 16:11:55,1870654,3180.000,630.000,6787.000,-2047.000,69.000,-700.000,0.000,-15.410,1
2026-01-31 16:11:55,1870694,7190.000,-686.000,7086.000,260.000,-368.000,-1071.000,0.000,-15.410,1
2026-01-31 16:11:55,1870734,2852.000,13.000,5448.000,-71.000,206.000,-1739.000,0.000,-15.410,1
2026-01-31 16:11:55,1870774,3079.000,1476.000,8677.000,-748.000,-592.000,-1431.000,0.000,-15.410,1
2026-01-31 16:11:55,1870814,3477.000,242.000,6290.000,-2603.000,-118.000,-1371.000,0.000,-15.410,1
2026-01-31 16:11:55,1870854,2779.000,7.000,6581.000,-1360.000,20.000,-2056.000,0.000,-15.410,1
2026-01-31 16:11:55,1870894,6622.000,659.000,6446.000,571.000,-807.000,-2527.000,0.000,-15.410,1
2026-01-31 16:11:55,1870934,3026.000,798.000,7151.000,28.000,-55.000,-2610.000,0.000,-15.410,1
2026-01-31 16:11:55,1870974,5974.000,851.000,7167.000,1238.000,131.000,-2311.000,0.000,-15.410,1
2026-01-31 16:11:55,1871014,5042.000,956.000,6485.000,1289.000,243.000,-2117.000,0.000,-15.410,1
2026-01-31 16:11:55,1871054,3533.000,784.000,7321.000,1723.000,412.000,-1047.000,0.000,-15.410,1
2026-01-31 16:11:55,1871094,4216.000,1912.000,7461.000,1254.000,-211.000,-296.000,0.000,-15.410,1
2026-01-31 16:11:55,1871134,4860.000,3044.000,7236.000,-174.000,-237.000,-539.000,0.000,-12.660,1
2026-01-31 16:11:55,1871174,3150.000,2150.000,7176.000,-117.000,360.000,-410.000,0.000,-12.660,1
2026-01-31 16:11:55,1871214,4911.000,2395.000,8150.000,361.000,375.000,-468.000,0.000,-12.660,1
2026-01-31 16:11:55,1871254,1716.000,2176.000,7638.000,-1028.000,923.000,156.000,0.000,-12.660,1
2026-01-31 16:11:56,1871294,3389.000,3979.000,7501.000,-1646.000,646.000,260.000,0.000,-12.660,1
2026-01-31 16:11:56,1871334,3029.000,1675.000,7249.000,-2478.000,485.000,520.000,0.000,-12.660,1
2026-01-31 16:11:56,1871374,5342.000,977.000,7055.000,-1082.000,151.000,248.000,0.000,-12.660,1
2026-01-31 16:11:56,1871414,3720.000,1676.000,7037.000,-2609.000,117.000,601.000,0.000,-12.660,1
2026-01-31 16:11:56,1871454,3947.000,975.000,7148.000,-2791.000,77.000,643.000,0.000,-12.660,1
2026-01-31 16:11:56,1871494,5151.000,-249.000,6479.000,-1676.000,-26.000,630.000,0.000,-12.660,1
2026-01-31 16:11:56,1871534,5843.000,176.000,7073.000,-755.000,129.000,654.000,0.000,-12.660,1
2026-01-31 16:11:56,1871574,2110.000,203.000,7088.000,-1694.000,311.000,737.000,0.000,-12.660,1
2026-01-31 16:11:56,1871614,3630.000,702.000,7911.000,-661.000,-312.000,-170.000,0.000,-12.660,1
2026-01-31 16:11:56,1871654,4582.000,198.000,6781.000,-1312.000,-753.000,-97.000,0.000,-12.660,1
2026-01-31 16:11:56,1871694,4677.000,-426.000,6811.000,-2102.000,348.000,-108.000,0.000,-12.660,1
2026-01-31 16:11:56,1871734,3341.000,858.000,6430.000,-638.000,861.000,-65.000,0.000,-12.660,1
2026-01-31 16:11:56,1871774,6654.000,-2025.000,7392.000,843.000,675.000,-75.000,0.000,-12.660,1
2026-01-31 16:11:56,1871814,3095.000,134.000,6704.000,585.000,736.000,-660.000,0.000,-12.660,1
2026-01-31 16:11:56,1871855,6232.000,-1017.000,7139.000,1588.000,-384.000,-862.000,0.000,-12.660,1
2026-01-31 16:11:56,1871894,2568.000,443.000,7248.000,-255.000,-332.000,-1610.000,0.000,-12.660,1
2026-01-31 16:11:56,1871934,4935.000,462.000,7305.000,1158.000,-559.000,-1385.000,0.000,-12.660,1
2026-01-31 16:11:56,1871974,4313.000,855.000,7325.000,1322.000,-444.000,-1760.000,0.000,-12.660,1
2026-01-31 16:11:56,1872014,1625.000,1070.000,6959.000,142.000,110.000,-2321.000,0.000,-12.660,1
2026-01-31 16:11:56,1872054,7382.000,320.000,6951.000,1838.000,-1174.000,-1923.000,0.000,-12.660,1
2026-01-31 16:11:56,1872094,3843.000,832.000,6414.000,551.000,-64.000,-2297.000,0.000,-12.660,1
2026-01-31 16:11:56,1872134,5324.000,444.000,5799.000,886.000,-791.000,-2202.000,0.000,-12.070,1
2026-01-31 16:11:56,1872177,5519.000,1644.000,6773.000,1913.000,-53.000,-1324.000,0.000,-12.070,1
2026-01-31 16:11:56,1872214,6656.000,1476.000,7317.000,2571.000,-26.000,-1637.000,0.000,-12.070,1
2026-01-31 16:11:56,1872254,2883.000,2943.000,7144.000,1629.000,402.000,-1492.000,0.000,-12.070,1
2026-01-31 16:11:57,1872294,3271.000,3024.000,7615.000,-38.000,369.000,-1252.000,0.000,-12.070,1
2026-01-31 16:11:57,1872334,3685.000,1413.000,7211.000,-54.000,160.000,-921.000,0.000,-12.070,1
2026-01-31 16:11:57,1872374,3833.000,1185.000,7174.000,-354.000,290.000,-382.000,0.000,-12.070,1
2026-01-31 16:11:57,1872414,4922.000,944.000,6868.000,-581.000,126.000,277.000,0.000,-12.070,1
2026-01-31 16:11:57,1872454,3967.000,1897.000,7293.000,-1531.000,-66.000,727.000,0.000,-12.070,1
2026-01-31 16:11:57,1872494,4083.000,2005.000,6944.000,-2243.000,-121.000,1372.000,0.000,-12.070,1
2026-01-31 16:11:57,1872534,3642.000,1166.000,6471.000,-2449.000,221.000,1690.000,0.000,-12.070,1
2026-01-31 16:11:57,1872574,6162.000,-112.000,6579.000,-538.000,-155.000,1675.000,0.000,-12.070,1
2026-01-31 16:11:57,1872614,4013.000,1289.000,7516.000,-609.000,-4.000,1824.000,0.000,-12.070,1
2026-01-31 16:11:57,1872654,4994.000,-160.000,6009.000,-1270.000,-542.000,1453.000,0.000,-12.070,1
2026-01-31 16:11:57,1872694,4094.000,829.000,6075.000,-749.000,-633.000,999.000,0.000,-12.070,1
2026-01-31 16:11:57,1872734,4880.000,91.000,7098.000,-73.000,-753.000,211.000,0.000,-12.070,1
2026-01-31 16:11:57,1872774,5425.000,505.000,6880.000,548.000,-36.000,862.000,0.000,-12.070,1
2026-01-31 16:11:57,1872814,5489.000,632.000,7213.000,570.000,247.000,786.000,0.000,-12.070,1
2026-01-31 16:11:57,1872854,3380.000,1103.000,7021.000,51.000,486.000,629.000,0.000,-12.070,1
2026-01-31 16:11:57,1872894,3815.000,396.000,7210.000,990.000,591.000,38.000,0.000,-12.070,1
2026-01-31 16:11:57,1872934,5813.000,73.000,6741.000,346.000,383.000,-206.000,0.000,-12.070,1
2026-01-31 16:11:57,1872974,4609.000,-554.000,6770.000,548.000,165.000,-872.000,0.000,-12.070,1
2026-01-31 16:11:57,1873014,4022.000,1263.000,7176.000,1126.000,-191.000,-1258.000,0.000,-12.070,1
2026-01-31 16:11:57,1873054,4231.000,556.000,6817.000,424.000,-283.000,-1480.000,0.000,-12.070,1
2026-01-31 16:11:57,1873094,5152.000,1408.000,7040.000,1065.000,-551.000,-1667.000,0.000,-12.070,1
2026-01-31 16:11:57,1873134,3440.000,1264.000,6794.000,931.000,-253.000,-1791.000,0.000,-0.790,1
2026-01-31 16:11:57,1873174,5921.000,837.000,6928.000,742.000,-432.000,-1659.000,0.000,-0.790,1
2026-01-31 16:11:57,1873214,3919.000,1172.000,6544.000,1205.000,-121.000,-1457.000,0.000,-0.790,1
2026-01-31 16:11:57,1873254,4559.000,1043.000,5720.000,1311.000,-192.000,-1061.000,0.000,-0.790,1
2026-01-31 16:11:58,1873294,6374.000,468.000,4518.000,1060.000,-747.000,-27.000,0.000,-0.790,1
2026-01-31 16:11:58,1873334,5593.000,2117.000,6726.000,4890.000,-1404.000,-103.000,0.000,-0.790,1
2026-01-31 16:11:58,1873374,5034.000,3350.000,10997.000,1483.000,-172.000,-609.000,0.000,-0.790,1
2026-01-31 16:11:58,1873414,4746.000,4502.000,9015.000,5781.000,349.000,-1471.000,0.000,-0.790,1
2026-01-31 16:11:58,1873454,2864.000,2979.000,5366.000,5065.000,1449.000,-924.000,0.000,-0.790,1
2026-01-31 16:11:58,1873494,2010.000,4500.000,4355.000,2717.000,1166.000,705.000,0.000,-0.790,1
2026-01-31 16:11:58,1873534,3290.000,3920.000,5302.000,-903.000,502.000,1412.000,0.000,-0.790,1
2026-01-31 16:11:58,1873574,4407.000,3034.000,7238.000,-3426.000,270.000,2226.000,0.000,-0.790,1
2026-01-31 16:11:58,1873614,5129.000,2445.000,6829.000,-4306.000,280.000,2526.000,0.000,-0.790,1
2026-01-31 16:11:58,1873654,4471.000,1217.000,6250.000,-4177.000,621.000,2429.000,0.000,-0.790,1
2026-01-31 16:11:58,1873694,5369.000,874.000,7450.000,-3349.000,58.000,985.000,0.000,-0.790,1
2026-01-31 16:11:58,1873734,4806.000,1729.000,6985.000,-2612.000,160.000,519.000,0.000,-0.790,1
2026-01-31 16:11:58,1873774,4834.000,2096.000,6842.000,-3315.000,354.000,628.000,0.000,-0.790,1
2026-01-31 16:11:58,1873814,4478.000,1626.000,6441.000,-3063.000,557.000,565.000,0.000,-0.790,1
2026-01-31 16:11:58,1873857,6419.000,386.000,6208.000,-2447.000,-2.000,406.000,0.000,-0.790,1
2026-01-31 16:11:58,1873896,4301.000,880.000,6933.000,-1313.000,734.000,-214.000,0.000,-0.790,1
2026-01-31 16:11:58,1873934,4745.000,616.000,6799.000,-1764.000,324.000,-360.000,0.000,-0.790,1
2026-01-31 16:11:58,1873974,5110.000,525.000,6278.000,-2487.000,194.000,-938.000,0.000,-0.790,1
2026-01-31 16:11:58,1874014,3177.000,629.000,6663.000,-1940.000,796.000,-1310.000,0.000,-0.790,1
2026-01-31 16:11:58,1874054,5170.000,659.000,7940.000,-954.000,-313.000,-1931.000,0.000,-0.790,1
2026-01-31 16:11:58,1874094,5577.000,1289.000,7640.000,-720.000,-673.000,-2216.000,0.000,-0.790,1
2026-01-31 16:11:58,1874134,3929.000,715.000,7813.000,101.000,58.000,-2543.000,0.000,7.110,1
2026-01-31 16:11:58,1874174,4264.000,563.000,6496.000,98.000,44.000,-2768.000,0.000,7.110,1
2026-01-31 16:11:58,1874214,4281.000,893.000,6328.000,926.000,78.000,-2558.000,0.000,7.110,1
2026-01-31 16:11:58,1874254,4655.000,1247.000,5823.000,1197.000,64.000,-2393.000,0.000,7.110,1
2026-01-31 16:11:59,1874294,5634.000,723.000,6465.000,1334.000,-160.000,-2267.000,0.000,7.110,1
2026-01-31 16:11:59,1874334,4907.000,536.000,7140.000,2814.000,434.000,-1760.000,0.000,7.110,1
2026-01-31 16:11:59,1874374,4635.000,754.000,7515.000,3473.000,677.000,-1714.000,0.000,7.110,1
2026-01-31 16:11:59,1874414,4665.000,3272.000,7176.000,4672.000,473.000,-1233.000,0.000,7.110,1
2026-01-31 16:11:59,1874454,4429.000,1829.000,7544.000,5815.000,353.000,-1278.000,0.000,7.110,1
2026-01-31 16:11:59,1874494,2630.000,4683.000,6493.000,6773.000,858.000,473.000,0.000,7.110,1
2026-01-31 16:11:59,1874534,3329.000,3787.000,5050.000,2026.000,424.000,848.000,0.000,7.110,1
2026-01-31 16:11:59,1874574,4250.000,3390.000,5488.000,-2369.000,-333.000,923.000,0.000,7.110,1
2026-01-31 16:11:59,1874614,4826.000,2747.000,6796.000,-987.000,-180.000,1709.000,0.000,7.110,1
2026-01-31 16:11:59,1874654,2669.000,3230.000,6800.000,-578.000,529.000,2411.000,0.000,7.110,1
2026-01-31 16:11:59,1874694,4961.000,3182.000,6725.000,-3615.000,92.000,1578.000,0.000,7.110,1
2026-01-31 16:11:59,1874734,2827.000,518.000,6025.000,-2499.000,139.000,2381.000,0.000,7.110,1
2026-01-31 16:11:59,1874774,6262.000,340.000,6028.000,-557.000,-701.000,2027.000,0.000,7.110,1
2026-01-31 16:11:59,1874814,3545.000,1567.000,6566.000,488.000,99.000,1691.000,0.000,7.110,1
2026-01-31 16:11:59,1874854,5745.000,2192.000,7401.000,605.000,55.000,1215.000,0.000,7.110,1
2026-01-31 16:11:59,1874894,5147.000,2336.000,7127.000,-109.000,40.000,623.000,0.000,7.110,1
2026-01-31 16:11:59,1874934,4517.000,2751.000,7522.000,-126.000,21.000,368.000,0.000,7.110,1
2026-01-31 16:11:59,1874974,3671.000,2455.000,6578.000,-234.000,-187.000,285.000,0.000,7.110,1
2026-01-31 16:11:59,1875014,4605.000,2145.000,6056.000,230.000,-38.000,-712.000,0.000,7.110,1
2026-01-31 16:11:59,1875054,5736.000,1325.000,6149.000,760.000,-83.000,-905.000,0.000,7.110,1
2026-01-31 16:11:59,1875094,5250.000,2150.000,7078.000,-724.000,-114.000,-1245.000,0.000,7.110,1
2026-01-31 16:11:59,1875134,4032.000,1994.000,6186.000,-395.000,204.000,-1275.000,0.000,1.800,1
2026-01-31 16:11:59,1875174,3786.000,2918.000,6941.000,2210.000,257.000,-777.000,0.000,1.800,1
2026-01-31 16:11:59,1875214,3791.000,2421.000,7013.000,663.000,105.000,-763.000,0.000,1.800,1
2026-01-31 16:11:59,1875254,4734.000,2081.000,6143.000,698.000,40.000,-869.000,0.000,1.800,1
2026-01-31 16:12:00,1875294,5792.000,2960.000,6103.000,1297.000,-188.000,-1462.000,0.000,1.800,1
2026-01-31 16:12:00,1875334,3476.000,3021.000,5743.000,-220.000,-241.000,-1263.000,0.000,1.800,1
2026-01-31 16:12:00,1875374,5158.000,2358.000,6258.000,-542.000,-111.000,-1185.000,0.000,1.800,1
2026-01-31 16:12:00,1875414,4313.000,2390.000,5965.000,-89.000,54.000,-528.000,0.000,1.800,1
2026-01-31 16:12:00,1875454,4274.000,2935.000,6606.000,613.000,33.000,-395.000,0.000,1.800,1
2026-01-31 16:12:00,1875494,4515.000,3912.000,7072.000,-392.000,144.000,227.000,0.000,1.800,1
2026-01-31 16:12:00,1875534,3928.000,2825.000,6987.000,-1463.000,89.000,677.000,0.000,1.800,1
2026-01-31 16:12:00,1875574,3391.000,2661.000,6534.000,-1406.000,-56.000,861.000,0.000,1.800,1
2026-01-31 16:12:00,1875614,4934.000,1765.000,6718.000,-671.000,-243.000,428.000,0.000,1.800,1
2026-01-31 16:12:00,1875654,3021.000,2413.000,6891.000,-1098.000,64.000,896.000,0.000,1.800,1
2026-01-31 16:12:00,1875694,4460.000,2887.000,6825.000,-788.000,-136.000,902.000,0.000,1.800,1
2026-01-31 16:12:00,1875734,5445.000,2571.000,6715.000,-638.000,-30.000,1130.000,0.000,1.800,1
2026-01-31 16:12:00,1875774,3365.000,1871.000,6818.000,-918.000,180.000,1377.000,0.000,1.800,1
2026-01-31 16:12:00,1875814,4904.000,1103.000,6443.000,-881.000,-166.000,973.000,0.000,1.800,1
2026-01-31 16:12:00,1875854,4692.000,1191.000,6373.000,-643.000,-166.000,853.000,0.000,1.800,1
2026-01-31 16:12:00,1875897,5434.000,1493.000,6844.000,-569.000,-145.000,196.000,0.000,1.800,1
2026-01-31 16:12:00,1875937,4457.000,2231.000,6362.000,150.000,296.000,44.000,0.000,1.800,1
2026-01-31 16:12:00,1875974,3875.000,2304.000,5925.000,470.000,510.000,-104.000,0.000,1.800,1
2026-01-31 16:12:00,1876014,3384.000,2613.000,6294.000,1093.000,935.000,20.000,0.000,1.800,1
2026-01-31 16:12:00,1876054,4146.000,2181.000,7085.000,1574.000,796.000,104.000,0.000,1.800,1
2026-01-31 16:12:00,1876094,4523.000,2309.000,7496.000,1295.000,314.000,-147.000,0.000,1.800,1
2026-01-31 16:12:00,1876134,4799.000,1585.000,6576.000,-583.000,-491.000,-513.000,0.000,10.590,1
2026-01-31 16:12:00,1876177,5732.000,1447.000,6343.000,-68.000,-915.000,-1586.000,0.000,10.590,1
2026-01-31 16:12:00,1876214,4390.000,1674.000,6523.000,-706.000,-1051.000,-1434.000,0.000,10.590,1
2026-01-31 16:12:00,1876254,4462.000,3488.000,7200.000,1087.000,-388.000,-1572.000,0.000,10.590,1
2026-01-31 16:12:01,1876294,4578.000,2382.000,6621.000,486.000,-163.000,-956.000,0.000,10.590,1
2026-01-31 16:12:01,1876334,3684.000,3116.000,6213.000,709.000,176.000,-897.000,0.000,10.590,1
2026-01-31 16:12:01,1876374,4505.000,2792.000,6043.000,1050.000,321.000,-687.000,0.000,10.590,1
2026-01-31 16:12:01,1876414,3865.000,2527.000,6296.000,1272.000,461.000,-350.000,0.000,10.590,1
2026-01-31 16:12:01,1876454,6091.000,2409.000,7060.000,1045.000,-34.000,-428.000,0.000,10.590,1
2026-01-31 16:12:01,1876494,3595.000,2809.000,6711.000,-444.000,105.000,6.000,0.000,10.590,1
2026-01-31 16:12:01,1876534,4112.000,3434.000,6682.000,-73.000,-141.000,-157.000,0.000,10.590,1
2026-01-31 16:12:01,1876574,4475.000,4081.000,6888.000,359.000,-99.000,-30.000,0.000,10.590,1
2026-01-31 16:12:01,1876614,4972.000,2849.000,6853.000,-223.000,207.000,215.000,0.000,10.590,1
2026-01-31 16:12:01,1876654,3538.000,3493.000,7407.000,-134.000,367.000,809.000,0.000,10.590,1
2026-01-31 16:12:01,1876694,4268.000,2667.000,7085.000,-705.000,286.000,946.000,0.000,10.590,1
2026-01-31 16:12:01,1876734,3693.000,2646.000,6530.000,-1234.000,314.000,1101.000,0.000,10.590,1
2026-01-31 16:12:01,1876774,4908.000,2470.000,6483.000,-769.000,55.000,839.000,0.000,10.590,1
2026-01-31 16:12:01,1876814,4465.000,2702.000,6768.000,-777.000,105.000,1303.000,0.000,10.590,1
2026-01-31 16:12:01,1876854,4566.000,2200.000,7041.000,-1093.000,-87.000,1157.000,0.000,10.590,1
2026-01-31 16:12:01,1876894,3811.000,1504.000,6723.000,-1764.000,-139.000,1044.000,0.000,10.590,1
2026-01-31 16:12:01,1876934,5709.000,1564.000,6399.000,-979.000,-242.000,590.000,0.000,10.590,1
2026-01-31 16:12:01,1876974,3322.000,2591.000,5832.000,-800.000,457.000,557.000,0.000,10.590,1
2026-01-31 16:12:01,1877014,4561.000,2555.000,6885.000,82.000,796.000,518.000,0.000,10.590,1
2026-01-31 16:12:01,1877054,3666.000,1639.000,6588.000,9.000,603.000,682.000,0.000,10.590,1
2026-01-31 16:12:01,1877094,5993.000,791.000,7048.000,129.000,201.000,222.000,0.000,10.590,1
2026-01-31 16:12:01,1877134,4092.000,1085.000,5812.000,-467.000,52.000,-379.000,0.000,6.270,1
2026-01-31 16:12:01,1877174,5099.000,1076.000,6342.000,278.000,-241.000,-1064.000,0.000,6.270,1
2026-01-31 16:12:01,1877214,4636.000,2534.000,7057.000,1010.000,-339.000,-1093.000,0.000,6.270,1
2026-01-31 16:12:01,1877254,3532.000,2524.000,7200.000,403.000,-390.000,-1067.000,0.000,6.270,1
2026-01-31 16:12:02,1877294,4685.000,1897.000,6919.000,-40.000,-663.000,-1127.000,0.000,6.270,1
2026-01-31 16:12:02,1877334,3952.000,2428.000,6506.000,-159.000,-555.000,-1193.000,0.000,6.270,1
2026-01-31 16:12:02,1877374,4948.000,1651.000,6149.000,7.000,-525.000,-1271.000,0.000,6.270,1
2026-01-31 16:12:02,1877414,4480.000,2390.000,5949.000,1350.000,224.000,-1445.000,0.000,6.270,1
2026-01-31 16:12:02,1877454,5824.000,1909.000,6300.000,1569.000,108.000,-1326.000,0.000,6.270,1
2026-01-31 16:12:02,1877494,4419.000,2459.000,6465.000,1516.000,289.000,-933.000,0.000,6.270,1
2026-01-31 16:12:02,1877534,4974.000,2499.000,6519.000,1102.000,15.000,-782.000,0.000,6.270,1
2026-01-31 16:12:02,1877574,5492.000,2877.000,6528.000,997.000,-143.000,-565.000,0.000,6.270,1
2026-01-31 16:12:02,1877614,3046.000,3361.000,6798.000,254.000,89.000,5.000,0.000,6.270,1
2026-01-31 16:12:02,1877654,4766.000,3277.000,6795.000,410.000,-286.000,40.000,0.000,6.270,1
2026-01-31 16:12:02,1877694,2823.000,2146.000,7048.000,-473.000,96.000,373.000,0.000,6.270,1
2026-01-31 16:12:02,1877734,4898.000,2493.000,6758.000,-249.000,19.000,75.000,0.000,6.270,1
2026-01-31 16:12:02,1877774,3896.000,3632.000,6845.000,-233.000,320.000,831.000,0.000,6.270,1
2026-01-31 16:12:02,1877814,3829.000,2884.000,6877.000,-847.000,162.000,1249.000,0.000,6.270,1
2026-01-31 16:12:02,1877854,4311.000,2830.000,6629.000,-1270.000,-96.000,1510.000,0.000,6.270,1
2026-01-31 16:12:02,1877897,3971.000,2218.000,6740.000,-1425.000,50.000,1194.000,0.000,6.270,1
2026-01-31 16:12:02,1877936,3912.000,1334.000,6593.000,-2063.000,182.000,1326.000,0.000,6.270,1
2026-01-31 16:12:02,1877974,4906.000,1680.000,6228.000,-1262.000,132.000,1404.000,0.000,6.270,1
2026-01-31 16:12:02,1878014,3839.000,1713.000,6214.000,-620.000,346.000,1381.000,0.000,6.270,1
2026-01-31 16:12:02,1878054,6371.000,2332.000,6667.000,114.000,-93.000,1119.000,0.000,6.270,1
2026-01-31 16:12:02,1878094,4408.000,1631.000,6715.000,-736.000,562.000,991.000,0.000,6.270,1
2026-01-31 16:12:02,1878134,4955.000,590.000,6045.000,-293.000,340.000,835.000,0.000,1.820,1
2026-01-31 16:12:02,1878177,2882.000,1826.000,6537.000,31.000,341.000,-229.000,0.000,1.820,1
2026-01-31 16:12:02,1878214,5142.000,1065.000,6324.000,470.000,-312.000,-235.000,0.000,1.820,1
2026-01-31 16:12:02,1878254,3890.000,2039.000,6927.000,411.000,-279.000,-624.000,0.000,1.820,1
2026-01-31 16:12:03,1878294,4382.000,2081.000,7220.000,127.000,-433.000,-775.000,0.000,1.820,1
2026-01-31 16:12:03,1878334,4244.000,2185.000,7438.000,339.000,-606.000,-1233.000,0.000,1.820,1
2026-01-31 16:12:03,1878374,3371.000,2181.000,6559.000,-192.000,-404.000,-1320.000,0.000,1.820,1
2026-01-31 16:12:03,1878414,5265.000,2172.000,6711.000,748.000,-389.000,-1512.000,0.000,1.820,1
2026-01-31 16:12:03,1878454,4153.000,2700.000,6557.000,1163.000,-18.000,-1591.000,0.000,1.820,1
2026-01-31 16:12:03,1878494,5987.000,2107.000,6515.000,2051.000,-186.000,-1722.000,0.000,1.820,1
2026-01-31 16:12:03,1878534,3620.000,2197.000,6300.000,1177.000,-154.000,-1075.000,0.000,1.820,1
2026-01-31 16:12:03,1878574,5268.000,3517.000,6531.000,710.000,-181.000,-573.000,0.000,1.820,1
2026-01-31 16:12:03,1878614,3585.000,2037.000,6275.000,482.000,-10.000,-258.000,0.000,1.820,1
2026-01-31 16:12:03,1878654,4557.000,2923.000,6122.000,792.000,98.000,-691.000,0.000,1.820,1
2026-01-31 16:12:03,1878694,4718.000,3795.000,7429.000,945.000,297.000,-296.000,0.000,1.820,1
2026-01-31 16:12:03,1878734,2615.000,3270.000,7227.000,351.000,506.000,330.000,0.000,1.820,1
2026-01-31 16:12:03,1878774,3622.000,2169.000,7208.000,-620.000,320.000,308.000,0.000,1.820,1
2026-01-31 16:12:03,1878814,3683.000,2349.000,6518.000,-562.000,72.000,916.000,0.000,1.820,1
2026-01-31 16:12:03,1878854,3986.000,4107.000,6569.000,-965.000,-31.000,1300.000,0.000,1.820,1
2026-01-31 16:12:03,1878894,5021.000,1492.000,6933.000,-1415.000,37.000,1117.000,0.000,1.820,1
2026-01-31 16:12:03,1878934,4048.000,1824.000,5911.000,-1836.000,529.000,1585.000,0.000,1.820,1
2026-01-31 16:12:03,1878974,4726.000,2988.000,6458.000,-472.000,605.000,1763.000,0.000,1.820,1
2026-01-31 16:12:03,1879014,4435.000,2749.000,6818.000,-751.000,675.000,1875.000,0.000,1.820,1
2026-01-31 16:12:03,1879054,5445.000,1585.000,6507.000,-1072.000,23.000,1734.000,0.000,1.820,1
2026-01-31 16:12:03,1879094,4222.000,1642.000,6213.000,-1354.000,-242.000,1118.000,0.000,1.820,1
2026-01-31 16:12:03,1879134,4009.000,1389.000,6659.000,-1551.000,43.000,906.000,0.000,2.120,1
2026-01-31 16:12:03,1879174,4184.000,1379.000,6869.000,-1236.000,706.000,805.000,0.000,2.120,1
2026-01-31 16:12:03,1879214,2920.000,438.000,5911.000,-498.000,981.000,559.000,0.000,2.120,1
2026-01-31 16:12:03,1879254,5969.000,896.000,7153.000,1201.000,-36.000,10.000,0.000,2.120,1
2026-01-31 16:12:04,1879294,4044.000,2135.000,7517.000,-426.000,-330.000,-627.000,0.000,2.120,1
2026-01-31 16:12:04,1879334,2559.000,1405.000,6684.000,-969.000,-137.000,-1191.000,0.000,2.120,1
2026-01-31 16:12:04,1879374,3735.000,1968.000,6895.000,-1.000,-571.000,-1158.000,0.000,2.120,1
2026-01-31 16:12:04,1879414,3470.000,1798.000,6967.000,-146.000,-437.000,-1257.000,0.000,2.120,1
2026-01-31 16:12:04,1879454,4669.000,2059.000,6366.000,463.000,-276.000,-1278.000,0.000,2.120,1
2026-01-31 16:12:04,1879494,4711.000,1335.000,6714.000,580.000,150.000,-1384.000,0.000,2.120,1
2026-01-31 16:12:04,1879534,4327.000,1743.000,6726.000,1079.000,189.000,-1209.000,0.000,2.120,1
2026-01-31 16:12:04,1879574,4195.000,2478.000,6662.000,1084.000,117.000,-953.000,0.000,2.120,1
2026-01-31 16:12:04,1879614,5071.000,2175.000,6658.000,1049.000,-17.000,-583.000,0.000,2.120,1
2026-01-31 16:12:04,1879654,6337.000,1724.000,6499.000,1024.000,-365.000,-355.000,0.000,2.120,1
2026-01-31 16:12:04,1879694,3843.000,1915.000,6995.000,690.000,-130.000,-524.000,0.000,2.120,1
2026-01-31 16:12:04,1879734,3135.000,2028.000,6152.000,-20.000,-55.000,108.000,0.000,2.120,1
2026-01-31 16:12:04,1879774,4899.000,2937.000,6694.000,418.000,-79.000,-256.000,0.000,2.120,1
2026-01-31 16:12:04,1879814,4023.000,2774.000,7578.000,559.000,433.000,119.000,0.000,2.120,1
2026-01-31 16:12:04,1879854,2421.000,2768.000,7114.000,-170.000,517.000,1113.000,0.000,2.120,1
2026-01-31 16:12:04,1879897,3853.000,1291.000,8029.000,-1118.000,329.000,951.000,0.000,2.120,1
2026-01-31 16:12:04,1879934,2120.000,2475.000,7212.000,-1282.000,846.000,1208.000,0.000,2.120,1
2026-01-31 16:12:04,1879974,5129.000,2520.000,6924.000,-645.000,-165.000,909.000,0.000,2.120,1
2026-01-31 16:12:04,1880014,2873.000,1778.000,6318.000,-1576.000,24.000,1359.000,0.000,2.120,1
2026-01-31 16:12:04,1880054,7805.000,1421.000,6925.000,304.000,-712.000,844.000,0.000,2.120,1
2026-01-31 16:12:04,1880094,5753.000,239.000,6449.000,-1270.000,-437.000,484.000,0.000,2.120,1
