datetime_local,uptime_ms,acc_x,acc_y,acc_z,gyro_x,gyro_y,gyro_z,speed_mps,turn_rate_deg_s,gps_valid
2026-01-31 15:44:29,225214,548.000,1490.000,8614.000,486.000,-110.000,-163.000,0.000,0.000,0
2026-01-31 15:44:29,225260,363.000,491.000,8255.000,62.000,-20.000,25.000,0.000,0.000,0
2026-01-31 15:44:30,225294,436.000,1144.000,8315.000,364.000,24.000,38.000,0.000,0.000,0
2026-01-31 15:44:30,225334,410.000,416.000,8153.000,-414.000,11.000,86.000,0.000,0.000,0
2026-01-31 15:44:30,225374,510.000,1044.000,8284.000,387.000,8.000,68.000,0.000,0.000,0
2026-01-31 15:44:30,225414,377.000,729.000,8284.000,-381.000,-68.000,-13.000,0.000,0.000,0
2026-01-31 15:44:30,225454,434.000,872.000,8407.000,-93.000,-256.000,-40.000,0.000,0.000,0
2026-01-31 15:44:30,225494,490.000,502.000,8424.000,-346.000,-197.000,27.000,0.000,0.000,0
2026-01-31 15:44:30,225534,550.000,706.000,8531.000,17.000,-72.000,40.000,0.000,0.000,0
2026-01-31 15:44:30,225574,468.000,643.000,8409.000,-42.000,134.000,-21.000,0.000,0.000,0
2026-01-31 15:44:30,225614,339.000,779.000,8347.000,-14.000,208.000,-55.000,0.000,0.000,0
2026-01-31 15:44:30,225657,448.000,641.000,8275.000,-28.000,110.000,-124.000,0.000,0.000,0
2026-01-31 15:44:30,225697,514.000,562.000,8285.000,-145.000,80.000,-117.000,0.000,0.000,0
2026-01-31 15:44:30,225734,542.000,508.000,8244.000,-96.000,62.000,-87.000,0.000,0.000,0
2026-01-31 15:44:30,225774,467.000,775.000,8300.000,11.000,50.000,-45.000,0.000,0.000,0
2026-01-31 15:44:30,225817,591.000,557.000,8249.000,-34.000,-91.000,-38.000,0.000,0.000,0
2026-01-31 15:44:30,225857,558.000,537.000,8321.000,-197.000,-104.000,-22.000,0.000,0.000,0
2026-01-31 15:44:30,225896,529.000,582.000,8327.000,-19.000,-75.000,-10.000,0.000,0.000,0
2026-01-31 15:44:30,225936,463.000,623.000,8352.000,-48.000,-54.000,12.000,0.000,0.000,0
2026-01-31 15:44:30,225978,531.000,742.000,8356.000,30.000,23.000,54.000,0.000,0.000,0
2026-01-31 15:44:30,226017,484.000,471.000,8342.000,-172.000,20.000,19.000,0.000,0.000,0
2026-01-31 15:44:30,226056,548.000,689.000,8367.000,170.000,40.000,23.000,0.000,0.000,0
2026-01-31 15:44:30,226096,541.000,699.000,8335.000,63.000,54.000,-2.000,0.000,0.000,0
2026-01-31 15:44:30,226134,482.000,562.000,8360.000,-58.000,33.000,29.000,0.000,0.000,0
2026-01-31 15:44:30,226174,577.000,662.000,8346.000,91.000,39.000,-3.000,0.000,0.000,0
2026-01-31 15:44:30,226214,454.000,522.000,8369.000,-107.000,9.000,-13.000,0.000,0.000,0
2026-01-31 15:44:30,226254,543.000,569.000,8348.000,-67.000,-29.000,-44.000,0.000,0.000,0
2026-01-31 15:44:31,226294,503.000,660.000,8355.000,28.000,1.000,-3.000,0.000,0.000,0
2026-01-31 15:44:31,226344,502.000,479.000,8354.000,-50.000,-4.000,-44.000,0.000,0.000,0
2026-01-31 15:44:31,226374,546.000,600.000,8341.000,44.000,2.000,-76.000,0.000,0.000,0
2026-01-31 15:44:31,226414,535.000,599.000,8311.000,-91.000,3.000,-36.000,0.000,0.000,0
2026-01-31 15:44:31,226454,527.000,622.000,8356.000,-4.000,17.000,-21.000,0.000,0.000,0
2026-01-31 15:44:31,226494,607.000,524.000,8357.000,-58.000,6.000,-12.000,0.000,0.000,0
2026-01-31 15:44:31,226534,590.000,636.000,8314.000,25.000,31.000,8.000,0.000,0.000,0
2026-01-31 15:44:31,226574,481.000,575.000,8292.000,-144.000,94.000,-22.000,0.000,0.000,0
2026-01-31 15:44:31,226614,346.000,757.000,8347.000,89.000,89.000,-34.000,0.000,0.000,0
2026-01-31 15:44:31,226654,491.000,613.000,8280.000,-85.000,35.000,-85.000,0.000,0.000,0
2026-01-31 15:44:31,226694,538.000,572.000,8357.000,39.000,3.000,-99.000,0.000,0.000,0
2026-01-31 15:44:31,226734,548.000,496.000,8350.000,-16.000,16.000,-24.000,0.000,0.000,0
2026-01-31 15:44:31,226774,598.000,620.000,8356.000,85.000,31.000,-30.000,0.000,0.000,0
2026-01-31 15:44:31,226814,448.000,617.000,8300.000,39.000,31.000,-26.000,0.000,0.000,0
2026-01-31 15:44:31,226854,388.000,664.000,8308.000,71.000,19.000,-87.000,0.000,0.000,0
2026-01-31 15:44:31,226894,200.000,650.000,8384.000,72.000,135.000,-157.000,0.000,0.000,0
2026-01-31 15:44:31,226934,-208.000,658.000,8217.000,328.000,235.000,-195.000,0.000,0.000,0
2026-01-31 15:44:31,226974,-169.000,446.000,8164.000,214.000,179.000,-489.000,0.000,0.000,0
2026-01-31 15:44:31,227014,83.000,885.000,8302.000,-30.000,-139.000,-898.000,0.000,0.000,0
2026-01-31 15:44:31,227057,753.000,691.000,8372.000,-33.000,-439.000,-884.000,0.000,0.000,0
2026-01-31 15:44:31,227094,559.000,878.000,8326.000,-3.000,-545.000,-824.000,0.000,0.000,0
2026-01-31 15:44:31,227134,384.000,661.000,8303.000,-55.000,-723.000,-756.000,0.000,0.000,0
2026-01-31 15:44:31,227174,503.000,1329.000,7819.000,832.000,-590.000,-524.000,0.000,0.000,0
2026-01-31 15:44:31,227214,319.000,520.000,7756.000,727.000,-68.000,-112.000,0.000,0.000,0
2026-01-31 15:44:31,227254,48.000,615.000,7035.000,2730.000,174.000,441.000,0.000,0.000,0
2026-01-31 15:44:32,227294,-358.000,552.000,6703.000,4103.000,150.000,977.000,0.000,0.000,0
2026-01-31 15:44:32,227334,-1027.000,342.000,6259.000,6893.000,318.000,2556.000,0.000,0.000,0
2026-01-31 15:44:32,227374,253.000,2873.000,6405.000,10923.000,319.000,3787.000,0.000,0.000,0
2026-01-31 15:44:32,227414,-1646.000,4210.000,6746.000,6094.000,50.000,3160.000,0.000,0.000,0
2026-01-31 15:44:32,227454,-1877.000,4348.000,7793.000,3694.000,-1795.000,4478.000,0.000,0.000,0
2026-01-31 15:44:32,227494,455.000,4613.000,7035.000,1909.000,-3243.000,2248.000,0.000,0.000,0
2026-01-31 15:44:32,227534,800.000,4625.000,5958.000,1566.000,-3863.000,1641.000,0.000,0.000,0
2026-01-31 15:44:32,227574,2177.000,4428.000,6762.000,1686.000,-4574.000,2280.000,0.000,0.000,0
2026-01-31 15:44:32,227614,3405.000,5234.000,6760.000,1539.000,-3989.000,669.000,0.000,0.000,0
2026-01-31 15:44:32,227654,3308.000,3226.000,5087.000,1869.000,-3372.000,798.000,0.000,0.000,0
2026-01-31 15:44:32,227694,5012.000,6133.000,6624.000,3281.000,-2384.000,842.000,0.000,0.000,0
2026-01-31 15:44:32,227734,3990.000,3968.000,5489.000,3036.000,-2436.000,86.000,0.000,0.000,0
2026-01-31 15:44:32,227774,5942.000,5775.000,6968.000,4495.000,-1822.000,360.000,0.000,0.000,0
2026-01-31 15:44:32,227814,3380.000,4831.000,6146.000,1124.000,-156.000,-113.000,0.000,0.000,0
2026-01-31 15:44:32,227854,2557.000,7305.000,5620.000,2175.000,90.000,-562.000,0.000,0.000,0
2026-01-31 15:44:32,227894,1776.000,6857.000,5568.000,-57.000,-1007.000,-659.000,0.000,0.000,0
2026-01-31 15:44:32,227934,3018.000,9682.000,7101.000,1720.000,-1448.000,-744.000,0.000,0.000,0
2026-01-31 15:44:32,227974,2025.000,10334.000,4864.000,-1463.000,672.000,-4454.000,0.000,0.000,0
2026-01-31 15:44:32,228014,1989.000,4797.000,4976.000,-2770.000,512.000,-2848.000,0.000,0.000,0
2026-01-31 15:44:32,228054,3080.000,5654.000,3956.000,-1889.000,-208.000,-1796.000,0.000,0.000,0
2026-01-31 15:44:32,228094,2888.000,8084.000,5110.000,-787.000,-787.000,-1691.000,0.000,0.000,0
2026-01-31 15:44:32,228134,2749.000,4422.000,4506.000,-3200.000,-195.000,-1158.000,0.000,0.000,0
2026-01-31 15:44:32,228174,1845.000,7526.000,5593.000,-1774.000,-854.000,-681.000,0.000,0.000,0
2026-01-31 15:44:32,228214,1193.000,4703.000,5233.000,-3932.000,-393.000,-57.000,0.000,0.000,0
2026-01-31 15:44:32,228254,689.000,6587.000,5686.000,-1900.000,-405.000,-452.000,0.000,0.000,0
2026-01-31 15:44:33,228294,1130.000,5665.000,5696.000,-3625.000,-302.000,-201.000,0.000,0.000,0
2026-01-31 15:44:33,228334,796.000,6375.000,6509.000,-3411.000,-576.000,-66.000,0.000,0.000,0
2026-01-31 15:44:33,228374,2148.000,4764.000,5614.000,-3171.000,-531.000,-368.000,0.000,0.000,0
2026-01-31 15:44:33,228414,3234.000,5869.000,6403.000,-3370.000,-1077.000,-297.000,0.000,0.000,0
2026-01-31 15:44:33,228454,3289.000,3489.000,6848.000,-4703.000,-966.000,179.000,0.000,0.000,0
2026-01-31 15:44:33,228494,3151.000,3174.000,5759.000,-2570.000,-295.000,154.000,0.000,0.000,0
2026-01-31 15:44:33,228534,4495.000,3993.000,6207.000,-1731.000,-726.000,145.000,0.000,0.000,0
2026-01-31 15:44:33,228574,2251.000,2234.000,7145.000,-2529.000,-318.000,1019.000,0.000,0.000,0
2026-01-31 15:44:33,228614,3404.000,3334.000,6909.000,-105.000,-427.000,611.000,0.000,0.000,0
2026-01-31 15:44:33,228654,4143.000,3886.000,7122.000,-2652.000,-872.000,364.000,0.000,0.000,0
2026-01-31 15:44:33,228694,2438.000,2345.000,6652.000,-3136.000,-993.000,29.000,0.000,0.000,0
2026-01-31 15:44:33,228734,4572.000,4005.000,6292.000,-1625.000,-783.000,-619.000,0.000,0.000,0
2026-01-31 15:44:33,228774,2799.000,2504.000,6509.000,-1622.000,-238.000,-460.000,0.000,0.000,0
2026-01-31 15:44:33,228814,3392.000,3927.000,7312.000,-345.000,-398.000,-224.000,0.000,0.000,0
2026-01-31 15:44:33,228854,2736.000,2348.000,6950.000,-1173.000,-359.000,-350.000,0.000,0.000,0
2026-01-31 15:44:33,228894,3628.000,3175.000,7492.000,-623.000,-753.000,-715.000,0.000,0.000,0
2026-01-31 15:44:33,228934,3118.000,2077.000,7332.000,-1385.000,-997.000,-589.000,0.000,0.000,0
2026-01-31 15:44:33,228974,3032.000,4549.000,7182.000,-661.000,-1284.000,-856.000,0.000,0.000,0
2026-01-31 15:44:33,229014,2665.000,4213.000,6338.000,-3024.000,-1507.000,-1087.000,0.000,0.000,0
2026-01-31 15:44:33,229054,3078.000,3032.000,5726.000,-2508.000,-830.000,-1153.000,0.000,0.000,0
2026-01-31 15:44:33,229094,4244.000,3469.000,6266.000,-843.000,-420.000,-1762.000,0.000,0.000,0
2026-01-31 15:44:33,229134,3264.000,3299.000,6874.000,-589.000,252.000,-2322.000,0.000,0.000,0
2026-01-31 15:44:33,229174,4793.000,2953.000,6934.000,203.000,164.000,-2021.000,0.000,0.000,0
2026-01-31 15:44:33,229217,4846.000,3916.000,6582.000,917.000,-623.000,-2151.000,0.000,0.000,0
2026-01-31 15:44:33,229254,4913.000,3918.000,7076.000,-418.000,-930.000,-2178.000,0.000,0.000,0
2026-01-31 15:44:34,229294,3324.000,1658.000,6825.000,-1574.000,-1107.000,-2199.000,0.000,0.000,0
2026-01-31 15:44:34,229334,4195.000,2469.000,6285.000,-1634.000,-1581.000,-1876.000,0.000,0.000,0
2026-01-31 15:44:34,229374,4410.000,2416.000,6680.000,-993.000,-1506.000,-2058.000,0.000,0.000,0
2026-01-31 15:44:34,229414,4729.000,4589.000,5603.000,-2700.000,-983.000,-2990.000,0.000,0.000,0
2026-01-31 15:44:34,229454,4762.000,417.000,6459.000,-4531.000,-963.000,-3005.000,0.000,0.000,0
2026-01-31 15:44:34,229494,4486.000,4305.000,7058.000,-1222.000,-544.000,-3393.000,0.000,0.000,0
2026-01-31 15:44:34,229534,2529.000,4033.000,6124.000,-49.000,-1081.000,-3794.000,0.000,0.000,0
2026-01-31 15:44:34,229574,2452.000,4915.000,7461.000,464.000,-1102.000,-2577.000,0.000,0.000,0
2026-01-31 15:44:34,229614,4550.000,1882.000,5516.000,-281.000,-700.000,-1979.000,0.000,0.000,0
2026-01-31 15:44:34,229654,4692.000,5487.000,5600.000,2010.000,-254.000,-3378.000,0.000,0.000,0
2026-01-31 15:44:34,229694,2566.000,3775.000,5969.000,-1744.000,307.000,-3422.000,0.000,0.000,0
2026-01-31 15:44:34,229734,3182.000,6541.000,6459.000,368.000,-184.000,-3648.000,0.000,0.000,0
2026-01-31 15:44:34,229774,2352.000,4477.000,5720.000,-249.000,381.000,-4046.000,0.000,0.000,0
2026-01-31 15:44:34,229814,1954.000,5491.000,5553.000,1271.000,-331.000,-3876.000,0.000,0.000,0
2026-01-31 15:44:34,229854,3332.000,5463.000,5921.000,505.000,-893.000,-3268.000,0.000,0.000,0
2026-01-31 15:44:34,229894,2289.000,5324.000,6334.000,1490.000,-708.000,-3982.000,0.000,0.000,0
2026-01-31 15:44:34,229934,1775.000,5790.000,5816.000,890.000,-1033.000,-3085.000,0.000,0.000,0
2026-01-31 15:44:34,229974,2781.000,6391.000,5727.000,393.000,-1872.000,-2702.000,0.000,0.000,0
2026-01-31 15:44:34,230014,2779.000,5451.000,6179.000,-885.000,-1587.000,-3019.000,0.000,0.000,0
2026-01-31 15:44:34,230054,1853.000,6527.000,5537.000,-1065.000,-2136.000,-2287.000,0.000,0.000,0
2026-01-31 15:44:34,230094,3493.000,6272.000,5793.000,-1835.000,-2539.000,-2099.000,0.000,0.000,0
2026-01-31 15:44:34,230134,2738.000,4166.000,5671.000,-2190.000,-1341.000,-2263.000,0.000,0.000,0
2026-01-31 15:44:34,230174,3421.000,4860.000,5019.000,-302.000,-1870.000,-2053.000,0.000,0.000,0
2026-01-31 15:44:34,230214,3563.000,5878.000,6369.000,-1492.000,-1797.000,-1984.000,0.000,0.000,0
2026-01-31 15:44:34,230254,3051.000,4384.000,5611.000,-1103.000,-1388.000,-1689.000,0.000,0.000,0
2026-01-31 15:44:35,230294,2381.000,5160.000,5198.000,515.000,-1577.000,-1297.000,0.000,0.000,0
2026-01-31 15:44:35,230334,3277.000,5936.000,5945.000,-842.000,-1627.000,-935.000,0.000,0.000,0
2026-01-31 15:44:35,230374,2595.000,5035.000,5109.000,-545.000,-1569.000,-1128.000,0.000,0.000,0
2026-01-31 15:44:35,230414,3834.000,5235.000,5986.000,-959.000,-1586.000,-1534.000,0.000,0.000,0
2026-01-31 15:44:35,230454,2325.000,3867.000,5384.000,234.000,-830.000,-1903.000,0.000,0.000,0
2026-01-31 15:44:35,230494,3811.000,5610.000,5910.000,-890.000,-273.000,-928.000,0.000,0.000,0
2026-01-31 15:44:35,230534,2479.000,4651.000,6501.000,403.000,-54.000,-1083.000,0.000,0.000,0
2026-01-31 15:44:35,230574,3875.000,7725.000,6946.000,271.000,-1073.000,-163.000,0.000,0.000,0
2026-01-31 15:44:35,230614,3063.000,5064.000,5883.000,-1995.000,-1405.000,-656.000,0.000,0.000,0
2026-01-31 15:44:35,230654,3822.000,5850.000,5658.000,-2562.000,-2558.000,-556.000,0.000,0.000,0
2026-01-31 15:44:35,230694,2299.000,5433.000,5335.000,-5114.000,-2526.000,-68.000,0.000,0.000,0
2026-01-31 15:44:35,230734,4341.000,3895.000,5039.000,-3315.000,-1597.000,-433.000,0.000,0.000,0
2026-01-31 15:44:35,230774,2969.000,4872.000,5667.000,-1406.000,-1541.000,-901.000,0.000,0.000,0
2026-01-31 15:44:35,230814,4565.000,5344.000,6007.000,-2525.000,-1034.000,-241.000,0.000,0.000,0
2026-01-31 15:44:35,230854,3151.000,2620.000,5385.000,-1638.000,-516.000,-68.000,0.000,0.000,0
2026-01-31 15:44:35,230894,3864.000,4418.000,6701.000,-2807.000,-1300.000,71.000,0.000,0.000,0
2026-01-31 15:44:35,230937,4017.000,1948.000,5841.000,-1267.000,-556.000,-784.000,0.000,0.000,0
2026-01-31 15:44:35,230977,4263.000,4288.000,5800.000,123.000,-512.000,-1672.000,0.000,0.000,0
2026-01-31 15:44:35,231014,3351.000,4123.000,6501.000,-1278.000,-824.000,-1551.000,0.000,0.000,0
2026-01-31 15:44:35,231054,3669.000,2852.000,6215.000,-927.000,-628.000,-1634.000,0.000,0.000,0
2026-01-31 15:44:35,231094,2620.000,3570.000,6533.000,463.000,-927.000,-2278.000,0.000,0.000,0
2026-01-31 15:44:35,231134,4110.000,5246.000,6572.000,-695.000,-860.000,-2046.000,0.000,0.000,0
2026-01-31 15:44:35,231174,2016.000,4399.000,6731.000,-2532.000,-986.000,-2269.000,0.000,0.000,0
2026-01-31 15:44:35,231217,3092.000,4449.000,5888.000,-1856.000,-530.000,-2003.000,0.000,0.000,0
2026-01-31 15:44:35,231254,3473.000,5086.000,5827.000,-964.000,-429.000,-2122.000,0.000,0.000,0
2026-01-31 15:44:36,231294,4138.000,4235.000,5358.000,926.000,163.000,-1956.000,0.000,0.000,0
2026-01-31 15:44:36,231334,3514.000,4042.000,5664.000,1787.000,348.000,-2542.000,0.000,0.000,0
2026-01-31 15:44:36,231374,3562.000,4884.000,5735.000,682.000,-188.000,-2027.000,0.000,0.000,0
2026-01-31 15:44:36,231414,3917.000,4616.000,7131.000,376.000,74.000,-2136.000,0.000,0.000,0
2026-01-31 15:44:36,231454,2247.000,4818.000,7423.000,704.000,-826.000,-1978.000,0.000,0.000,0
2026-01-31 15:44:36,231494,3248.000,4759.000,5867.000,-914.000,-1342.000,-2228.000,0.000,0.000,0
2026-01-31 15:44:36,231534,4423.000,4852.000,5800.000,-913.000,-932.000,-1984.000,0.000,0.000,0
2026-01-31 15:44:36,231574,3758.000,3262.000,6181.000,55.000,-642.000,-1865.000,0.000,0.000,0
2026-01-31 15:44:36,231614,2652.000,5274.000,5837.000,2006.000,-894.000,-1656.000,0.000,0.000,0
2026-01-31 15:44:36,231654,4324.000,4651.000,5234.000,-1915.000,-1805.000,-1302.000,0.000,0.000,0
2026-01-31 15:44:36,231694,3057.000,2580.000,4928.000,-370.000,-1220.000,-1628.000,0.000,0.000,0
2026-01-31 15:44:36,231734,3898.000,4654.000,6174.000,3233.000,-1173.000,-1040.000,0.000,0.000,0
2026-01-31 15:44:36,231774,4514.000,4224.000,5669.000,2314.000,-346.000,-1547.000,0.000,0.000,0
2026-01-31 15:44:36,231814,1460.000,4814.000,5635.000,936.000,-1827.000,-856.000,0.000,0.000,0
2026-01-31 15:44:36,231854,5141.000,5026.000,4894.000,882.000,-1649.000,-924.000,0.000,0.000,0
2026-01-31 15:44:36,231894,3514.000,3974.000,4798.000,879.000,-1192.000,-1262.000,0.000,0.000,0
2026-01-31 15:44:36,231934,3888.000,3796.000,5465.000,1231.000,-856.000,-1210.000,0.000,0.000,0
2026-01-31 15:44:36,231974,4020.000,2538.000,5507.000,1025.000,-506.000,-1203.000,0.000,0.000,0
2026-01-31 15:44:36,232014,6632.000,4298.000,6663.000,1711.000,-17.000,-569.000,0.000,0.000,0
2026-01-31 15:44:36,232054,4814.000,5461.000,4761.000,3764.000,-748.000,-805.000,0.000,0.000,0
2026-01-31 15:44:36,232094,4486.000,5027.000,4998.000,1698.000,825.000,-1669.000,0.000,0.000,0
2026-01-31 15:44:36,232134,1650.000,4610.000,5272.000,3993.000,1690.000,-289.000,0.000,0.000,0
2026-01-31 15:44:36,232174,3913.000,6235.000,5532.000,5255.000,1937.000,-353.000,0.000,0.000,0
2026-01-31 15:44:36,232214,2506.000,5937.000,6280.000,4176.000,2488.000,110.000,0.000,0.000,0
2026-01-31 15:44:36,232254,880.000,6287.000,6571.000,1138.000,1716.000,1495.000,0.000,0.000,0
2026-01-31 15:44:37,232294,4366.000,6370.000,6096.000,689.000,1880.000,1198.000,0.000,0.000,0
2026-01-31 15:44:37,232334,2849.000,5863.000,4894.000,611.000,1777.000,1670.000,0.000,0.000,0
2026-01-31 15:44:37,232374,3110.000,6737.000,4690.000,516.000,1800.000,1893.000,0.000,0.000,0
2026-01-31 15:44:37,232414,2345.000,6602.000,5865.000,238.000,2051.000,1827.000,0.000,0.000,0
2026-01-31 15:44:37,232454,2564.000,7074.000,6198.000,-357.000,3107.000,2149.000,0.000,0.000,0
2026-01-31 15:44:37,232494,1133.000,6462.000,5825.000,-758.000,2394.000,1457.000,0.000,0.000,0
2026-01-31 15:44:37,232534,2855.000,7880.000,4580.000,-1843.000,1336.000,1323.000,0.000,0.000,0
2026-01-31 15:44:37,232574,1244.000,6254.000,5044.000,-3294.000,679.000,1455.000,0.000,0.000,0
2026-01-31 15:44:37,232614,2726.000,6492.000,5397.000,-3075.000,512.000,1345.000,0.000,0.000,0
2026-01-31 15:44:37,232654,2357.000,4676.000,4628.000,-2593.000,924.000,1155.000,0.000,0.000,0
2026-01-31 15:44:37,232694,2536.000,6640.000,4735.000,-838.000,532.000,775.000,0.000,0.000,0
2026-01-31 15:44:37,232734,2508.000,5904.000,4582.000,-2143.000,172.000,848.000,0.000,0.000,0
2026-01-31 15:44:37,232774,4312.000,4982.000,4090.000,-1762.000,301.000,195.000,0.000,0.000,0
2026-01-31 15:44:37,232814,2874.000,5156.000,5869.000,-2349.000,-68.000,-874.000,0.000,0.000,0
2026-01-31 15:44:37,232854,2246.000,5014.000,5298.000,-2201.000,269.000,-616.000,0.000,0.000,0
2026-01-31 15:44:37,232894,3712.000,5670.000,5725.000,-2208.000,169.000,-1680.000,0.000,0.000,0
2026-01-31 15:44:37,232934,-1596.000,4010.000,4320.000,-3932.000,-643.000,-77.000,0.000,0.000,0
2026-01-31 15:44:37,232975,-8172.000,2735.000,2121.000,-3377.000,-4537.000,4403.000,0.000,0.000,0
2026-01-31 15:44:37,233014,32153.000,5072.000,-9271.000,6747.000,1892.000,-3224.000,0.000,0.000,0
2026-01-31 15:44:37,233054,-7465.000,13260.000,10836.000,-11955.000,-4584.000,6579.000,0.000,0.000,0
2026-01-31 15:44:37,233094,9714.000,5741.000,5702.000,2733.000,2582.000,-5997.000,0.000,0.000,0
2026-01-31 15:44:37,233134,-2336.000,5912.000,6958.000,-961.000,-707.000,-1282.000,0.000,0.000,0
2026-01-31 15:44:37,233174,-862.000,6295.000,4308.000,-2069.000,-1558.000,159.000,0.000,0.000,0
2026-01-31 15:44:37,233217,6039.000,3444.000,3533.000,-927.000,43.000,-2718.000,0.000,0.000,0
2026-01-31 15:44:37,233254,6171.000,4396.000,5142.000,332.000,-10.000,-2552.000,0.000,0.000,0
2026-01-31 15:44:38,233294,4683.000,3003.000,4144.000,-344.000,604.000,-3091.000,0.000,0.000,0
2026-01-31 15:44:38,233334,-2820.000,4724.000,11108.000,-259.000,-1036.000,-1017.000,0.000,0.000,0
2026-01-31 15:44:38,233374,-6625.000,5915.000,4946.000,1616.000,2713.000,-1875.000,0.000,0.000,0
2026-01-31 15:44:38,233414,19867.000,7259.000,9001.000,-2398.000,376.000,-1830.000,0.000,0.000,0
2026-01-31 15:44:38,233454,1399.000,6252.000,5171.000,-533.000,-346.000,-4692.000,0.000,0.000,0
2026-01-31 15:44:38,233494,407.000,11563.000,8472.000,731.000,-2769.000,-202.000,0.000,0.000,0
2026-01-31 15:44:38,233534,5199.000,1253.000,5596.000,-2985.000,-1464.000,-764.000,0.000,0.000,0
2026-01-31 15:44:38,233574,-1352.000,6008.000,7247.000,637.000,-1378.000,367.000,0.000,0.000,0
2026-01-31 15:44:38,233614,4667.000,3985.000,2155.000,1037.000,439.000,-232.000,0.000,0.000,0
2026-01-31 15:44:38,233654,8030.000,8737.000,8456.000,2657.000,-1515.000,-2620.000,0.000,0.000,0
2026-01-31 15:44:38,233694,357.000,4288.000,5268.000,-3533.000,-101.000,-1045.000,0.000,0.000,0
2026-01-31 15:44:38,233734,-655.000,2794.000,8487.000,-668.000,-1685.000,1665.000,0.000,0.000,0
2026-01-31 15:44:38,233774,6135.000,5745.000,6574.000,426.000,-851.000,-503.000,0.000,0.000,0
2026-01-31 15:44:38,233814,4924.000,5826.000,7291.000,-4300.000,-2780.000,-386.000,0.000,0.000,0
2026-01-31 15:44:38,233854,1374.000,3215.000,4390.000,-3269.000,-1216.000,-2457.000,0.000,0.000,0
2026-01-31 15:44:38,233894,-1348.000,8147.000,8103.000,-1439.000,-1141.000,1343.000,0.000,0.000,0
2026-01-31 15:44:38,233934,2721.000,2692.000,4770.000,-1500.000,-663.000,236.000,0.000,0.000,0
2026-01-31 15:44:38,233974,7809.000,2191.000,4614.000,-1114.000,-333.000,-884.000,0.000,0.000,0
2026-01-31 15:44:38,234014,1310.000,5530.000,6760.000,-3116.000,-817.000,-803.000,0.000,0.000,0
2026-01-31 15:44:38,234054,-1731.000,6041.000,7032.000,-1769.000,-2147.000,50.000,0.000,0.000,0
2026-01-31 15:44:38,234094,9034.000,2956.000,4928.000,-2029.000,-1134.000,-661.000,0.000,0.000,0
2026-01-31 15:44:38,234134,775.000,3898.000,5905.000,-2627.000,-1285.000,-1017.000,0.000,0.000,0
2026-01-31 15:44:38,234174,4535.000,3966.000,5538.000,-188.000,-1122.000,-1802.000,0.000,0.000,0
2026-01-31 15:44:38,234214,3351.000,4015.000,6444.000,-565.000,-1704.000,-1351.000,0.000,0.000,0
2026-01-31 15:44:38,234254,3280.000,3725.000,6266.000,1013.000,-1049.000,-2084.000,0.000,0.000,0
2026-01-31 15:44:39,234294,2978.000,4201.000,6662.000,462.000,-829.000,-1972.000,0.000,0.000,0
2026-01-31 15:44:39,234334,4692.000,3166.000,5901.000,772.000,-823.000,-2088.000,0.000,0.000,0
2026-01-31 15:44:39,234374,3002.000,4922.000,6275.000,887.000,-950.000,-2816.000,0.000,0.000,0
2026-01-31 15:44:39,234414,3841.000,4066.000,6116.000,-136.000,-1117.000,-2481.000,0.000,0.000,0
2026-01-31 15:44:39,234454,3315.000,3211.000,5083.000,1243.000,-781.000,-2814.000,0.000,0.000,0
2026-01-31 15:44:39,234494,4687.000,3389.000,4256.000,2043.000,-166.000,-3005.000,0.000,0.000,0
2026-01-31 15:44:39,234534,4842.000,3708.000,3847.000,3224.000,1049.000,-3541.000,0.000,0.000,0
2026-01-31 15:44:39,234574,582.000,4966.000,8441.000,2952.000,370.000,-153.000,0.000,0.000,0
2026-01-31 15:44:39,234614,3839.000,4449.000,4933.000,4738.000,1526.000,-3419.000,0.000,0.000,0
2026-01-31 15:44:39,234654,3886.000,5063.000,6859.000,1369.000,-24.000,-28.000,0.000,0.000,0
2026-01-31 15:44:39,234694,3097.000,4707.000,5587.000,853.000,-84.000,-1875.000,0.000,0.000,0
2026-01-31 15:44:39,234734,2363.000,5716.000,5463.000,322.000,-158.000,-683.000,0.000,0.000,0
2026-01-31 15:44:39,234774,2134.000,5708.000,5334.000,998.000,66.000,-999.000,0.000,0.000,0
2026-01-31 15:44:39,234814,971.000,6456.000,5777.000,378.000,246.000,-498.000,0.000,0.000,0
2026-01-31 15:44:39,234854,4880.000,5458.000,5743.000,1754.000,-25.000,-1067.000,0.000,0.000,0
2026-01-31 15:44:39,234894,-111.000,6500.000,6922.000,529.000,261.000,653.000,0.000,0.000,0
2026-01-31 15:44:39,234937,3107.000,6472.000,5801.000,61.000,-1226.000,-285.000,0.000,0.000,0
2026-01-31 15:44:39,234977,2173.000,5627.000,5216.000,-1424.000,-736.000,322.000,0.000,0.000,0
2026-01-31 15:44:39,235014,2681.000,5640.000,5029.000,-572.000,-847.000,41.000,0.000,0.000,0
2026-01-31 15:44:39,235054,2031.000,6644.000,5256.000,-420.000,-650.000,391.000,0.000,0.000,0
2026-01-31 15:44:39,235094,2709.000,5069.000,5307.000,-1315.000,-229.000,685.000,0.000,0.000,0
2026-01-31 15:44:39,235134,3302.000,6112.000,5604.000,-196.000,-181.000,1376.000,0.000,0.000,0
2026-01-31 15:44:39,235174,3627.000,5113.000,5633.000,-1505.000,-405.000,1309.000,0.000,0.000,0
2026-01-31 15:44:39,235214,3417.000,4556.000,4806.000,-1231.000,-309.000,1231.000,0.000,0.000,0
2026-01-31 15:44:39,235254,3669.000,5196.000,5014.000,-755.000,-433.000,1649.000,0.000,0.000,0
2026-01-31 15:44:40,235294,4702.000,4433.000,4975.000,-1104.000,80.000,1100.000,0.000,0.000,0
2026-01-31 15:44:40,235334,2213.000,5112.000,5813.000,-803.000,84.000,1309.000,0.000,0.000,0
2026-01-31 15:44:40,235374,4190.000,4202.000,5741.000,-923.000,78.000,1417.000,0.000,0.000,0
2026-01-31 15:44:40,235414,2624.000,4301.000,6123.000,-527.000,-26.000,1066.000,0.000,0.000,0
2026-01-31 15:44:40,235454,5722.000,4013.000,5736.000,-1422.000,-182.000,1335.000,0.000,0.000,0
2026-01-31 15:44:40,235494,3122.000,4289.000,5928.000,-816.000,4.000,138.000,0.000,0.000,0
2026-01-31 15:44:40,235534,4126.000,4237.000,5749.000,-447.000,-129.000,656.000,0.000,0.000,0
2026-01-31 15:44:40,235574,2981.000,4838.000,6061.000,234.000,43.000,533.000,0.000,0.000,0
2026-01-31 15:44:40,235614,4499.000,4124.000,5595.000,252.000,305.000,206.000,0.000,0.000,0
2026-01-31 15:44:40,235654,2865.000,4822.000,5997.000,207.000,56.000,21.000,0.000,0.000,0
2026-01-31 15:44:40,235694,3168.000,5326.000,6140.000,331.000,21.000,152.000,0.000,0.000,0
2026-01-31 15:44:40,235734,3467.000,5467.000,6102.000,546.000,48.000,-641.000,0.000,0.000,0
2026-01-31 15:44:40,235774,4099.000,4527.000,5881.000,-274.000,5.000,-536.000,0.000,0.000,0
2026-01-31 15:44:40,235814,2502.000,4861.000,5907.000,426.000,-15.000,-904.000,0.000,0.000,0
2026-01-31 15:44:40,235854,3290.000,6410.000,5979.000,54.000,-860.000,-716.000,0.000,0.000,0
2026-01-31 15:44:40,235894,2051.000,3883.000,5157.000,-1718.000,-552.000,-783.000,0.000,0.000,0
2026-01-31 15:44:40,235934,5966.000,5381.000,4957.000,498.000,-856.000,-1531.000,0.000,0.000,0
2026-01-31 15:44:40,235974,2250.000,4682.000,5887.000,-894.000,-960.000,-662.000,0.000,0.000,0
2026-01-31 15:44:40,236014,4538.000,4793.000,4834.000,-281.000,-351.000,-76.000,0.000,0.000,0
2026-01-31 15:44:40,236054,3925.000,4024.000,5836.000,-43.000,-258.000,9.000,0.000,0.000,0
2026-01-31 15:44:40,236094,4180.000,3573.000,5084.000,-470.000,-496.000,-482.000,0.000,0.000,0
2026-01-31 15:44:40,236134,4280.000,5155.000,5587.000,-253.000,-943.000,-1039.000,0.000,0.000,0
2026-01-31 15:44:40,236174,2147.000,5085.000,5064.000,-787.000,-506.000,-1040.000,0.000,0.000,0
2026-01-31 15:44:40,236214,3403.000,5292.000,4224.000,151.000,-406.000,-1343.000,0.000,0.000,0
2026-01-31 15:44:40,236254,3759.000,5219.000,4894.000,545.000,76.000,-873.000,0.000,0.000,0
2026-01-31 15:44:41,236294,4670.000,5155.000,6743.000,1428.000,-375.000,-695.000,0.000,0.000,0
2026-01-31 15:44:41,236334,2891.000,3707.000,6021.000,-1088.000,-1027.000,-23.000,0.000,0.000,0
2026-01-31 15:44:41,236374,3655.000,4564.000,5066.000,175.000,-854.000,-79.000,0.000,0.000,0
2026-01-31 15:44:41,236414,3769.000,5083.000,5480.000,134.000,-200.000,-80.000,0.000,0.000,0
2026-01-31 15:44:41,236454,3196.000,4744.000,5323.000,1643.000,162.000,-914.000,0.000,0.000,0
2026-01-31 15:44:41,236494,3966.000,5838.000,5579.000,53.000,-627.000,190.000,0.000,0.000,0
2026-01-31 15:44:41,236534,3515.000,4466.000,5541.000,-585.000,72.000,-633.000,0.000,0.000,0
2026-01-31 15:44:41,236574,3861.000,4960.000,5831.000,552.000,-245.000,462.000,0.000,0.000,0
2026-01-31 15:44:41,236614,4853.000,4074.000,5327.000,190.000,205.000,10.000,0.000,0.000,0
2026-01-31 15:44:41,236654,4319.000,3681.000,5394.000,-316.000,35.000,802.000,0.000,0.000,0
2026-01-31 15:44:41,236694,3415.000,5321.000,6336.000,-314.000,515.000,1324.000,0.000,0.000,0
2026-01-31 15:44:41,236734,4932.000,3948.000,5829.000,-1059.000,710.000,1377.000,0.000,0.000,0
2026-01-31 15:44:41,236774,4336.000,5764.000,4991.000,-36.000,333.000,947.000,0.000,0.000,0
2026-01-31 15:44:41,236814,4583.000,4367.000,4568.000,-918.000,367.000,1383.000,0.000,0.000,0
2026-01-31 15:44:41,236854,3547.000,4472.000,6371.000,-870.000,418.000,1523.000,0.000,0.000,0
2026-01-31 15:44:41,236894,4871.000,4213.000,6144.000,-310.000,976.000,674.000,0.000,0.000,0
2026-01-31 15:44:41,236934,2225.000,5524.000,5437.000,-696.000,320.000,482.000,0.000,0.000,0
2026-01-31 15:44:41,236977,4443.000,5026.000,5567.000,-1639.000,965.000,-177.000,0.000,0.000,0
2026-01-31 15:44:41,237016,1977.000,4262.000,5758.000,-1415.000,519.000,321.000,0.000,0.000,0
2026-01-31 15:44:41,237054,5119.000,3813.000,4694.000,-749.000,585.000,-124.000,0.000,0.000,0
2026-01-31 15:44:41,237094,3112.000,4393.000,6265.000,-716.000,-86.000,-6.000,0.000,0.000,0
2026-01-31 15:44:41,237134,5031.000,3805.000,5136.000,-584.000,468.000,-478.000,0.000,0.000,0
2026-01-31 15:44:41,237174,1500.000,3621.000,6388.000,-407.000,-228.000,-314.000,0.000,0.000,0
2026-01-31 15:44:41,237217,4289.000,3690.000,6860.000,-1015.000,93.000,-521.000,0.000,0.000,0
2026-01-31 15:44:41,237254,3932.000,4327.000,7634.000,-110.000,227.000,-590.000,0.000,0.000,0
2026-01-31 15:44:42,237294,2888.000,5183.000,6438.000,-927.000,269.000,-1569.000,0.000,0.000,0
2026-01-31 15:44:42,237334,1301.000,6654.000,5997.000,-466.000,-475.000,-1292.000,0.000,0.000,0
2026-01-31 15:44:42,237374,2380.000,5138.000,4234.000,-1190.000,-667.000,-243.000,0.000,0.000,0
2026-01-31 15:44:42,237414,4667.000,3679.000,4727.000,-162.000,-337.000,-1521.000,0.000,0.000,0
2026-01-31 15:44:42,237454,2088.000,4592.000,6131.000,968.000,63.000,-2007.000,0.000,0.000,0
2026-01-31 15:44:42,237494,3476.000,4502.000,6144.000,-181.000,-503.000,-1388.000,0.000,0.000,0
2026-01-31 15:44:42,237534,6307.000,4408.000,5521.000,-302.000,-278.000,-2549.000,0.000,0.000,0
2026-01-31 15:44:42,237574,3563.000,3871.000,6370.000,647.000,-538.000,-1652.000,0.000,0.000,0
2026-01-31 15:44:42,237614,4616.000,5083.000,6009.000,1887.000,-789.000,-910.000,0.000,0.000,0
2026-01-31 15:44:42,237654,3412.000,3772.000,6223.000,1948.000,-844.000,-748.000,0.000,0.000,0
2026-01-31 15:44:42,237694,3238.000,3501.000,5018.000,2856.000,495.000,-1251.000,0.000,0.000,0
2026-01-31 15:44:42,237734,2721.000,4587.000,4623.000,1897.000,796.000,-1167.000,0.000,0.000,0
2026-01-31 15:44:42,237774,1798.000,5009.000,5293.000,742.000,1234.000,-1505.000,0.000,0.000,0
2026-01-31 15:44:42,237814,2830.000,6357.000,5501.000,287.000,1163.000,-1094.000,0.000,0.000,0
2026-01-31 15:44:42,237854,-93.000,6542.000,5773.000,2224.000,778.000,-1052.000,0.000,0.000,0
2026-01-31 15:44:42,237894,4073.000,6358.000,6022.000,965.000,57.000,-338.000,0.000,0.000,0
2026-01-31 15:44:42,237934,387.000,5038.000,4909.000,1507.000,-92.000,-1094.000,0.000,0.000,0
2026-01-31 15:44:42,237974,3146.000,5908.000,6390.000,295.000,-1134.000,456.000,0.000,0.000,0
2026-01-31 15:44:42,238014,2122.000,5853.000,5621.000,300.000,-963.000,609.000,0.000,0.000,0
2026-01-31 15:44:42,238054,4315.000,5974.000,4872.000,-103.000,-785.000,-35.000,0.000,0.000,0
2026-01-31 15:44:42,238094,2433.000,5560.000,5417.000,-546.000,-276.000,832.000,0.000,0.000,0
2026-01-31 15:44:42,238134,3858.000,6475.000,5364.000,876.000,-290.000,695.000,0.000,0.000,0
2026-01-31 15:44:42,238174,1312.000,4901.000,5257.000,-183.000,85.000,963.000,0.000,0.000,0
2026-01-31 15:44:42,238214,3567.000,4547.000,5309.000,730.000,304.000,533.000,0.000,0.000,0
2026-01-31 15:44:42,238254,2941.000,5957.000,5073.000,490.000,-423.000,872.000,0.000,0.000,0
2026-01-31 15:44:43,238294,3526.000,4876.000,4769.000,-954.000,-117.000,694.000,0.000,0.000,0
2026-01-31 15:44:43,238334,4051.000,4290.000,4798.000,645.000,292.000,585.000,0.000,0.000,0
2026-01-31 15:44:43,238374,3610.000,6332.000,5709.000,1393.000,251.000,619.000,0.000,0.000,0
2026-01-31 15:44:43,238414,3804.000,4892.000,5658.000,51.000,-203.000,1354.000,0.000,0.000,0
2026-01-31 15:44:43,238454,4183.000,4675.000,5831.000,706.000,-227.000,683.000,0.000,0.000,0
2026-01-31 15:44:43,238494,2345.000,5696.000,5794.000,573.000,40.000,1165.000,0.000,0.000,0
2026-01-31 15:44:43,238534,3259.000,4128.000,4935.000,-252.000,196.000,973.000,0.000,0.000,0
2026-01-31 15:44:43,238574,4712.000,5430.000,4785.000,1208.000,-23.000,832.000,0.000,0.000,0
2026-01-31 15:44:43,238614,3140.000,4750.000,5458.000,-47.000,118.000,1090.000,0.000,0.000,0
2026-01-31 15:44:43,238654,4157.000,4773.000,5831.000,883.000,451.000,222.000,0.000,0.000,0
2026-01-31 15:44:43,238694,4648.000,4566.000,5556.000,1013.000,479.000,575.000,0.000,0.000,0
2026-01-31 15:44:43,238734,2847.000,5050.000,5651.000,1104.000,1232.000,28.000,0.000,0.000,0
2026-01-31 15:44:43,238774,3033.000,5078.000,4977.000,1301.000,1543.000,-73.000,0.000,0.000,0
2026-01-31 15:44:43,238814,3901.000,6077.000,5294.000,2478.000,1788.000,-550.000,0.000,0.000,0
2026-01-31 15:44:43,238854,2997.000,5994.000,5232.000,866.000,1493.000,-884.000,0.000,0.000,0
2026-01-31 15:44:43,238894,2572.000,5792.000,5265.000,794.000,1729.000,-1412.000,0.000,0.000,0
2026-01-31 15:44:43,238934,3864.000,6259.000,5749.000,734.000,1657.000,-636.000,0.000,0.000,0
2026-01-31 15:44:43,238974,3106.000,5165.000,5643.000,-47.000,1747.000,-946.000,0.000,0.000,0
2026-01-31 15:44:43,239015,3151.000,6917.000,5030.000,980.000,952.000,-123.000,0.000,0.000,0
2026-01-31 15:44:43,239054,4122.000,5272.000,4689.000,36.000,1031.000,-834.000,0.000,0.000,0
2026-01-31 15:44:43,239094,634.000,6036.000,4883.000,-110.000,1492.000,-166.000,0.000,0.000,0
2026-01-31 15:44:43,239134,4722.000,5680.000,4553.000,936.000,1615.000,-148.000,0.000,0.000,0
2026-01-31 15:44:43,239174,2083.000,5774.000,5489.000,863.000,2006.000,-686.000,0.000,0.000,0
2026-01-31 15:44:43,239217,715.000,5770.000,5594.000,61.000,1694.000,-370.000,0.000,0.000,0
2026-01-31 15:44:43,239257,626.000,7304.000,6487.000,1285.000,683.000,748.000,0.000,0.000,0
2026-01-31 15:44:44,239299,835.000,6762.000,5937.000,-1099.000,671.000,657.000,0.000,0.000,0
2026-01-31 15:44:44,239334,520.000,5338.000,5091.000,-1604.000,498.000,846.000,0.000,0.000,0
2026-01-31 15:44:44,239374,1683.000,6035.000,5089.000,-766.000,-232.000,637.000,0.000,0.000,0
2026-01-31 15:44:44,239414,1131.000,6799.000,5458.000,-1382.000,-349.000,1797.000,0.000,0.000,0
2026-01-31 15:44:44,239454,3021.000,6325.000,5448.000,-1369.000,-714.000,1497.000,0.000,0.000,0
2026-01-31 15:44:44,239494,1744.000,5630.000,5670.000,-1624.000,-715.000,2422.000,0.000,0.000,0
2026-01-31 15:44:44,239534,3293.000,5526.000,5351.000,-2249.000,-984.000,2759.000,0.000,0.000,0
2026-01-31 15:44:44,239574,4276.000,4243.000,4747.000,-2324.000,-532.000,1887.000,0.000,0.000,0
2026-01-31 15:44:44,239614,2067.000,5396.000,5302.000,-1428.000,-761.000,2816.000,0.000,0.000,0
2026-01-31 15:44:44,239654,5599.000,4806.000,4955.000,-1808.000,-338.000,1990.000,0.000,0.000,0
2026-01-31 15:44:44,239694,2789.000,4167.000,5216.000,-995.000,-198.000,2548.000,0.000,0.000,0
2026-01-31 15:44:44,239734,3682.000,4755.000,5621.000,-1477.000,72.000,1564.000,0.000,0.000,0
2026-01-31 15:44:44,239774,3412.000,4459.000,5398.000,-799.000,144.000,1140.000,0.000,0.000,0
2026-01-31 15:44:44,239814,5562.000,3073.000,4517.000,-547.000,1132.000,-477.000,0.000,0.000,0
2026-01-31 15:44:44,239854,2255.000,5334.000,6162.000,469.000,846.000,-186.000,0.000,0.000,0
2026-01-31 15:44:44,239894,4140.000,5316.000,6151.000,561.000,449.000,189.000,0.000,0.000,0
2026-01-31 15:44:44,239934,3525.000,4782.000,5884.000,548.000,306.000,-391.000,0.000,0.000,0
2026-01-31 15:44:44,239974,2779.000,5008.000,6502.000,-756.000,-230.000,203.000,0.000,0.000,0
2026-01-31 15:44:44,240014,2948.000,3992.000,5420.000,-920.000,-259.000,-654.000,0.000,0.000,0
2026-01-31 15:44:44,240054,4272.000,5342.000,5713.000,-31.000,-133.000,-775.000,0.000,0.000,0
2026-01-31 15:44:44,240094,1678.000,4809.000,6149.000,-363.000,-387.000,-657.000,0.000,0.000,0
2026-01-31 15:44:44,240134,4646.000,5111.000,5725.000,113.000,-696.000,-782.000,0.000,0.000,0
2026-01-31 15:44:44,240174,3598.000,5154.000,5225.000,-758.000,-811.000,-1454.000,0.000,0.000,0
2026-01-31 15:44:44,240214,1466.000,4877.000,4880.000,-1028.000,-1053.000,-1490.000,0.000,0.000,0
2026-01-31 15:44:44,240254,3985.000,5113.000,4497.000,-144.000,-911.000,-1476.000,0.000,0.000,0
2026-01-31 15:44:45,240294,4490.000,3837.000,5023.000,-333.000,-727.000,-1122.000,0.000,0.000,0
2026-01-31 15:44:45,240334,4634.000,3591.000,5321.000,1806.000,232.000,-1814.000,0.000,0.000,0
2026-01-31 15:44:45,240374,3317.000,5308.000,5758.000,3005.000,229.000,-1242.000,0.000,0.000,0
2026-01-31 15:44:45,240414,4539.000,5375.000,5431.000,1482.000,-35.000,-700.000,0.000,0.000,0
2026-01-31 15:44:45,240454,3645.000,4462.000,5388.000,957.000,57.000,-695.000,0.000,0.000,0
2026-01-31 15:44:45,240494,2511.000,6170.000,5357.000,1851.000,340.000,-145.000,0.000,0.000,0
2026-01-31 15:44:45,240534,3117.000,5410.000,5579.000,1302.000,243.000,-593.000,0.000,0.000,0
2026-01-31 15:44:45,240574,3012.000,5998.000,5866.000,16.000,-53.000,-298.000,0.000,0.000,0
2026-01-31 15:44:45,240614,2101.000,5750.000,5589.000,320.000,-135.000,-583.000,0.000,0.000,0
2026-01-31 15:44:45,240654,3326.000,7020.000,5708.000,-91.000,-403.000,280.000,0.000,0.000,0
2026-01-31 15:44:45,240694,2228.000,5645.000,6078.000,-1386.000,-422.000,651.000,0.000,0.000,0
2026-01-31 15:44:45,240734,2187.000,4536.000,4821.000,-916.000,-682.000,656.000,0.000,0.000,0
2026-01-31 15:44:45,240774,5225.000,5447.000,5281.000,-704.000,-305.000,1275.000,0.000,0.000,0
2026-01-31 15:44:45,240814,2830.000,3840.000,5615.000,-1919.000,70.000,-70.000,0.000,0.000,0
2026-01-31 15:44:45,240854,3525.000,5992.000,5377.000,920.000,93.000,998.000,0.000,0.000,0
2026-01-31 15:44:45,240894,3770.000,4103.000,4868.000,-1435.000,388.000,381.000,0.000,0.000,0
2026-01-31 15:44:45,240934,3804.000,5321.000,5224.000,415.000,882.000,96.000,0.000,0.000,0
2026-01-31 15:44:45,240975,1955.000,5324.000,4687.000,185.000,1201.000,-95.000,0.000,0.000,0
2026-01-31 15:44:45,241014,3541.000,5603.000,5227.000,334.000,933.000,349.000,0.000,0.000,0
2026-01-31 15:44:45,241054,5443.000,4244.000,5592.000,644.000,1336.000,-669.000,0.000,0.000,0
2026-01-31 15:44:45,241094,1465.000,5833.000,6973.000,1331.000,647.000,-77.000,0.000,0.000,0
2026-01-31 15:44:45,241134,5499.000,4645.000,5930.000,-144.000,166.000,-55.000,0.000,0.000,0
2026-01-31 15:44:45,241174,6880.000,6075.000,6484.000,-135.000,522.000,-1225.000,0.000,0.000,0
2026-01-31 15:44:45,241216,-3081.000,4253.000,4763.000,-2350.000,-204.000,-1213.000,0.000,0.000,0
2026-01-31 15:44:45,241254,2594.000,6435.000,5093.000,1032.000,-1055.000,2367.000,0.000,0.000,0
2026-01-31 15:44:46,241294,3418.000,3902.000,5339.000,-3782.000,-275.000,-546.000,0.000,0.000,0
2026-01-31 15:44:46,241334,1728.000,5479.000,6644.000,856.000,369.000,-1926.000,0.000,0.000,0
2026-01-31 15:44:46,241374,4326.000,5663.000,6213.000,2557.000,798.000,936.000,0.000,0.000,0
2026-01-31 15:44:46,241414,-589.000,6292.000,6966.000,-978.000,-760.000,191.000,0.000,0.000,0
2026-01-31 15:44:46,241454,8671.000,5156.000,4601.000,1428.000,-461.000,12.000,0.000,0.000,0
2026-01-31 15:44:46,241494,-5760.000,4825.000,4589.000,-2745.000,-2098.000,1167.000,0.000,0.000,0
2026-01-31 15:44:46,241534,5114.000,6700.000,5032.000,-1943.000,-2152.000,994.000,0.000,0.000,0
2026-01-31 15:44:46,241574,6202.000,3828.000,3597.000,-2856.000,-616.000,-1339.000,0.000,0.000,0
2026-01-31 15:44:46,241614,3112.000,4379.000,5415.000,1320.000,47.000,-1671.000,0.000,0.000,0
2026-01-31 15:44:46,241654,5608.000,5626.000,6536.000,2549.000,778.000,12.000,0.000,0.000,0
2026-01-31 15:44:46,241694,3428.000,5040.000,5238.000,2053.000,-814.000,898.000,0.000,0.000,0
2026-01-31 15:44:46,241734,5440.000,4370.000,4001.000,-231.000,-658.000,-143.000,0.000,0.000,0
2026-01-31 15:44:46,241774,1654.000,3871.000,4168.000,-462.000,3.000,-323.000,0.000,0.000,0
2026-01-31 15:44:46,241814,4255.000,4849.000,5016.000,1520.000,951.000,-1129.000,0.000,0.000,0
2026-01-31 15:44:46,241854,4988.000,5069.000,6161.000,3748.000,1387.000,14.000,0.000,0.000,0
2026-01-31 15:44:46,241894,2412.000,8687.000,7655.000,3699.000,998.000,-356.000,0.000,0.000,0
2026-01-31 15:44:46,241934,2178.000,6566.000,6071.000,177.000,593.000,695.000,0.000,0.000,0
2026-01-31 15:44:46,241974,1079.000,6059.000,5551.000,-1278.000,-513.000,982.000,0.000,0.000,0
2026-01-31 15:44:46,242014,2152.000,4340.000,4168.000,-2695.000,-588.000,409.000,0.000,0.000,0
2026-01-31 15:44:46,242054,3342.000,5001.000,4252.000,-1079.000,-599.000,1780.000,0.000,0.000,0
2026-01-31 15:44:46,242094,1534.000,4742.000,5441.000,-741.000,951.000,591.000,0.000,0.000,0
2026-01-31 15:44:46,242134,3876.000,7052.000,6339.000,1487.000,224.000,476.000,0.000,0.000,0
2026-01-31 15:44:46,242174,3368.000,5943.000,6081.000,-1247.000,33.000,1274.000,0.000,0.000,0
2026-01-31 15:44:46,242214,3830.000,4289.000,4810.000,-1340.000,-140.000,1657.000,0.000,0.000,0
2026-01-31 15:44:46,242254,3736.000,4984.000,5046.000,-684.000,-510.000,1798.000,0.000,0.000,0
2026-01-31 15:44:47,242294,2854.000,4449.000,5715.000,-2570.000,360.000,1131.000,0.000,0.000,0
2026-01-31 15:44:47,242334,3450.000,3421.000,4467.000,-941.000,497.000,1304.000,0.000,0.000,0
2026-01-31 15:44:47,242374,4471.000,5007.000,5114.000,52.000,-21.000,978.000,0.000,0.000,0
2026-01-31 15:44:47,242414,5923.000,4800.000,5747.000,-1160.000,342.000,1286.000,0.000,0.000,0
2026-01-31 15:44:47,242454,3806.000,5033.000,6677.000,-215.000,360.000,453.000,0.000,0.000,0
2026-01-31 15:44:47,242494,3349.000,4232.000,5599.000,-859.000,107.000,395.000,0.000,0.000,0
2026-01-31 15:44:47,242534,3227.000,4672.000,6062.000,-903.000,-739.000,1608.000,0.000,0.000,0
2026-01-31 15:44:47,242574,5755.000,3157.000,4697.000,-853.000,906.000,-898.000,0.000,0.000,0
2026-01-31 15:44:47,242614,2948.000,6353.000,6849.000,1230.000,-153.000,467.000,0.000,0.000,0
2026-01-31 15:44:47,242654,829.000,4158.000,5532.000,-1518.000,496.000,-629.000,0.000,0.000,0
2026-01-31 15:44:47,242694,6438.000,4983.000,5759.000,845.000,212.000,-142.000,0.000,0.000,0
2026-01-31 15:44:47,242734,2810.000,4208.000,5529.000,-1335.000,708.000,-1471.000,0.000,0.000,0
2026-01-31 15:44:47,242774,3550.000,6172.000,6199.000,1070.000,-197.000,-728.000,0.000,0.000,0
2026-01-31 15:44:47,242814,2763.000,4019.000,4940.000,-1345.000,-425.000,-226.000,0.000,0.000,0
2026-01-31 15:44:47,242854,2348.000,5284.000,5345.000,175.000,-440.000,-1121.000,0.000,0.000,0
2026-01-31 15:44:47,242894,5000.000,5090.000,4779.000,280.000,-115.000,-1363.000,0.000,0.000,0
2026-01-31 15:44:47,242934,4465.000,4921.000,4532.000,1110.000,501.000,-1137.000,0.000,0.000,0
2026-01-31 15:44:47,242974,4057.000,4266.000,5557.000,2115.000,1222.000,-1868.000,0.000,0.000,0
2026-01-31 15:44:47,243014,3115.000,4374.000,5807.000,3573.000,1402.000,-662.000,0.000,0.000,0
2026-01-31 15:44:47,243054,3418.000,5382.000,4495.000,2839.000,1164.000,-1905.000,0.000,0.000,0
2026-01-31 15:44:47,243094,1899.000,4711.000,4905.000,-52.000,1199.000,-2383.000,0.000,0.000,0
2026-01-31 15:44:47,243134,2006.000,5504.000,4806.000,-717.000,1165.000,-2021.000,0.000,0.000,0
2026-01-31 15:44:47,243174,1729.000,5207.000,4834.000,493.000,1578.000,-3893.000,0.000,0.000,0
2026-01-31 15:44:47,243217,1664.000,8136.000,6860.000,346.000,423.000,-1840.000,0.000,0.000,0
2026-01-31 15:44:47,243254,1398.000,8275.000,6610.000,787.000,70.000,-2038.000,0.000,0.000,0
2026-01-31 15:44:48,243294,-446.000,6150.000,5547.000,-1805.000,-478.000,-550.000,0.000,0.000,0
2026-01-31 15:44:48,243334,2807.000,6267.000,5047.000,-605.000,-683.000,-127.000,0.000,0.000,0
2026-01-31 15:44:48,243374,658.000,5763.000,4743.000,-1078.000,83.000,-210.000,0.000,0.000,0
2026-01-31 15:44:48,243414,590.000,6518.000,5228.000,-838.000,-176.000,1168.000,0.000,0.000,0
2026-01-31 15:44:48,243454,3496.000,5268.000,5450.000,-533.000,92.000,880.000,0.000,0.000,0
2026-01-31 15:44:48,243494,2194.000,6813.000,6789.000,-143.000,-313.000,1389.000,0.000,0.000,0
2026-01-31 15:44:48,243534,1752.000,4915.000,6241.000,-2023.000,-755.000,869.000,0.000,0.000,0
2026-01-31 15:44:48,243574,4849.000,5803.000,4990.000,-195.000,-1441.000,1475.000,0.000,0.000,0
2026-01-31 15:44:48,243614,233.000,5398.000,4650.000,-3378.000,-1510.000,309.000,0.000,0.000,0
2026-01-31 15:44:48,243654,5026.000,4076.000,4378.000,-2216.000,-463.000,81.000,0.000,0.000,0
2026-01-31 15:44:48,243694,222.000,5451.000,5522.000,-539.000,449.000,-167.000,0.000,0.000,0
2026-01-31 15:44:48,243734,2177.000,5460.000,5917.000,-301.000,758.000,-920.000,0.000,0.000,0
2026-01-31 15:44:48,243774,2820.000,4780.000,5527.000,27.000,703.000,-793.000,0.000,0.000,0
2026-01-31 15:44:48,243814,1799.000,5367.000,5861.000,-460.000,170.000,-1260.000,0.000,0.000,0
2026-01-31 15:44:48,243854,3550.000,6322.000,5473.000,-163.000,302.000,-1728.000,0.000,0.000,0
2026-01-31 15:44:48,243894,398.000,4526.000,5896.000,-1409.000,-185.000,-2090.000,0.000,0.000,0
2026-01-31 15:44:48,243934,2345.000,5511.000,5990.000,836.000,-203.000,-1849.000,0.000,0.000,0
2026-01-31 15:44:48,243974,2644.000,5853.000,6636.000,358.000,-770.000,-1155.000,0.000,0.000,0
2026-01-31 15:44:48,244014,2721.000,5360.000,6072.000,1224.000,-1232.000,-413.000,0.000,0.000,0
2026-01-31 15:44:48,244054,1188.000,5146.000,6135.000,365.000,-935.000,-565.000,0.000,0.000,0
2026-01-31 15:44:48,244094,2434.000,4835.000,5179.000,431.000,-911.000,-211.000,0.000,0.000,0
2026-01-31 15:44:48,244134,2464.000,4679.000,5138.000,1266.000,-486.000,-667.000,0.000,0.000,0
2026-01-31 15:44:48,244174,1087.000,6400.000,6207.000,1857.000,-207.000,-374.000,0.000,0.000,0
2026-01-31 15:44:48,244214,3068.000,5427.000,6007.000,1701.000,-351.000,-244.000,0.000,0.000,0
2026-01-31 15:44:48,244254,2980.000,6908.000,5729.000,3056.000,86.000,135.000,0.000,0.000,0
2026-01-31 15:44:49,244294,858.000,6269.000,6254.000,2049.000,186.000,483.000,0.000,0.000,0
2026-01-31 15:44:49,244334,3419.000,8174.000,6046.000,1035.000,-28.000,1228.000,0.000,0.000,0
2026-01-31 15:44:49,244374,2850.000,5022.000,6969.000,-1191.000,90.000,186.000,0.000,0.000,0
2026-01-31 15:44:49,244414,1293.000,3829.000,5127.000,-3322.000,434.000,-232.000,0.000,0.000,0
2026-01-31 15:44:49,244454,1018.000,5959.000,5491.000,-282.000,1825.000,-750.000,0.000,0.000,0
2026-01-31 15:44:49,244494,1127.000,4466.000,4728.000,-869.000,2267.000,-1533.000,0.000,0.000,0
2026-01-31 15:44:49,244534,-624.000,3078.000,3634.000,378.000,1678.000,-828.000,0.000,0.000,0
2026-01-31 15:44:49,244574,585.000,3051.000,2379.000,1253.000,-1730.000,1073.000,0.000,0.000,0
2026-01-31 15:44:49,244614,7667.000,11370.000,7856.000,1640.000,1482.000,1269.000,0.000,0.000,0
2026-01-31 15:44:49,244654,-2492.000,6172.000,5962.000,-367.000,1216.000,-962.000,0.000,0.000,0
2026-01-31 15:44:49,244694,2994.000,6726.000,6401.000,-618.000,1250.000,1849.000,0.000,0.000,0
2026-01-31 15:44:49,244734,416.000,3862.000,5218.000,-60.000,779.000,-699.000,0.000,0.000,0
2026-01-31 15:44:49,244774,1846.000,5357.000,5648.000,235.000,367.000,390.000,0.000,0.000,0
2026-01-31 15:44:49,244814,3636.000,6474.000,5613.000,99.000,917.000,-40.000,0.000,0.000,0
2026-01-31 15:44:49,244854,-1409.000,5523.000,6341.000,-1014.000,124.000,234.000,0.000,0.000,0
2026-01-31 15:44:49,244894,4650.000,6303.000,5709.000,-97.000,-491.000,1020.000,0.000,0.000,0
2026-01-31 15:44:49,244937,1090.000,4994.000,6140.000,-159.000,-188.000,502.000,0.000,0.000,0
2026-01-31 15:44:49,244977,2073.000,5999.000,5267.000,-71.000,-6.000,417.000,0.000,0.000,0
2026-01-31 15:44:49,245014,-1938.000,3546.000,5178.000,-1861.000,-548.000,501.000,0.000,0.000,0
2026-01-31 15:44:49,245054,3035.000,7103.000,7090.000,399.000,-1425.000,2530.000,0.000,0.000,0
2026-01-31 15:44:49,245094,3974.000,4072.000,5888.000,-1794.000,-588.000,-293.000,0.000,0.000,0
2026-01-31 15:44:49,245134,2196.000,5004.000,3714.000,1126.000,373.000,-398.000,0.000,0.000,0
2026-01-31 15:44:49,245174,2834.000,6031.000,5743.000,1297.000,494.000,268.000,0.000,0.000,0
2026-01-31 15:44:49,245214,1917.000,5252.000,6294.000,1423.000,-609.000,-19.000,0.000,0.000,0
2026-01-31 15:44:49,245254,1695.000,6559.000,6037.000,4236.000,-968.000,-2030.000,0.000,0.000,0
2026-01-31 15:44:50,245294,1873.000,7401.000,4831.000,828.000,-561.000,-1388.000,0.000,0.000,0
2026-01-31 15:44:50,245334,-407.000,3567.000,3754.000,-2998.000,-683.000,-1958.000,0.000,0.000,0
2026-01-31 15:44:50,245374,-457.000,4177.000,4761.000,1197.000,-1000.000,418.000,0.000,0.000,0
2026-01-31 15:44:50,245414,3913.000,8509.000,6057.000,3297.000,544.000,-841.000,0.000,0.000,0
2026-01-31 15:44:50,245454,2104.000,3838.000,5754.000,-471.000,563.000,-176.000,0.000,0.000,0
2026-01-31 15:44:50,245494,3567.000,5910.000,6163.000,1300.000,1145.000,1253.000,0.000,0.000,0
2026-01-31 15:44:50,245534,1728.000,5458.000,5611.000,2773.000,407.000,-117.000,0.000,0.000,0
2026-01-31 15:44:50,245574,5172.000,7414.000,5528.000,670.000,1220.000,-154.000,0.000,0.000,0
2026-01-31 15:44:50,245614,-1885.000,4024.000,4738.000,-560.000,1469.000,-667.000,0.000,0.000,0
2026-01-31 15:44:50,245654,3065.000,7792.000,4990.000,1183.000,1040.000,1200.000,0.000,0.000,0
2026-01-31 15:44:50,245694,1155.000,7153.000,5272.000,34.000,1282.000,-1103.000,0.000,0.000,0
2026-01-31 15:44:50,245734,-361.000,5964.000,3797.000,-200.000,1635.000,-224.000,0.000,0.000,0
2026-01-31 15:44:50,245774,-3116.000,5463.000,4742.000,-322.000,-773.000,1174.000,0.000,0.000,0
2026-01-31 15:44:50,245814,5626.000,11167.000,7290.000,785.000,63.000,1509.000,0.000,0.000,0
2026-01-31 15:44:50,245854,2133.000,2295.000,4409.000,-3937.000,-843.000,-990.000,0.000,0.000,0
2026-01-31 15:44:50,245894,186.000,8343.000,6858.000,-1897.000,-746.000,2690.000,0.000,0.000,0
2026-01-31 15:44:50,245934,-650.000,5230.000,4733.000,-1720.000,-1168.000,1718.000,0.000,0.000,0
2026-01-31 15:44:50,245974,5195.000,7761.000,5129.000,-1711.000,-1281.000,2526.000,0.000,0.000,0
2026-01-31 15:44:50,246014,-320.000,4543.000,6094.000,-5681.000,-1101.000,1554.000,0.000,0.000,0
2026-01-31 15:44:50,246054,3393.000,4782.000,4136.000,-1031.000,-875.000,2067.000,0.000,0.000,0
2026-01-31 15:44:50,246094,3877.000,5246.000,4661.000,-1608.000,-923.000,1824.000,0.000,0.000,0
2026-01-31 15:44:50,246134,5053.000,5823.000,5194.000,-1842.000,-519.000,608.000,0.000,0.000,0
2026-01-31 15:44:50,246174,2903.000,3862.000,5248.000,-1558.000,352.000,-74.000,0.000,0.000,0
2026-01-31 15:44:50,246214,-679.000,5610.000,6215.000,-224.000,-152.000,-142.000,0.000,0.000,0
2026-01-31 15:44:50,246254,3723.000,4635.000,4740.000,-982.000,-20.000,-566.000,0.000,0.000,0
2026-01-31 15:44:51,246294,3905.000,4453.000,4847.000,-607.000,268.000,-952.000,0.000,0.000,0
2026-01-31 15:44:51,246334,521.000,5245.000,5828.000,-832.000,-53.000,-1248.000,0.000,0.000,0
2026-01-31 15:44:51,246374,4929.000,6379.000,6099.000,849.000,116.000,-1125.000,0.000,0.000,0
2026-01-31 15:44:51,246414,2297.000,4352.000,5776.000,66.000,121.000,-2341.000,0.000,0.000,0
2026-01-31 15:44:51,246454,279.000,6099.000,6290.000,1453.000,-738.000,238.000,0.000,0.000,0
2026-01-31 15:44:51,246494,4518.000,5779.000,5669.000,-232.000,-1065.000,-1396.000,0.000,0.000,0
2026-01-31 15:44:51,246534,1605.000,5170.000,5977.000,-91.000,-838.000,-1245.000,0.000,0.000,0
2026-01-31 15:44:51,246574,2880.000,5059.000,5263.000,633.000,-675.000,-2047.000,0.000,0.000,0
2026-01-31 15:44:51,246614,368.000,5607.000,5561.000,828.000,-779.000,-1075.000,0.000,0.000,0
2026-01-31 15:44:51,246654,5095.000,5852.000,4987.000,1021.000,-646.000,-1824.000,0.000,0.000,0
2026-01-31 15:44:51,246694,1726.000,5103.000,6354.000,268.000,-338.000,-928.000,0.000,0.000,0
2026-01-31 15:44:51,246734,3771.000,4225.000,4798.000,770.000,-3.000,-996.000,0.000,0.000,0
2026-01-31 15:44:51,246774,437.000,5890.000,5577.000,913.000,-102.000,-824.000,0.000,0.000,0
2026-01-31 15:44:51,246814,5538.000,5551.000,4566.000,741.000,367.000,-905.000,0.000,0.000,0
2026-01-31 15:44:51,246854,329.000,5472.000,5965.000,1049.000,1235.000,-1331.000,0.000,0.000,0
2026-01-31 15:44:51,246894,782.000,6534.000,4981.000,2291.000,1184.000,-1111.000,0.000,0.000,0
2026-01-31 15:44:51,246937,1555.000,7751.000,6032.000,731.000,403.000,-720.000,0.000,0.000,0
2026-01-31 15:44:51,246976,903.000,5631.000,5490.000,-305.000,198.000,-619.000,0.000,0.000,0
2026-01-31 15:44:51,247014,916.000,6012.000,5929.000,323.000,91.000,-199.000,0.000,0.000,0
2026-01-31 15:44:51,247054,2547.000,6555.000,5526.000,-29.000,76.000,-40.000,0.000,0.000,0
2026-01-31 15:44:51,247094,962.000,6645.000,5764.000,-650.000,-351.000,1289.000,0.000,0.000,0
2026-01-31 15:44:51,247134,3506.000,5321.000,5750.000,-1443.000,-546.000,796.000,0.000,0.000,0
2026-01-31 15:44:51,247174,3541.000,6233.000,6639.000,-23.000,-191.000,1506.000,0.000,0.000,0
2026-01-31 15:44:51,247217,-5734.000,4845.000,6643.000,-2455.000,-2369.000,3006.000,0.000,0.000,0
2026-01-31 15:44:51,247254,6045.000,8682.000,5961.000,2184.000,-2133.000,4025.000,0.000,0.000,0
2026-01-31 15:44:52,247294,4152.000,3160.000,5202.000,-5067.000,575.000,-786.000,0.000,0.000,0
2026-01-31 15:44:52,247334,-3148.000,6374.000,5650.000,1703.000,-863.000,2766.000,0.000,0.000,0
2026-01-31 15:44:52,247374,6084.000,3297.000,4340.000,-2131.000,-1045.000,1627.000,0.000,0.000,0
2026-01-31 15:44:52,247414,2297.000,5187.000,5764.000,622.000,67.000,1645.000,0.000,0.000,0
2026-01-31 15:44:52,247454,7518.000,3303.000,5472.000,349.000,743.000,728.000,0.000,0.000,0
2026-01-31 15:44:52,247494,4471.000,5183.000,5861.000,548.000,1036.000,-30.000,0.000,0.000,0
2026-01-31 15:44:52,247534,104.000,4521.000,6106.000,855.000,437.000,-76.000,0.000,0.000,0
2026-01-31 15:44:52,247574,4804.000,5383.000,5644.000,736.000,-382.000,1389.000,0.000,0.000,0
2026-01-31 15:44:52,247614,1769.000,4054.000,5354.000,-376.000,500.000,546.000,0.000,0.000,0
2026-01-31 15:44:52,247654,2369.000,4901.000,6627.000,1258.000,126.000,1006.000,0.000,0.000,0
2026-01-31 15:44:52,247694,3236.000,4480.000,6151.000,932.000,708.000,1082.000,0.000,0.000,0
2026-01-31 15:44:52,247734,5229.000,5612.000,6367.000,1692.000,320.000,1349.000,0.000,0.000,0
2026-01-31 15:44:52,247774,3947.000,6088.000,6334.000,1083.000,-340.000,1297.000,0.000,0.000,0
2026-01-31 15:44:52,247814,3737.000,5464.000,5724.000,240.000,178.000,461.000,0.000,0.000,0
2026-01-31 15:44:52,247854,2678.000,5517.000,5226.000,298.000,488.000,109.000,0.000,0.000,0
2026-01-31 15:44:52,247894,-587.000,5155.000,5044.000,463.000,2029.000,-242.000,0.000,0.000,0
2026-01-31 15:44:52,247934,4297.000,6045.000,4146.000,1215.000,1728.000,-96.000,0.000,0.000,0
2026-01-31 15:44:52,247974,4176.000,6085.000,5511.000,128.000,2044.000,-194.000,0.000,0.000,0
2026-01-31 15:44:52,248014,1607.000,5092.000,5467.000,-305.000,2161.000,-197.000,0.000,0.000,0
2026-01-31 15:44:52,248054,4166.000,6639.000,5125.000,1403.000,1797.000,-715.000,0.000,0.000,0
2026-01-31 15:44:52,248094,-1913.000,6081.000,5478.000,-1014.000,755.000,-34.000,0.000,0.000,0
2026-01-31 15:44:52,248134,4214.000,7828.000,5529.000,-553.000,306.000,-800.000,0.000,0.000,0
2026-01-31 15:44:52,248174,-2994.000,6676.000,5645.000,-2403.000,-318.000,-528.000,0.000,0.000,0
2026-01-31 15:44:52,248214,899.000,5754.000,3453.000,-2252.000,-1102.000,-947.000,0.000,0.000,0
2026-01-31 15:44:52,248254,1998.000,6685.000,4846.000,-2152.000,-427.000,-1762.000,0.000,0.000,0
2026-01-31 15:44:53,248294,1546.000,4851.000,4554.000,-526.000,57.000,-1195.000,0.000,0.000,0
2026-01-31 15:44:53,248334,4401.000,7278.000,6254.000,741.000,-179.000,-11.000,0.000,0.000,0
2026-01-31 15:44:53,248374,1919.000,3312.000,6667.000,-2357.000,-198.000,-1387.000,0.000,0.000,0
2026-01-31 15:44:53,248414,2487.000,6136.000,6210.000,2304.000,-654.000,-284.000,0.000,0.000,0
2026-01-31 15:44:53,248454,1071.000,4794.000,5854.000,-1938.000,-1265.000,224.000,0.000,0.000,0
2026-01-31 15:44:53,248494,5894.000,4615.000,4761.000,-1221.000,-876.000,-416.000,0.000,0.000,0
2026-01-31 15:44:53,248534,-3237.000,4205.000,4762.000,-1490.000,-1282.000,-56.000,0.000,0.000,0
2026-01-31 15:44:53,248574,6356.000,6590.000,5142.000,717.000,-1436.000,660.000,0.000,0.000,0
2026-01-31 15:44:53,248614,2149.000,4130.000,5209.000,-1610.000,893.000,-1079.000,0.000,0.000,0
2026-01-31 15:44:53,248654,5450.000,7448.000,6588.000,2266.000,-450.000,-642.000,0.000,0.000,0
2026-01-31 15:44:53,248694,-890.000,4691.000,6585.000,-1785.000,-687.000,-1225.000,0.000,0.000,0
2026-01-31 15:44:53,248734,5504.000,3120.000,2796.000,820.000,-201.000,-1395.000,0.000,0.000,0
2026-01-31 15:44:53,248774,-3731.000,4572.000,7629.000,-1980.000,-3203.000,2604.000,0.000,0.000,0
2026-01-31 15:44:53,248814,7382.000,7286.000,1753.000,3025.000,1781.000,-2803.000,0.000,0.000,0
2026-01-31 15:44:53,248854,2391.000,5736.000,10269.000,-1488.000,-1375.000,1351.000,0.000,0.000,0
2026-01-31 15:44:53,248894,2732.000,5904.000,5386.000,1360.000,678.000,-2351.000,0.000,0.000,0
2026-01-31 15:44:53,248937,8462.000,10973.000,5839.000,4970.000,-706.000,166.000,0.000,0.000,0
2026-01-31 15:44:53,248977,1224.000,1730.000,6686.000,-4666.000,-1898.000,-1563.000,0.000,0.000,0
2026-01-31 15:44:53,249014,-6795.000,5525.000,4588.000,-2086.000,-1696.000,33.000,0.000,0.000,0
2026-01-31 15:44:53,249054,8976.000,2655.000,3437.000,-1838.000,-1169.000,-1449.000,0.000,0.000,0
2026-01-31 15:44:53,249094,4714.000,6679.000,5179.000,4064.000,1621.000,-1230.000,0.000,0.000,0
2026-01-31 15:44:53,249134,556.000,5354.000,6553.000,615.000,1651.000,18.000,0.000,0.000,0
2026-01-31 15:44:53,249174,64.000,7151.000,4755.000,2724.000,797.000,409.000,0.000,0.000,0
2026-01-31 15:44:53,249217,996.000,4275.000,5582.000,-1911.000,456.000,-138.000,0.000,0.000,0
2026-01-31 15:44:53,249254,927.000,6093.000,5893.000,-475.000,376.000,747.000,0.000,0.000,0
2026-01-31 15:44:54,249294,3884.000,5865.000,5531.000,834.000,871.000,-1076.000,0.000,0.000,0
2026-01-31 15:44:54,249334,845.000,5297.000,6035.000,899.000,688.000,-613.000,0.000,0.000,0
2026-01-31 15:44:54,249374,-505.000,6180.000,5243.000,579.000,314.000,-6.000,0.000,0.000,0
2026-01-31 15:44:54,249414,1844.000,6444.000,6517.000,-645.000,-15.000,817.000,0.000,0.000,0
2026-01-31 15:44:54,249454,1727.000,4862.000,5580.000,-1457.000,560.000,-319.000,0.000,0.000,0
2026-01-31 15:44:54,249494,-891.000,6480.000,7181.000,-1430.000,-1451.000,2643.000,0.000,0.000,0
2026-01-31 15:44:54,249534,10060.000,5759.000,5381.000,-1640.000,-1556.000,854.000,0.000,0.000,0
2026-01-31 15:44:54,249574,-2081.000,4278.000,5996.000,-3871.000,-985.000,2150.000,0.000,0.000,0
2026-01-31 15:44:54,249614,7427.000,5549.000,5063.000,-1221.000,-1453.000,2690.000,0.000,0.000,0
2026-01-31 15:44:54,249654,-2949.000,3835.000,4944.000,-3711.000,-241.000,1893.000,0.000,0.000,0
2026-01-31 15:44:54,249694,8029.000,4143.000,4472.000,1291.000,-663.000,2949.000,0.000,0.000,0
2026-01-31 15:44:54,249734,-384.000,5168.000,6077.000,-1216.000,1147.000,1204.000,0.000,0.000,0
2026-01-31 15:44:54,249774,6060.000,4637.000,5200.000,866.000,783.000,1199.000,0.000,0.000,0
2026-01-31 15:44:54,249814,2063.000,6470.000,7432.000,1537.000,-1753.000,3808.000,0.000,0.000,0
2026-01-31 15:44:54,249854,11722.000,3810.000,5458.000,-1000.000,735.000,-2215.000,0.000,0.000,0
2026-01-31 15:44:54,249894,-1270.000,3053.000,6476.000,-352.000,709.000,-618.000,0.000,0.000,0
2026-01-31 15:44:54,249934,1406.000,6266.000,6545.000,731.000,152.000,-494.000,0.000,0.000,0
2026-01-31 15:44:54,249974,4375.000,4351.000,3950.000,2515.000,1354.000,-1555.000,0.000,0.000,0
2026-01-31 15:44:54,250014,2.000,5459.000,6116.000,246.000,-463.000,-175.000,0.000,0.000,0
2026-01-31 15:44:54,250054,3431.000,6048.000,6531.000,-457.000,687.000,-683.000,0.000,0.000,0
2026-01-31 15:44:54,250094,3232.000,2728.000,4181.000,477.000,932.000,-1530.000,0.000,0.000,0
2026-01-31 15:44:54,250134,7022.000,6298.000,6077.000,2515.000,-436.000,-730.000,0.000,0.000,0
2026-01-31 15:44:54,250174,1207.000,5866.000,6357.000,-714.000,253.000,-1715.000,0.000,0.000,0
2026-01-31 15:44:54,250214,3878.000,4882.000,5379.000,1311.000,-1120.000,-374.000,0.000,0.000,0
2026-01-31 15:44:54,250254,534.000,4884.000,4929.000,341.000,-824.000,-687.000,0.000,0.000,0
2026-01-31 15:44:55,250294,4676.000,5240.000,3953.000,1367.000,50.000,-275.000,0.000,0.000,0
2026-01-31 15:44:55,250334,4086.000,4851.000,5634.000,1140.000,777.000,-2171.000,0.000,0.000,0
2026-01-31 15:44:55,250374,-267.000,7189.000,6578.000,2737.000,1255.000,465.000,0.000,0.000,0
2026-01-31 15:44:55,250414,4718.000,5848.000,6420.000,73.000,835.000,-484.000,0.000,0.000,0
2026-01-31 15:44:55,250454,652.000,4572.000,5520.000,-356.000,418.000,235.000,0.000,0.000,0
2026-01-31 15:44:55,250494,5081.000,7179.000,5158.000,1701.000,-335.000,202.000,0.000,0.000,0
2026-01-31 15:44:55,250534,297.000,4350.000,5350.000,-2483.000,-494.000,241.000,0.000,0.000,0
2026-01-31 15:44:55,250574,3212.000,4738.000,6096.000,832.000,594.000,53.000,0.000,0.000,0
2026-01-31 15:44:55,250614,-1041.000,6650.000,7040.000,973.000,437.000,1404.000,0.000,0.000,0
2026-01-31 15:44:55,250654,5438.000,5255.000,5649.000,-1076.000,-139.000,346.000,0.000,0.000,0
2026-01-31 15:44:55,250694,1236.000,5331.000,6104.000,-883.000,303.000,1404.000,0.000,0.000,0
2026-01-31 15:44:55,250734,3658.000,5914.000,4981.000,319.000,-498.000,1540.000,0.000,0.000,0
2026-01-31 15:44:55,250774,4499.000,5240.000,4714.000,-797.000,112.000,930.000,0.000,0.000,0
2026-01-31 15:44:55,250814,1744.000,4469.000,4591.000,-1152.000,390.000,1411.000,0.000,0.000,0
2026-01-31 15:44:55,250854,2742.000,4307.000,5108.000,-170.000,655.000,305.000,0.000,0.000,0
2026-01-31 15:44:55,250894,5479.000,4947.000,5611.000,1000.000,1390.000,110.000,0.000,0.000,0
2026-01-31 15:44:55,250934,1622.000,5427.000,6454.000,1119.000,1771.000,-781.000,0.000,0.000,0
2026-01-31 15:44:55,250977,4489.000,5808.000,6072.000,-1048.000,-557.000,-58.000,0.000,0.000,0
2026-01-31 15:44:55,251016,801.000,5102.000,5629.000,-1576.000,-975.000,-270.000,0.000,0.000,0
2026-01-31 15:44:55,251054,759.000,5251.000,5233.000,-1418.000,-1711.000,121.000,0.000,0.000,0
2026-01-31 15:44:55,251094,4967.000,5516.000,4427.000,-1131.000,-892.000,-462.000,0.000,0.000,0
2026-01-31 15:44:55,251134,1452.000,4607.000,4910.000,-717.000,324.000,-961.000,0.000,0.000,0
2026-01-31 15:44:55,251174,3807.000,5579.000,5481.000,2346.000,-159.000,44.000,0.000,0.000,0
2026-01-31 15:44:55,251217,3055.000,5246.000,5908.000,604.000,-220.000,162.000,0.000,0.000,0
2026-01-31 15:44:55,251254,2675.000,4840.000,5709.000,-14.000,-539.000,-337.000,0.000,0.000,0
2026-01-31 15:44:56,251294,2729.000,4780.000,5615.000,58.000,-1009.000,6.000,0.000,0.000,0
2026-01-31 15:44:56,251334,5019.000,4411.000,4840.000,-107.000,-588.000,-1096.000,0.000,0.000,0
2026-01-31 15:44:56,251374,3415.000,5568.000,5958.000,1572.000,24.000,60.000,0.000,0.000,0
2026-01-31 15:44:56,251414,2191.000,5284.000,5699.000,1245.000,490.000,-94.000,0.000,0.000,0
2026-01-31 15:44:56,251454,4338.000,5590.000,5852.000,1299.000,333.000,334.000,0.000,0.000,0
2026-01-31 15:44:56,251494,833.000,5128.000,5648.000,-835.000,464.000,-84.000,0.000,0.000,0
2026-01-31 15:44:56,251534,4288.000,5613.000,4760.000,-250.000,378.000,-279.000,0.000,0.000,0
2026-01-31 15:44:56,251574,2426.000,5624.000,4883.000,400.000,449.000,-489.000,0.000,0.000,0
2026-01-31 15:44:56,251614,2942.000,7950.000,6370.000,1373.000,442.000,-246.000,0.000,0.000,0
2026-01-31 15:44:56,251654,459.000,5978.000,6339.000,-13.000,278.000,153.000,0.000,0.000,0
2026-01-31 15:44:56,251694,2520.000,5458.000,5437.000,152.000,-279.000,-196.000,0.000,0.000,0
2026-01-31 15:44:56,251734,3840.000,6216.000,5062.000,-849.000,-453.000,232.000,0.000,0.000,0
2026-01-31 15:44:56,251774,248.000,4565.000,5213.000,-2375.000,-517.000,461.000,0.000,0.000,0
2026-01-31 15:44:56,251814,4563.000,5273.000,4808.000,-508.000,-259.000,925.000,0.000,0.000,0
2026-01-31 15:44:56,251854,3354.000,4606.000,5801.000,-701.000,254.000,950.000,0.000,0.000,0
2026-01-31 15:44:56,251894,2018.000,4980.000,5658.000,-905.000,530.000,829.000,0.000,0.000,0
2026-01-31 15:44:56,251934,5287.000,5079.000,5330.000,30.000,-387.000,1642.000,0.000,0.000,0
2026-01-31 15:44:56,251974,3316.000,4497.000,5633.000,-1116.000,151.000,382.000,0.000,0.000,0
2026-01-31 15:44:56,252014,4191.000,4447.000,5463.000,-15.000,-131.000,795.000,0.000,0.000,0
2026-01-31 15:44:56,252054,2800.000,4474.000,6111.000,79.000,17.000,728.000,0.000,0.000,0
2026-01-31 15:44:56,252094,2426.000,4156.000,5222.000,-55.000,762.000,298.000,0.000,0.000,0
2026-01-31 15:44:56,252134,4141.000,5750.000,5962.000,968.000,673.000,28.000,0.000,0.000,0
2026-01-31 15:44:56,252174,1581.000,5042.000,5918.000,364.000,1070.000,-376.000,0.000,0.000,0
2026-01-31 15:44:56,252214,3907.000,5192.000,6134.000,853.000,205.000,910.000,0.000,0.000,0
2026-01-31 15:44:56,252254,1988.000,5435.000,6012.000,-387.000,742.000,-763.000,0.000,0.000,0
2026-01-31 15:44:57,252294,2059.000,5558.000,6461.000,-180.000,120.000,-144.000,0.000,0.000,0
2026-01-31 15:44:57,252334,2193.000,5913.000,5894.000,-808.000,-134.000,119.000,0.000,0.000,0
2026-01-31 15:44:57,252374,3142.000,5433.000,5325.000,-1389.000,131.000,-959.000,0.000,0.000,0
2026-01-31 15:44:57,252414,4206.000,5519.000,4814.000,363.000,-229.000,-861.000,0.000,0.000,0
2026-01-31 15:44:57,252454,2592.000,5147.000,5662.000,-602.000,-150.000,-973.000,0.000,0.000,0
2026-01-31 15:44:57,252494,3207.000,4567.000,5535.000,1199.000,291.000,-980.000,0.000,0.000,0
2026-01-31 15:44:57,252534,2231.000,5751.000,5402.000,1458.000,566.000,-460.000,0.000,0.000,0
2026-01-31 15:44:57,252574,5489.000,4159.000,4564.000,-94.000,1573.000,-1247.000,0.000,0.000,0
2026-01-31 15:44:57,252614,641.000,5806.000,4657.000,1457.000,1770.000,-1576.000,0.000,0.000,0
2026-01-31 15:44:57,252654,4262.000,7258.000,5236.000,1924.000,1824.000,-2466.000,0.000,0.000,0
2026-01-31 15:44:57,252694,400.000,5510.000,5774.000,1963.000,1848.000,-2942.000,0.000,0.000,0
2026-01-31 15:44:57,252734,0.000,5774.000,4932.000,571.000,1782.000,-3118.000,0.000,0.000,0
2026-01-31 15:44:57,252774,-100.000,4893.000,3772.000,1479.000,1030.000,-1898.000,0.000,0.000,0
2026-01-31 15:44:57,252814,909.000,7530.000,5011.000,1100.000,388.000,-1437.000,0.000,0.000,0
2026-01-31 15:44:57,252854,-623.000,8037.000,6384.000,-1060.000,619.000,466.000,0.000,0.000,0
2026-01-31 15:44:57,252894,1962.000,5951.000,5671.000,-114.000,327.000,74.000,0.000,0.000,0
2026-01-31 15:44:57,252934,1015.000,6160.000,6623.000,-2289.000,-279.000,885.000,0.000,0.000,0
2026-01-31 15:44:57,252977,3186.000,6825.000,5291.000,-265.000,-564.000,32.000,0.000,0.000,0
2026-01-31 15:44:57,253014,1204.000,5040.000,4740.000,-1565.000,-407.000,-338.000,0.000,0.000,0
2026-01-31 15:44:57,253054,587.000,7599.000,5199.000,-75.000,-694.000,733.000,0.000,0.000,0
2026-01-31 15:44:57,253094,1968.000,4617.000,4371.000,-1553.000,41.000,150.000,0.000,0.000,0
2026-01-31 15:44:57,253134,1161.000,5943.000,5716.000,-237.000,710.000,-545.000,0.000,0.000,0
2026-01-31 15:44:57,253174,1420.000,4813.000,4744.000,-1172.000,1162.000,-325.000,0.000,0.000,0
2026-01-31 15:44:57,253217,235.000,5986.000,5213.000,-1390.000,803.000,-674.000,0.000,0.000,0
2026-01-31 15:44:57,253256,-341.000,4481.000,5313.000,-1900.000,502.000,-166.000,0.000,0.000,0
2026-01-31 15:44:58,253294,1913.000,6340.000,5717.000,-604.000,362.000,-2424.000,0.000,0.000,0
2026-01-31 15:44:58,253334,-1370.000,4235.000,5147.000,-954.000,703.000,-3005.000,0.000,0.000,0
2026-01-31 15:44:58,253374,604.000,6607.000,4960.000,911.000,577.000,-1698.000,0.000,0.000,0
2026-01-31 15:44:58,253414,1580.000,6802.000,6365.000,416.000,780.000,-2238.000,0.000,0.000,0
2026-01-31 15:44:58,253454,-1999.000,4477.000,6516.000,890.000,215.000,-940.000,0.000,0.000,0
2026-01-31 15:44:58,253494,-1242.000,7307.000,6322.000,1163.000,-107.000,-434.000,0.000,0.000,0
2026-01-31 15:44:58,253534,4034.000,7316.000,5076.000,669.000,349.000,-1712.000,0.000,0.000,0
2026-01-31 15:44:58,253574,-5377.000,4656.000,6567.000,-620.000,-740.000,-284.000,0.000,0.000,0
2026-01-31 15:44:58,253614,-247.000,5704.000,5309.000,2335.000,-1084.000,635.000,0.000,0.000,0
2026-01-31 15:44:58,253654,392.000,3849.000,3960.000,2665.000,-479.000,449.000,0.000,0.000,0
2026-01-31 15:44:58,253694,-2169.000,7040.000,6691.000,2344.000,-762.000,1118.000,0.000,0.000,0
2026-01-31 15:44:58,253734,1725.000,6634.000,4976.000,496.000,165.000,88.000,0.000,0.000,0
2026-01-31 15:44:58,253774,2306.000,5637.000,5302.000,1530.000,-406.000,-358.000,0.000,0.000,0
2026-01-31 15:44:58,253814,-1923.000,8712.000,6562.000,2343.000,-971.000,638.000,0.000,0.000,0
2026-01-31 15:44:58,253854,-1599.000,4342.000,4399.000,-534.000,-675.000,-594.000,0.000,0.000,0
2026-01-31 15:44:58,253894,1800.000,6609.000,5105.000,2515.000,-1936.000,466.000,0.000,0.000,0
2026-01-31 15:44:58,253934,1306.000,7635.000,5468.000,-216.000,-1270.000,-444.000,0.000,0.000,0
2026-01-31 15:44:58,253974,-1422.000,4231.000,5491.000,-1332.000,-590.000,1120.000,0.000,0.000,0
2026-01-31 15:44:58,254014,1963.000,7691.000,5173.000,1669.000,-1060.000,1170.000,0.000,0.000,0
2026-01-31 15:44:58,254054,856.000,5914.000,5028.000,74.000,-488.000,1089.000,0.000,0.000,0
2026-01-31 15:44:58,254094,-163.000,4518.000,5277.000,-1491.000,-395.000,2057.000,0.000,0.000,0
2026-01-31 15:44:58,254134,3641.000,6259.000,4687.000,963.000,-517.000,1862.000,0.000,0.000,0
2026-01-31 15:44:58,254174,2667.000,3574.000,4967.000,-1793.000,882.000,155.000,0.000,0.000,0
2026-01-31 15:44:58,254214,-1760.000,5998.000,5408.000,1415.000,909.000,1125.000,0.000,0.000,0
2026-01-31 15:44:58,254254,4544.000,5839.000,4330.000,1700.000,1568.000,-960.000,0.000,0.000,0
2026-01-31 15:44:59,254294,938.000,6379.000,5680.000,1668.000,1235.000,837.000,0.000,0.000,0
2026-01-31 15:44:59,254334,3207.000,6288.000,5369.000,1100.000,1500.000,-387.000,0.000,0.000,0
2026-01-31 15:44:59,254374,-464.000,6242.000,5648.000,1562.000,1007.000,-345.000,0.000,0.000,0
2026-01-31 15:44:59,254414,3570.000,5811.000,5604.000,745.000,596.000,-234.000,0.000,0.000,0
2026-01-31 15:44:59,254454,-1330.000,5870.000,5003.000,1556.000,2621.000,-827.000,0.000,0.000,0
2026-01-31 15:44:59,254494,533.000,7607.000,4837.000,2865.000,1199.000,-409.000,0.000,0.000,0
2026-01-31 15:44:59,254534,2378.000,7603.000,5918.000,374.000,1458.000,1518.000,0.000,0.000,0
2026-01-31 15:44:59,254574,2774.000,4607.000,3964.000,1079.000,3040.000,-259.000,0.000,0.000,0
2026-01-31 15:44:59,254614,-804.000,7767.000,5190.000,3818.000,2973.000,422.000,0.000,0.000,0
2026-01-31 15:44:59,254654,4838.000,9830.000,6445.000,1670.000,2951.000,-1286.000,0.000,0.000,0
2026-01-31 15:44:59,254694,-2656.000,3980.000,5602.000,-1216.000,3264.000,-682.000,0.000,0.000,0
2026-01-31 15:44:59,254734,-1727.000,7368.000,5605.000,2043.000,997.000,1257.000,0.000,0.000,0
2026-01-31 15:44:59,254774,718.000,9048.000,6668.000,-1711.000,1151.000,1053.000,0.000,0.000,0
2026-01-31 15:44:59,254814,1753.000,6591.000,4974.000,-3287.000,1624.000,681.000,0.000,0.000,0
2026-01-31 15:44:59,254854,1370.000,8113.000,5498.000,-2327.000,1395.000,163.000,0.000,0.000,0
2026-01-31 15:44:59,254894,2272.000,7781.000,4154.000,-370.000,740.000,87.000,0.000,0.000,0
2026-01-31 15:44:59,254937,-4373.000,7357.000,5767.000,-1784.000,337.000,1982.000,0.000,0.000,0
2026-01-31 15:44:59,254977,-2458.000,5085.000,4096.000,-2940.000,480.000,2113.000,0.000,0.000,0
2026-01-31 15:44:59,255014,-846.000,4361.000,3596.000,-2892.000,49.000,1957.000,0.000,0.000,0
2026-01-31 15:44:59,255054,3662.000,8165.000,4580.000,-1266.000,-108.000,941.000,0.000,0.000,0
2026-01-31 15:44:59,255094,-2512.000,4261.000,3365.000,-3447.000,-162.000,69.000,0.000,0.000,0
2026-01-31 15:44:59,255134,2903.000,10303.000,5476.000,1819.000,-1416.000,2262.000,0.000,0.000,0
2026-01-31 15:44:59,255174,-573.000,4479.000,5043.000,-4826.000,-885.000,1456.000,0.000,0.000,0
2026-01-31 15:44:59,255214,1194.000,5524.000,4151.000,44.000,-1594.000,1766.000,0.000,0.000,0
2026-01-31 15:44:59,255254,-1160.000,5776.000,5459.000,-496.000,-1951.000,1860.000,0.000,0.000,0
2026-01-31 15:45:00,255294,3148.000,7337.000,4663.000,-1063.000,-2460.000,2404.000,0.000,0.000,0
2026-01-31 15:45:00,255334,3637.000,6230.000,5554.000,-2501.000,-2012.000,951.000,0.000,0.000,0
2026-01-31 15:45:00,255374,-1288.000,6029.000,5590.000,-1419.000,-2084.000,2896.000,0.000,0.000,0
2026-01-31 15:45:00,255414,5898.000,8856.000,6296.000,-1197.000,-3053.000,3147.000,0.000,0.000,0
2026-01-31 15:45:00,255454,6779.000,1623.000,2157.000,-4607.000,-382.000,-2562.000,0.000,0.000,0
2026-01-31 15:45:00,255494,-2423.000,6195.000,8626.000,-1314.000,-2920.000,6329.000,0.000,0.000,0
2026-01-31 15:45:00,255534,7801.000,4546.000,2300.000,223.000,-470.000,-1794.000,0.000,0.000,0
2026-01-31 15:45:00,255574,-61.000,5506.000,8169.000,-113.000,-1719.000,4089.000,0.000,0.000,0
2026-01-31 15:45:00,255614,-303.000,5074.000,6718.000,-3345.000,-2406.000,1008.000,0.000,0.000,0
2026-01-31 15:45:00,255654,2762.000,8073.000,6459.000,-577.000,-2206.000,4456.000,0.000,0.000,0
2026-01-31 15:45:00,255694,9912.000,2690.000,4951.000,-4822.000,-3006.000,679.000,0.000,0.000,0
2026-01-31 15:45:00,255734,-595.000,6519.000,5247.000,-1856.000,-2131.000,3132.000,0.000,0.000,0
2026-01-31 15:45:00,255774,5877.000,2963.000,3007.000,-6967.000,-2136.000,1881.000,0.000,0.000,0
2026-01-31 15:45:00,255814,4745.000,347.000,2943.000,-1449.000,-131.000,551.000,0.000,0.000,0
2026-01-31 15:45:00,255854,4699.000,4166.000,5986.000,984.000,779.000,-1143.000,0.000,0.000,0
2026-01-31 15:45:00,255894,4847.000,4989.000,6677.000,-149.000,973.000,-567.000,0.000,0.000,0
2026-01-31 15:45:00,255934,4497.000,5491.000,6595.000,800.000,327.000,-1493.000,0.000,0.000,0
2026-01-31 15:45:00,255974,2918.000,4048.000,5977.000,-1391.000,354.000,-296.000,0.000,0.000,0
2026-01-31 15:45:00,256014,3538.000,3475.000,4689.000,-405.000,-226.000,-329.000,0.000,0.000,0
2026-01-31 15:45:00,256054,5814.000,3754.000,5103.000,-708.000,37.000,-906.000,0.000,0.000,0
2026-01-31 15:45:00,256094,4184.000,4214.000,6291.000,-608.000,256.000,-974.000,0.000,0.000,0
2026-01-31 15:45:00,256134,3181.000,5498.000,6218.000,119.000,-386.000,-1321.000,0.000,0.000,0
2026-01-31 15:45:00,256174,3533.000,5261.000,6387.000,-1819.000,-420.000,-1103.000,0.000,0.000,0
2026-01-31 15:45:00,256214,5551.000,4283.000,5338.000,-2559.000,-234.000,-2398.000,0.000,0.000,0
2026-01-31 15:45:00,256254,2673.000,4927.000,5410.000,-1966.000,-961.000,-1923.000,0.000,0.000,0
2026-01-31 15:45:01,256294,3112.000,4741.000,4907.000,-1298.000,-104.000,-3195.000,0.000,0.000,0
2026-01-31 15:45:01,256334,3883.000,4088.000,5259.000,-241.000,162.000,-1762.000,0.000,0.000,0
2026-01-31 15:45:01,256374,4875.000,2807.000,5727.000,1270.000,640.000,-3260.000,0.000,0.000,0
2026-01-31 15:45:01,256414,4833.000,5295.000,5912.000,3161.000,488.000,-3073.000,0.000,0.000,0
2026-01-31 15:45:01,256454,4521.000,4315.000,6108.000,-125.000,278.000,-2637.000,0.000,0.000,0
2026-01-31 15:45:01,256494,2388.000,5492.000,5927.000,1354.000,658.000,-2927.000,0.000,0.000,0
2026-01-31 15:45:01,256534,820.000,5339.000,5561.000,3.000,-352.000,-1852.000,0.000,0.000,0
2026-01-31 15:45:01,256574,3070.000,6311.000,4926.000,-444.000,143.000,-1863.000,0.000,0.000,0
2026-01-31 15:45:01,256614,1224.000,4785.000,4494.000,626.000,-650.000,-1129.000,0.000,0.000,0
2026-01-31 15:45:01,256654,3569.000,7709.000,5982.000,1800.000,-508.000,-1514.000,0.000,0.000,0
2026-01-31 15:45:01,256694,1302.000,4662.000,6706.000,230.000,18.000,-90.000,0.000,0.000,0
2026-01-31 15:45:01,256734,2599.000,6634.000,6477.000,318.000,-862.000,-134.000,0.000,0.000,0
2026-01-31 15:45:01,256774,2783.000,5553.000,6306.000,-68.000,-1448.000,709.000,0.000,0.000,0
2026-01-31 15:45:01,256814,3460.000,5617.000,5732.000,-1222.000,-1526.000,690.000,0.000,0.000,0
2026-01-31 15:45:01,256854,3605.000,5079.000,5809.000,-3626.000,-1733.000,1534.000,0.000,0.000,0
2026-01-31 15:45:01,256894,4760.000,2462.000,4251.000,-3726.000,-1405.000,-151.000,0.000,0.000,0
2026-01-31 15:45:01,256937,4553.000,5249.000,4895.000,804.000,-445.000,-579.000,0.000,0.000,0
2026-01-31 15:45:01,256976,2128.000,3436.000,4772.000,-80.000,346.000,-926.000,0.000,0.000,0
2026-01-31 15:45:01,257014,4626.000,4268.000,4784.000,1755.000,493.000,-1016.000,0.000,0.000,0
2026-01-31 15:45:01,257054,3679.000,4489.000,5585.000,1431.000,1229.000,-1883.000,0.000,0.000,0
2026-01-31 15:45:01,257094,2809.000,4419.000,5715.000,2833.000,990.000,-1830.000,0.000,0.000,0
2026-01-31 15:45:01,257134,3788.000,5565.000,6476.000,2093.000,150.000,-1320.000,0.000,0.000,0
2026-01-31 15:45:01,257174,3330.000,4298.000,6093.000,-33.000,-109.000,-1399.000,0.000,0.000,0
2026-01-31 15:45:01,257217,3927.000,5816.000,6469.000,1587.000,-831.000,-730.000,0.000,0.000,0
2026-01-31 15:45:01,257254,3862.000,5620.000,5820.000,1131.000,-137.000,-1089.000,0.000,0.000,0
2026-01-31 15:45:02,257294,2960.000,4971.000,6282.000,738.000,-336.000,-305.000,0.000,0.000,0
2026-01-31 15:45:02,257334,2823.000,5151.000,5564.000,1218.000,-363.000,-641.000,0.000,0.000,0
2026-01-31 15:45:02,257374,1550.000,5632.000,6096.000,392.000,-676.000,849.000,0.000,0.000,0
2026-01-31 15:45:02,257414,2936.000,5231.000,5183.000,-205.000,-342.000,48.000,0.000,0.000,0
2026-01-31 15:45:02,257454,4019.000,6182.000,6537.000,1287.000,-558.000,-380.000,0.000,0.000,0
2026-01-31 15:45:02,257494,1216.000,6227.000,5623.000,547.000,-393.000,11.000,0.000,0.000,0
2026-01-31 15:45:02,257534,5314.000,5140.000,5111.000,877.000,-634.000,630.000,0.000,0.000,0
2026-01-31 15:45:02,257574,4230.000,3848.000,4709.000,954.000,120.000,484.000,0.000,0.000,0
2026-01-31 15:45:02,257614,2637.000,5029.000,4923.000,2115.000,261.000,360.000,0.000,0.000,0
2026-01-31 15:45:02,257654,3592.000,5287.000,4756.000,2019.000,446.000,-49.000,0.000,0.000,0
2026-01-31 15:45:02,257694,5623.000,4828.000,4543.000,1600.000,988.000,-469.000,0.000,0.000,0
2026-01-31 15:45:02,257734,1061.000,5667.000,5919.000,1548.000,251.000,273.000,0.000,0.000,0
2026-01-31 15:45:02,257774,3417.000,8713.000,5858.000,1920.000,510.000,-15.000,0.000,0.000,0
2026-01-31 15:45:02,257814,1634.000,4912.000,5290.000,-1890.000,177.000,174.000,0.000,0.000,0
2026-01-31 15:45:02,257854,3973.000,5372.000,4581.000,152.000,740.000,-136.000,0.000,0.000,0
2026-01-31 15:45:02,257894,2757.000,5335.000,5514.000,-13.000,546.000,494.000,0.000,0.000,0
2026-01-31 15:45:02,257934,2191.000,5179.000,4560.000,-212.000,641.000,-19.000,0.000,0.000,0
2026-01-31 15:45:02,257974,2171.000,6771.000,6184.000,-482.000,228.000,1520.000,0.000,0.000,0
2026-01-31 15:45:02,258014,2255.000,5231.000,4963.000,-1922.000,319.000,848.000,0.000,0.000,0
2026-01-31 15:45:02,258054,3598.000,5473.000,4968.000,-982.000,29.000,2147.000,0.000,0.000,0
2026-01-31 15:45:02,258094,5245.000,4506.000,4488.000,-1600.000,215.000,956.000,0.000,0.000,0
2026-01-31 15:45:02,258134,3822.000,4886.000,4803.000,-224.000,181.000,972.000,0.000,0.000,0
2026-01-31 15:45:02,258174,3308.000,5090.000,5809.000,-1075.000,-195.000,1009.000,0.000,0.000,0
2026-01-31 15:45:02,258214,2998.000,4555.000,5386.000,-1225.000,-513.000,1562.000,0.000,0.000,0
2026-01-31 15:45:02,258254,4797.000,3510.000,4491.000,-972.000,-298.000,976.000,0.000,0.000,0
2026-01-31 15:45:03,258294,3703.000,4653.000,5775.000,-510.000,316.000,824.000,0.000,0.000,0
2026-01-31 15:45:03,258334,5515.000,3868.000,5519.000,707.000,741.000,220.000,0.000,0.000,0
2026-01-31 15:45:03,258374,3161.000,5567.000,6138.000,880.000,311.000,484.000,0.000,0.000,0
2026-01-31 15:45:03,258414,3230.000,4312.000,5997.000,-673.000,-692.000,1745.000,0.000,0.000,0
2026-01-31 15:45:03,258454,4478.000,4597.000,5072.000,214.000,28.000,714.000,0.000,0.000,0
2026-01-31 15:45:03,258494,2890.000,4914.000,5914.000,392.000,-71.000,1038.000,0.000,0.000,0
2026-01-31 15:45:03,258534,4098.000,5083.000,6281.000,593.000,367.000,-125.000,0.000,0.000,0
2026-01-31 15:45:03,258574,4672.000,3604.000,5187.000,258.000,476.000,-49.000,0.000,0.000,0
2026-01-31 15:45:03,258614,4715.000,5217.000,5611.000,1119.000,32.000,-173.000,0.000,0.000,0
2026-01-31 15:45:03,258654,3362.000,5305.000,5708.000,81.000,-428.000,169.000,0.000,0.000,0
2026-01-31 15:45:03,258694,3146.000,3906.000,4796.000,-279.000,56.000,-12.000,0.000,0.000,0
2026-01-31 15:45:03,258734,3894.000,5450.000,5374.000,1074.000,371.000,-217.000,0.000,0.000,0
2026-01-31 15:45:03,258774,4662.000,5307.000,5482.000,398.000,659.000,-39.000,0.000,0.000,0
2026-01-31 15:45:03,258814,5055.000,5353.000,6102.000,571.000,515.000,-144.000,0.000,0.000,0
2026-01-31 15:45:03,258854,3192.000,4967.000,5136.000,-300.000,471.000,-468.000,0.000,0.000,0
2026-01-31 15:45:03,258894,1623.000,5491.000,5483.000,-954.000,-2079.000,2826.000,0.000,0.000,0
2026-01-31 15:45:03,258934,8295.000,5471.000,3789.000,-1196.000,791.000,-3447.000,0.000,0.000,0
2026-01-31 15:45:03,258977,8577.000,6526.000,5340.000,5055.000,554.000,-957.000,0.000,0.000,0
2026-01-31 15:45:03,259017,-212.000,2911.000,5706.000,-2243.000,349.000,148.000,0.000,0.000,0
2026-01-31 15:45:03,259054,1794.000,3253.000,5065.000,148.000,-183.000,1400.000,0.000,0.000,0
2026-01-31 15:45:03,259094,4414.000,3869.000,7218.000,-2517.000,-657.000,226.000,0.000,0.000,0
2026-01-31 15:45:03,259134,2948.000,4828.000,4480.000,1408.000,556.000,357.000,0.000,0.000,0
2026-01-31 15:45:03,259174,6068.000,3295.000,4645.000,-779.000,-234.000,-595.000,0.000,0.000,0
2026-01-31 15:45:03,259217,5674.000,5300.000,5739.000,571.000,413.000,332.000,0.000,0.000,0
2026-01-31 15:45:03,259254,4788.000,4386.000,5684.000,150.000,408.000,129.000,0.000,0.000,0
2026-01-31 15:45:04,259294,2041.000,5583.000,5099.000,902.000,-157.000,905.000,0.000,0.000,0
2026-01-31 15:45:04,259334,5337.000,4809.000,4653.000,-1261.000,-98.000,-567.000,0.000,0.000,0
2026-01-31 15:45:04,259374,3432.000,3451.000,4201.000,174.000,774.000,-414.000,0.000,0.000,0
2026-01-31 15:45:04,259414,3960.000,5716.000,5263.000,2540.000,852.000,-795.000,0.000,0.000,0
2026-01-31 15:45:04,259454,1454.000,6112.000,6342.000,1713.000,1154.000,-57.000,0.000,0.000,0
2026-01-31 15:45:04,259494,5099.000,5981.000,5237.000,113.000,-648.000,932.000,0.000,0.000,0
2026-01-31 15:45:04,259534,2750.000,4098.000,4644.000,-2727.000,-527.000,-132.000,0.000,0.000,0
2026-01-31 15:45:04,259574,4227.000,4491.000,3941.000,-203.000,-95.000,-55.000,0.000,0.000,0
2026-01-31 15:45:04,259614,3335.000,4566.000,4870.000,375.000,434.000,-308.000,0.000,0.000,0
2026-01-31 15:45:04,259654,3480.000,5951.000,5752.000,2010.000,855.000,8.000,0.000,0.000,0
2026-01-31 15:45:04,259694,5487.000,4798.000,5881.000,491.000,378.000,-271.000,0.000,0.000,0
2026-01-31 15:45:04,259734,1785.000,5273.000,6192.000,-194.000,195.000,-10.000,0.000,0.000,0
2026-01-31 15:45:04,259774,5615.000,5324.000,4980.000,-540.000,-665.000,622.000,0.000,0.000,0
2026-01-31 15:45:04,259814,7490.000,5020.000,4415.000,-726.000,190.000,213.000,0.000,0.000,0
2026-01-31 15:45:04,259854,-1420.000,5517.000,4571.000,791.000,63.000,1387.000,0.000,0.000,0
2026-01-31 15:45:04,259894,4541.000,8479.000,6748.000,65.000,-1098.000,186.000,0.000,0.000,0
2026-01-31 15:45:04,259934,3797.000,3153.000,3212.000,-414.000,2437.000,-2033.000,0.000,0.000,0
2026-01-31 15:45:04,259974,-973.000,4605.000,4840.000,-851.000,168.000,1118.000,0.000,0.000,0
2026-01-31 15:45:04,260014,2543.000,9063.000,4630.000,1960.000,-529.000,-1179.000,0.000,0.000,0
2026-01-31 15:45:04,260054,6944.000,5248.000,3692.000,-1242.000,336.000,531.000,0.000,0.000,0
2026-01-31 15:45:04,260094,6532.000,4597.000,5187.000,-791.000,734.000,-2396.000,0.000,0.000,0
2026-01-31 15:45:04,260134,-710.000,2647.000,7492.000,785.000,-1591.000,2816.000,0.000,0.000,0
2026-01-31 15:45:04,260174,1298.000,5519.000,6815.000,-51.000,-248.000,1000.000,0.000,0.000,0
2026-01-31 15:45:04,260214,6249.000,3797.000,6727.000,227.000,1310.000,158.000,0.000,0.000,0
2026-01-31 15:45:04,260254,850.000,4533.000,7809.000,-1736.000,-384.000,2626.000,0.000,0.000,0
2026-01-31 15:45:05,260294,1420.000,5788.000,6631.000,-1692.000,-676.000,2493.000,0.000,0.000,0
2026-01-31 15:45:05,260334,15019.000,1120.000,3545.000,926.000,1301.000,-210.000,0.000,0.000,0
2026-01-31 15:45:05,260374,-4756.000,7976.000,7645.000,43.000,887.000,1177.000,0.000,0.000,0
2026-01-31 15:45:05,260414,157.000,6633.000,4585.000,-2284.000,-865.000,3151.000,0.000,0.000,0
2026-01-31 15:45:05,260454,10472.000,42.000,2104.000,-4275.000,467.000,2218.000,0.000,0.000,0
2026-01-31 15:45:05,260494,4141.000,3876.000,7703.000,-498.000,614.000,2075.000,0.000,0.000,0
2026-01-31 15:45:05,260534,1912.000,6636.000,7590.000,2459.000,1756.000,-1603.000,0.000,0.000,0
2026-01-31 15:45:05,260574,3056.000,5088.000,8043.000,752.000,1173.000,2411.000,0.000,0.000,0
2026-01-31 15:45:05,260614,5186.000,2003.000,6821.000,-1553.000,1267.000,24.000,0.000,0.000,0
2026-01-31 15:45:05,260654,-1305.000,5958.000,3903.000,466.000,-345.000,-365.000,0.000,0.000,0
2026-01-31 15:45:05,260694,5885.000,6784.000,13021.000,-3321.000,-4462.000,4723.000,0.000,0.000,0
2026-01-31 15:45:05,260734,-2481.000,3095.000,1967.000,-2993.000,4566.000,-3900.000,0.000,0.000,0
2026-01-31 15:45:05,260774,7456.000,2929.000,4068.000,4871.000,1790.000,-1344.000,0.000,0.000,0
2026-01-31 15:45:05,260814,4308.000,8346.000,9023.000,-44.000,-263.000,-1385.000,0.000,0.000,0
2026-01-31 15:45:05,260854,3174.000,4087.000,4719.000,-962.000,322.000,-1713.000,0.000,0.000,0
2026-01-31 15:45:05,260894,8760.000,5754.000,4425.000,907.000,-1916.000,-1605.000,0.000,0.000,0
2026-01-31 15:45:05,260937,-4338.000,3711.000,3714.000,-1871.000,-951.000,-292.000,0.000,0.000,0
2026-01-31 15:45:05,260976,3038.000,2559.000,4548.000,732.000,-291.000,-3317.000,0.000,0.000,0
2026-01-31 15:45:05,261014,1622.000,3890.000,5388.000,1018.000,848.000,-1400.000,0.000,0.000,0
2026-01-31 15:45:05,261054,6477.000,6569.000,6173.000,4118.000,1300.000,-2046.000,0.000,0.000,0
2026-01-31 15:45:05,261094,4325.000,5450.000,5955.000,1617.000,816.000,-1393.000,0.000,0.000,0
2026-01-31 15:45:05,261134,1780.000,5711.000,5957.000,248.000,-517.000,-160.000,0.000,0.000,0
2026-01-31 15:45:05,261174,3469.000,6014.000,5021.000,377.000,-628.000,-74.000,0.000,0.000,0
2026-01-31 15:45:05,261217,4333.000,4994.000,4810.000,363.000,-379.000,-156.000,0.000,0.000,0
2026-01-31 15:45:05,261254,3350.000,4475.000,4239.000,552.000,450.000,-899.000,0.000,0.000,0
2026-01-31 15:45:06,261294,3120.000,4883.000,5320.000,1611.000,532.000,-1140.000,0.000,0.000,0
2026-01-31 15:45:06,261334,2275.000,5172.000,5348.000,2096.000,1383.000,-1516.000,0.000,0.000,0
2026-01-31 15:45:06,261374,2418.000,6251.000,6222.000,2315.000,1835.000,-1776.000,0.000,0.000,0
2026-01-31 15:45:06,261414,967.000,8152.000,6864.000,-743.000,625.000,-127.000,0.000,0.000,0
2026-01-31 15:45:06,261454,2823.000,4914.000,4722.000,-2624.000,-512.000,-332.000,0.000,0.000,0
2026-01-31 15:45:06,261494,3701.000,6110.000,4989.000,-2446.000,-1063.000,628.000,0.000,0.000,0
2026-01-31 15:45:06,261534,3659.000,5000.000,5811.000,-3782.000,-1568.000,142.000,0.000,0.000,0
2026-01-31 15:45:06,261574,1726.000,6342.000,7647.000,-3287.000,-2068.000,1614.000,0.000,0.000,0
2026-01-31 15:45:06,261614,4886.000,5061.000,7211.000,-4066.000,-2098.000,1707.000,0.000,0.000,0
2026-01-31 15:45:06,261654,1695.000,4998.000,6028.000,-3273.000,-1660.000,2754.000,0.000,0.000,0
2026-01-31 15:45:06,261694,4303.000,4510.000,3476.000,-2814.000,-2168.000,3153.000,0.000,0.000,0
2026-01-31 15:45:06,261734,4576.000,3848.000,3599.000,-2917.000,-1025.000,780.000,0.000,0.000,0
2026-01-31 15:45:06,261774,1573.000,3068.000,5033.000,-1884.000,532.000,765.000,0.000,0.000,0
2026-01-31 15:45:06,261814,4693.000,4198.000,5997.000,2965.000,699.000,216.000,0.000,0.000,0
2026-01-31 15:45:06,261854,2886.000,4092.000,6396.000,1142.000,1111.000,-1115.000,0.000,0.000,0
2026-01-31 15:45:06,261894,5264.000,4431.000,6322.000,879.000,228.000,-1105.000,0.000,0.000,0
2026-01-31 15:45:06,261934,1635.000,5100.000,6809.000,-134.000,-831.000,-1123.000,0.000,0.000,0
2026-01-31 15:45:06,261974,5762.000,4432.000,5389.000,334.000,-1246.000,-1241.000,0.000,0.000,0
2026-01-31 15:45:06,262014,3455.000,3781.000,5819.000,69.000,-654.000,-1692.000,0.000,0.000,0
2026-01-31 15:45:06,262054,2151.000,5065.000,6360.000,1305.000,-1105.000,-1031.000,0.000,0.000,0
2026-01-31 15:45:06,262094,3032.000,4106.000,5071.000,187.000,-683.000,-2019.000,0.000,0.000,0
2026-01-31 15:45:06,262134,3185.000,4456.000,5470.000,735.000,-863.000,-1035.000,0.000,0.000,0
2026-01-31 15:45:06,262174,2082.000,4479.000,5780.000,828.000,-415.000,-1683.000,0.000,0.000,0
2026-01-31 15:45:06,262214,5459.000,5110.000,5395.000,2481.000,-679.000,-1451.000,0.000,0.000,0
2026-01-31 15:45:06,262254,4851.000,3091.000,5444.000,1660.000,-679.000,-1084.000,0.000,0.000,0
2026-01-31 15:45:07,262294,3537.000,4241.000,5870.000,2414.000,-67.000,-742.000,0.000,0.000,0
2026-01-31 15:45:07,262334,5057.000,4259.000,5453.000,1541.000,-197.000,-496.000,0.000,0.000,0
2026-01-31 15:45:07,262374,2077.000,4133.000,5439.000,1599.000,38.000,-219.000,0.000,0.000,0
2026-01-31 15:45:07,262414,5308.000,5685.000,5056.000,2651.000,-56.000,221.000,0.000,0.000,0
2026-01-31 15:45:07,262454,4584.000,4876.000,6248.000,424.000,682.000,-23.000,0.000,0.000,0
2026-01-31 15:45:07,262494,2404.000,6175.000,6420.000,1937.000,781.000,361.000,0.000,0.000,0
2026-01-31 15:45:07,262534,4122.000,6253.000,5828.000,1220.000,215.000,568.000,0.000,0.000,0
2026-01-31 15:45:07,262574,2030.000,5308.000,5848.000,-1003.000,517.000,1223.000,0.000,0.000,0
2026-01-31 15:45:07,262614,3052.000,5383.000,5398.000,-394.000,284.000,1175.000,0.000,0.000,0
2026-01-31 15:45:07,262654,4812.000,4930.000,5347.000,-856.000,687.000,1081.000,0.000,0.000,0
2026-01-31 15:45:07,262694,1208.000,4235.000,4891.000,-1706.000,674.000,1202.000,0.000,0.000,0
2026-01-31 15:45:07,262734,6247.000,5646.000,5127.000,618.000,77.000,870.000,0.000,0.000,0
2026-01-31 15:45:07,262774,2425.000,4481.000,5582.000,-410.000,678.000,1551.000,0.000,0.000,0
2026-01-31 15:45:07,262814,6010.000,4509.000,5085.000,735.000,482.000,681.000,0.000,0.000,0
2026-01-31 15:45:07,262854,4484.000,3939.000,5359.000,585.000,75.000,979.000,0.000,0.000,0
2026-01-31 15:45:07,262894,5101.000,3769.000,5701.000,-434.000,608.000,1046.000,0.000,0.000,0
2026-01-31 15:45:07,262934,3779.000,5019.000,6614.000,1795.000,1076.000,1810.000,0.000,0.000,0
2026-01-31 15:45:07,262974,5469.000,5146.000,5773.000,507.000,711.000,1431.000,0.000,0.000,0
2026-01-31 15:45:07,263014,2545.000,4968.000,5444.000,-714.000,1410.000,1623.000,0.000,0.000,0
2026-01-31 15:45:07,263054,5060.000,4619.000,5365.000,101.000,1463.000,1760.000,0.000,0.000,0
2026-01-31 15:45:07,263094,4829.000,5436.000,6232.000,800.000,2053.000,942.000,0.000,0.000,0
2026-01-31 15:45:07,263134,1136.000,6192.000,6100.000,-383.000,1102.000,1904.000,0.000,0.000,0
2026-01-31 15:45:07,263174,4696.000,5829.000,5415.000,-1154.000,348.000,1503.000,0.000,0.000,0
2026-01-31 15:45:07,263217,4149.000,4592.000,4995.000,-1954.000,445.000,1448.000,0.000,0.000,0
2026-01-31 15:45:07,263254,3966.000,4878.000,5112.000,-1468.000,461.000,1035.000,0.000,0.000,0
2026-01-31 15:45:08,263294,1689.000,5458.000,5240.000,-1318.000,47.000,1052.000,0.000,0.000,0
2026-01-31 15:45:08,263334,6361.000,3973.000,4671.000,-2810.000,132.000,164.000,0.000,0.000,0
2026-01-31 15:45:08,263374,1812.000,3519.000,5183.000,-2280.000,246.000,-701.000,0.000,0.000,0
2026-01-31 15:45:08,263414,3105.000,5433.000,5106.000,-1479.000,-392.000,-202.000,0.000,0.000,0
2026-01-31 15:45:08,263454,5298.000,3717.000,4858.000,-2602.000,274.000,-1424.000,0.000,0.000,0
2026-01-31 15:45:08,263494,3270.000,4724.000,5610.000,-655.000,317.000,-751.000,0.000,0.000,0
2026-01-31 15:45:08,263534,4055.000,5250.000,5945.000,-867.000,-152.000,-1094.000,0.000,0.000,0
2026-01-31 15:45:08,263574,3578.000,4405.000,5509.000,-1166.000,-280.000,-920.000,0.000,0.000,0
2026-01-31 15:45:08,263614,5799.000,4023.000,5282.000,-1073.000,-719.000,-551.000,0.000,0.000,0
2026-01-31 15:45:08,263654,4328.000,3571.000,6116.000,-1449.000,-85.000,-1168.000,0.000,0.000,0
2026-01-31 15:45:08,263694,4992.000,4250.000,5401.000,-604.000,-631.000,-601.000,0.000,0.000,0
2026-01-31 15:45:08,263734,3699.000,4247.000,5647.000,-1243.000,-651.000,-333.000,0.000,0.000,0
2026-01-31 15:45:08,263774,5882.000,4229.000,5610.000,-714.000,-547.000,-696.000,0.000,0.000,0
2026-01-31 15:45:08,263814,2643.000,3940.000,6060.000,-262.000,-435.000,-507.000,0.000,0.000,0
2026-01-31 15:45:08,263854,3796.000,4639.000,5805.000,-517.000,-1068.000,-164.000,0.000,0.000,0
2026-01-31 15:45:08,263894,6240.000,2016.000,5225.000,-684.000,-796.000,-1604.000,0.000,0.000,0
2026-01-31 15:45:08,263934,3380.000,5297.000,6118.000,1679.000,-227.000,-1525.000,0.000,0.000,0
2026-01-31 15:45:08,263974,3545.000,6007.000,5887.000,-900.000,-730.000,-701.000,0.000,0.000,0
2026-01-31 15:45:08,264014,6203.000,3713.000,5213.000,-1940.000,-83.000,-872.000,0.000,0.000,0
2026-01-31 15:45:08,264054,2595.000,4188.000,5827.000,-318.000,132.000,-267.000,0.000,0.000,0
2026-01-31 15:45:08,264094,3510.000,4303.000,5338.000,-619.000,8.000,-462.000,0.000,0.000,0
2026-01-31 15:45:08,264134,4801.000,3978.000,5379.000,70.000,803.000,-369.000,0.000,0.000,0
2026-01-31 15:45:08,264174,3165.000,4213.000,6052.000,899.000,783.000,-83.000,0.000,0.000,0
2026-01-31 15:45:08,264214,3437.000,6189.000,6548.000,886.000,136.000,-53.000,0.000,0.000,0
2026-01-31 15:45:08,264254,5460.000,4269.000,7158.000,-1484.000,-277.000,228.000,0.000,0.000,0
2026-01-31 15:45:09,264294,2534.000,4535.000,6088.000,65.000,-1052.000,-392.000,0.000,0.000,0
2026-01-31 15:45:09,264334,2794.000,7306.000,4956.000,-1433.000,-1371.000,-217.000,0.000,0.000,0
2026-01-31 15:45:09,264374,3907.000,2989.000,4512.000,-5181.000,-141.000,50.000,0.000,0.000,0
2026-01-31 15:45:09,264414,3780.000,3296.000,5697.000,-1037.000,18.000,-566.000,0.000,0.000,0
2026-01-31 15:45:09,264454,5532.000,4472.000,6187.000,796.000,228.000,-914.000,0.000,0.000,0
2026-01-31 15:45:09,264494,3313.000,5098.000,6057.000,-1109.000,-902.000,-422.000,0.000,0.000,0
2026-01-31 15:45:09,264534,3156.000,4965.000,5909.000,-2056.000,-758.000,-934.000,0.000,0.000,0
2026-01-31 15:45:09,264574,4563.000,4215.000,5519.000,-1296.000,-677.000,-1019.000,0.000,0.000,0
2026-01-31 15:45:09,264614,4357.000,4593.000,5933.000,-544.000,-882.000,-1723.000,0.000,0.000,0
2026-01-31 15:45:09,264654,2944.000,4935.000,6364.000,-886.000,-877.000,-1973.000,0.000,0.000,0
2026-01-31 15:45:09,264694,4496.000,4035.000,5782.000,-1382.000,-994.000,-2240.000,0.000,0.000,0
2026-01-31 15:45:09,264734,3059.000,4489.000,5611.000,-863.000,-1060.000,-1938.000,0.000,0.000,0
2026-01-31 15:45:09,264774,5703.000,4822.000,5290.000,-340.000,-964.000,-1699.000,0.000,0.000,0
2026-01-31 15:45:09,264814,4653.000,3323.000,5144.000,-653.000,-471.000,-2316.000,0.000,0.000,0
2026-01-31 15:45:09,264854,3355.000,5496.000,6154.000,893.000,-116.000,-2412.000,0.000,0.000,0
2026-01-31 15:45:09,264894,4287.000,4181.000,5050.000,331.000,57.000,-2446.000,0.000,0.000,0
2026-01-31 15:45:09,264937,4707.000,5978.000,5550.000,1142.000,-763.000,-1460.000,0.000,0.000,0
2026-01-31 15:45:09,264976,2366.000,4176.000,5830.000,-52.000,-562.000,-1515.000,0.000,0.000,0
2026-01-31 15:45:09,265014,3731.000,4952.000,6218.000,1090.000,-859.000,-1542.000,0.000,0.000,0
2026-01-31 15:45:09,265054,3078.000,4477.000,5508.000,-94.000,-804.000,-1442.000,0.000,0.000,0
2026-01-31 15:45:09,265094,4072.000,5662.000,6634.000,321.000,-1191.000,-760.000,0.000,0.000,0
2026-01-31 15:45:09,265134,4260.000,4483.000,6064.000,-860.000,-1149.000,-879.000,0.000,0.000,0
2026-01-31 15:45:09,265174,2072.000,5613.000,6133.000,-910.000,-1314.000,-487.000,0.000,0.000,0
2026-01-31 15:45:09,265217,3315.000,4598.000,5016.000,-2041.000,-1058.000,-506.000,0.000,0.000,0
2026-01-31 15:45:09,265254,4431.000,4067.000,4917.000,-658.000,-338.000,-100.000,0.000,0.000,0
2026-01-31 15:45:10,265294,4142.000,4442.000,5624.000,111.000,-115.000,-68.000,0.000,0.000,0
2026-01-31 15:45:10,265334,5216.000,4496.000,5670.000,146.000,-301.000,65.000,0.000,0.000,0
2026-01-31 15:45:10,265374,5303.000,3520.000,5671.000,-975.000,-328.000,-1.000,0.000,0.000,0
2026-01-31 15:45:10,265414,2640.000,4315.000,6336.000,-633.000,-515.000,-516.000,0.000,0.000,0
2026-01-31 15:45:10,265454,3903.000,4168.000,4412.000,45.000,-791.000,350.000,0.000,0.000,0
2026-01-31 15:45:10,265494,4947.000,4397.000,5420.000,-148.000,-157.000,-338.000,0.000,0.000,0
2026-01-31 15:45:10,265534,3643.000,3663.000,6217.000,-746.000,-161.000,-114.000,0.000,0.000,0
2026-01-31 15:45:10,265574,4593.000,3752.000,6297.000,314.000,-191.000,-269.000,0.000,0.000,0
2026-01-31 15:45:10,265614,3276.000,3793.000,5493.000,86.000,-171.000,-137.000,0.000,0.000,0
2026-01-31 15:45:10,265654,2850.000,3946.000,5508.000,-5.000,-341.000,-481.000,0.000,0.000,0
2026-01-31 15:45:10,265694,4102.000,4945.000,6141.000,1117.000,-986.000,146.000,0.000,0.000,0
2026-01-31 15:45:10,265734,4232.000,4061.000,5634.000,146.000,-375.000,-543.000,0.000,0.000,0
2026-01-31 15:45:10,265774,3253.000,3994.000,5596.000,546.000,-823.000,-528.000,0.000,0.000,0
2026-01-31 15:45:10,265814,4934.000,4951.000,5965.000,743.000,-407.000,-601.000,0.000,0.000,0
2026-01-31 15:45:10,265854,3561.000,4046.000,5878.000,-23.000,-295.000,-799.000,0.000,0.000,0
2026-01-31 15:45:10,265894,6388.000,4076.000,5279.000,982.000,-368.000,-356.000,0.000,0.000,0
2026-01-31 15:45:10,265934,2025.000,4270.000,5818.000,-326.000,-656.000,232.000,0.000,0.000,0
2026-01-31 15:45:10,265974,8023.000,5010.000,5544.000,656.000,51.000,-756.000,0.000,0.000,0
2026-01-31 15:45:10,266014,741.000,5481.000,6342.000,-690.000,614.000,-446.000,0.000,0.000,0
2026-01-31 15:45:10,266054,6348.000,5052.000,4566.000,-29.000,-107.000,137.000,0.000,0.000,0
2026-01-31 15:45:10,266094,3117.000,3440.000,4681.000,-1495.000,366.000,503.000,0.000,0.000,0
2026-01-31 15:45:10,266134,5562.000,4427.000,5731.000,331.000,313.000,-241.000,0.000,0.000,0
2026-01-31 15:45:10,266174,3487.000,4606.000,6232.000,-171.000,356.000,97.000,0.000,0.000,0
2026-01-31 15:45:10,266214,4368.000,4429.000,5239.000,-533.000,-165.000,-97.000,0.000,0.000,0
2026-01-31 15:45:10,266254,6377.000,4800.000,5888.000,-527.000,-176.000,204.000,0.000,0.000,0
2026-01-31 15:45:11,266294,2465.000,3605.000,5506.000,-1951.000,117.000,-116.000,0.000,0.000,0
2026-01-31 15:45:11,266334,4008.000,4760.000,5460.000,542.000,-536.000,119.000,0.000,0.000,0
2026-01-31 15:45:11,266374,2984.000,4127.000,4958.000,-1948.000,-186.000,-275.000,0.000,0.000,0
2026-01-31 15:45:11,266414,5335.000,4190.000,5306.000,-12.000,220.000,-1151.000,0.000,0.000,0
2026-01-31 15:45:11,266454,2868.000,4897.000,5850.000,684.000,438.000,-423.000,0.000,0.000,0
2026-01-31 15:45:11,266494,5322.000,4657.000,5340.000,93.000,250.000,-928.000,0.000,0.000,0
2026-01-31 15:45:11,266534,2923.000,4627.000,5813.000,-576.000,438.000,-1196.000,0.000,0.000,0
2026-01-31 15:45:11,266574,4268.000,5608.000,5554.000,78.000,24.000,-679.000,0.000,0.000,0
2026-01-31 15:45:11,266614,5374.000,4957.000,5513.000,-1373.000,288.000,-1405.000,0.000,0.000,0
2026-01-31 15:45:11,266654,1522.000,4786.000,5703.000,-908.000,241.000,-2120.000,0.000,0.000,0
2026-01-31 15:45:11,266694,4259.000,6176.000,5681.000,1247.000,-443.000,-351.000,0.000,0.000,0
2026-01-31 15:45:11,266734,3618.000,4689.000,4999.000,-2411.000,330.000,-2203.000,0.000,0.000,0
2026-01-31 15:45:11,266774,3955.000,4767.000,5712.000,1037.000,-314.000,-1343.000,0.000,0.000,0
2026-01-31 15:45:11,266814,4490.000,5223.000,5456.000,-101.000,-567.000,-1223.000,0.000,0.000,0
2026-01-31 15:45:11,266854,4544.000,4410.000,5653.000,-853.000,-504.000,-1669.000,0.000,0.000,0
2026-01-31 15:45:11,266894,1279.000,5356.000,5823.000,137.000,-860.000,-1141.000,0.000,0.000,0
2026-01-31 15:45:11,266934,5586.000,5075.000,4930.000,-294.000,-1170.000,-1439.000,0.000,0.000,0
2026-01-31 15:45:11,266974,1805.000,3863.000,5072.000,-1064.000,-718.000,-1514.000,0.000,0.000,0
2026-01-31 15:45:11,267014,4171.000,5195.000,5008.000,1632.000,-786.000,-812.000,0.000,0.000,0
2026-01-31 15:45:11,267054,5377.000,4261.000,5203.000,549.000,-471.000,-1277.000,0.000,0.000,0
2026-01-31 15:45:11,267094,3096.000,5441.000,6120.000,869.000,-503.000,-1844.000,0.000,0.000,0
2026-01-31 15:45:11,267134,3984.000,5117.000,5833.000,1245.000,-1072.000,-481.000,0.000,0.000,0
2026-01-31 15:45:11,267174,5010.000,3920.000,4540.000,98.000,-919.000,-562.000,0.000,0.000,0
2026-01-31 15:45:11,267217,711.000,3900.000,4866.000,1292.000,-487.000,-109.000,0.000,0.000,0
2026-01-31 15:45:11,267256,3841.000,5094.000,5012.000,3194.000,-658.000,182.000,0.000,0.000,0
2026-01-31 15:45:12,267294,6419.000,4562.000,5550.000,1728.000,6.000,-1047.000,0.000,0.000,0
2026-01-31 15:45:12,267334,3409.000,4755.000,6396.000,2105.000,553.000,26.000,0.000,0.000,0
2026-01-31 15:45:12,267374,2354.000,5774.000,6172.000,1509.000,-456.000,97.000,0.000,0.000,0
2026-01-31 15:45:12,267414,4804.000,5614.000,4783.000,1127.000,-925.000,563.000,0.000,0.000,0
2026-01-31 15:45:12,267454,3767.000,3809.000,4198.000,-561.000,-322.000,329.000,0.000,0.000,0
2026-01-31 15:45:12,267494,4323.000,5735.000,4989.000,2095.000,-99.000,870.000,0.000,0.000,0
2026-01-31 15:45:12,267534,4074.000,4278.000,5389.000,234.000,408.000,-610.000,0.000,0.000,0
2026-01-31 15:45:12,267574,7171.000,6068.000,5618.000,2397.000,376.000,0.000,0.000,0.000,0
2026-01-31 15:45:12,267614,2451.000,4876.000,5637.000,690.000,1045.000,50.000,0.000,0.000,0
2026-01-31 15:45:12,267654,3976.000,6280.000,5307.000,1106.000,237.000,467.000,0.000,0.000,0
2026-01-31 15:45:12,267694,3306.000,4887.000,4689.000,-2.000,324.000,714.000,0.000,0.000,0
2026-01-31 15:45:12,267734,5585.000,5160.000,4673.000,283.000,286.000,323.000,0.000,0.000,0
2026-01-31 15:45:12,267774,2661.000,5089.000,5362.000,390.000,1114.000,25.000,0.000,0.000,0
2026-01-31 15:45:12,267814,3519.000,5896.000,5095.000,1026.000,637.000,130.000,0.000,0.000,0
2026-01-31 15:45:12,267854,4549.000,5765.000,4980.000,433.000,689.000,-73.000,0.000,0.000,0
2026-01-31 15:45:12,267894,3677.000,4968.000,4803.000,288.000,608.000,384.000,0.000,0.000,0
2026-01-31 15:45:12,267934,3200.000,4936.000,4998.000,936.000,468.000,391.000,0.000,0.000,0
2026-01-31 15:45:12,267974,757.000,4064.000,5141.000,-907.000,990.000,-658.000,0.000,0.000,0
2026-01-31 15:45:12,268014,2087.000,5539.000,4399.000,2450.000,-871.000,2976.000,0.000,0.000,0
2026-01-31 15:45:12,268054,11719.000,4641.000,4400.000,602.000,881.000,-2063.000,0.000,0.000,0
2026-01-31 15:45:12,268094,-658.000,3408.000,5795.000,1448.000,1053.000,1441.000,0.000,0.000,0
2026-01-31 15:45:12,268134,5423.000,6919.000,5836.000,2151.000,372.000,299.000,0.000,0.000,0
2026-01-31 15:45:12,268174,4063.000,5319.000,5076.000,1325.000,643.000,687.000,0.000,0.000,0
2026-01-31 15:45:12,268214,6901.000,4579.000,4366.000,459.000,553.000,1246.000,0.000,0.000,0
2026-01-31 15:45:12,268254,2295.000,5987.000,7026.000,277.000,666.000,902.000,0.000,0.000,0
2026-01-31 15:45:13,268294,2985.000,5257.000,3949.000,836.000,1150.000,849.000,0.000,0.000,0
2026-01-31 15:45:13,268334,574.000,5994.000,5612.000,-781.000,1257.000,598.000,0.000,0.000,0
2026-01-31 15:45:13,268374,5110.000,5942.000,5053.000,-512.000,683.000,776.000,0.000,0.000,0
2026-01-31 15:45:13,268414,6742.000,5197.000,4774.000,1131.000,747.000,-126.000,0.000,0.000,0
2026-01-31 15:45:13,268454,-1388.000,6319.000,4503.000,-1035.000,-330.000,2016.000,0.000,0.000,0
2026-01-31 15:45:13,268494,11894.000,5732.000,3021.000,775.000,-113.000,573.000,0.000,0.000,0
2026-01-31 15:45:13,268534,-430.000,3500.000,5972.000,-1399.000,1416.000,1161.000,0.000,0.000,0
2026-01-31 15:45:13,268574,6887.000,4469.000,5247.000,3636.000,1951.000,-596.000,0.000,0.000,0
2026-01-31 15:45:13,268614,-189.000,6894.000,7030.000,2507.000,2565.000,515.000,0.000,0.000,0
2026-01-31 15:45:13,268654,3369.000,5610.000,4584.000,-188.000,1379.000,350.000,0.000,0.000,0
2026-01-31 15:45:13,268694,5324.000,5488.000,4635.000,-74.000,1106.000,-199.000,0.000,0.000,0
2026-01-31 15:45:13,268734,2386.000,4755.000,4325.000,-671.000,945.000,654.000,0.000,0.000,0
2026-01-31 15:45:13,268774,3956.000,5630.000,4563.000,283.000,1096.000,120.000,0.000,0.000,0
2026-01-31 15:45:13,268814,7838.000,6608.000,5696.000,800.000,1320.000,203.000,0.000,0.000,0
2026-01-31 15:45:13,268854,1368.000,5265.000,6978.000,-278.000,251.000,329.000,0.000,0.000,0
2026-01-31 15:45:13,268894,5001.000,4276.000,4500.000,1520.000,1625.000,-419.000,0.000,0.000,0
2026-01-31 15:45:13,268934,-2973.000,4405.000,7129.000,-914.000,-470.000,3644.000,0.000,0.000,0
2026-01-31 15:45:13,268974,7655.000,5151.000,5366.000,-727.000,-736.000,2844.000,0.000,0.000,0
2026-01-31 15:45:13,269014,3001.000,3850.000,6337.000,-4767.000,-305.000,1877.000,0.000,0.000,0
2026-01-31 15:45:13,269054,6783.000,4728.000,2878.000,-2298.000,404.000,1606.000,0.000,0.000,0
2026-01-31 15:45:13,269094,6216.000,2992.000,6917.000,97.000,2337.000,-6.000,0.000,0.000,0
2026-01-31 15:45:13,269134,5246.000,3882.000,7703.000,3678.000,1540.000,1236.000,0.000,0.000,0
2026-01-31 15:45:13,269174,5711.000,3936.000,5878.000,526.000,894.000,1081.000,0.000,0.000,0
2026-01-31 15:45:13,269214,-2948.000,2300.000,4261.000,-1427.000,-808.000,2352.000,0.000,0.000,0
2026-01-31 15:45:13,269254,11397.000,4140.000,6324.000,296.000,1231.000,677.000,0.000,0.000,0
2026-01-31 15:45:14,269294,-1156.000,3249.000,5791.000,1356.000,1312.000,1164.000,0.000,0.000,0
2026-01-31 15:45:14,269334,11455.000,3933.000,4942.000,2395.000,1393.000,-704.000,0.000,0.000,0
2026-01-31 15:45:14,269374,1341.000,4813.000,6714.000,391.000,894.000,1178.000,0.000,0.000,0
2026-01-31 15:45:14,269414,8742.000,4791.000,6272.000,3586.000,1643.000,254.000,0.000,0.000,0
2026-01-31 15:45:14,269454,152.000,5160.000,6997.000,849.000,165.000,1687.000,0.000,0.000,0
2026-01-31 15:45:14,269494,4689.000,4251.000,6026.000,272.000,296.000,660.000,0.000,0.000,0
2026-01-31 15:45:14,269534,13572.000,3361.000,6536.000,4051.000,4764.000,-4815.000,0.000,0.000,0
2026-01-31 15:45:14,269574,-7841.000,5879.000,6926.000,723.000,859.000,1998.000,0.000,0.000,0
2026-01-31 15:45:14,269614,8898.000,7305.000,3767.000,-789.000,1847.000,-476.000,0.000,0.000,0
2026-01-31 15:45:14,269654,7733.000,3603.000,4789.000,673.000,-580.000,1900.000,0.000,0.000,0
2026-01-31 15:45:14,269694,4719.000,814.000,3313.000,-39.000,3107.000,-3147.000,0.000,0.000,0
2026-01-31 15:45:14,269734,-3154.000,3975.000,6679.000,2040.000,-1760.000,5210.000,0.000,0.000,0
2026-01-31 15:45:14,269774,10963.000,3469.000,3490.000,6512.000,4834.000,-4375.000,0.000,0.000,0
2026-01-31 15:45:14,269814,6401.000,7417.000,9507.000,212.000,290.000,5101.000,0.000,0.000,0
2026-01-31 15:45:14,269854,2948.000,6778.000,8126.000,-1971.000,15.000,-565.000,0.000,0.000,0
2026-01-31 15:45:14,269894,2959.000,6426.000,2209.000,-1198.000,1466.000,521.000,0.000,0.000,0
2026-01-31 15:45:14,269934,8476.000,4882.000,3200.000,184.000,440.000,-125.000,0.000,0.000,0
2026-01-31 15:45:14,269974,-1498.000,7859.000,4363.000,-830.000,2386.000,-308.000,0.000,0.000,0
2026-01-31 15:45:14,270014,8645.000,4309.000,4130.000,876.000,731.000,-1203.000,0.000,0.000,0
2026-01-31 15:45:14,270054,3418.000,4212.000,4701.000,579.000,319.000,325.000,0.000,0.000,0
2026-01-31 15:45:14,270094,8219.000,1141.000,4769.000,404.000,1034.000,-75.000,0.000,0.000,0
2026-01-31 15:45:14,270134,2937.000,3987.000,5974.000,3269.000,1135.000,1321.000,0.000,0.000,0
2026-01-31 15:45:14,270174,4193.000,4723.000,5997.000,2418.000,-238.000,2630.000,0.000,0.000,0
2026-01-31 15:45:14,270214,3786.000,4653.000,6039.000,-439.000,375.000,1740.000,0.000,0.000,0
2026-01-31 15:45:14,270254,6202.000,3298.000,5011.000,-553.000,914.000,1564.000,0.000,0.000,0
2026-01-31 15:45:15,270294,3162.000,6757.000,4266.000,-261.000,1166.000,756.000,0.000,0.000,0
2026-01-31 15:45:15,270334,6568.000,5696.000,4083.000,-822.000,1691.000,493.000,0.000,0.000,0
2026-01-31 15:45:15,270374,3272.000,6393.000,5445.000,-196.000,764.000,413.000,0.000,0.000,0
2026-01-31 15:45:15,270414,4017.000,6063.000,4471.000,-1484.000,439.000,673.000,0.000,0.000,0
2026-01-31 15:45:15,270454,6082.000,3306.000,3837.000,-1413.000,414.000,354.000,0.000,0.000,0
2026-01-31 15:45:15,270494,2701.000,4564.000,4239.000,-418.000,411.000,394.000,0.000,0.000,0
2026-01-31 15:45:15,270534,8236.000,2770.000,3860.000,-435.000,761.000,-593.000,0.000,0.000,0
2026-01-31 15:45:15,270574,-988.000,4854.000,4316.000,-454.000,1040.000,385.000,0.000,0.000,0
2026-01-31 15:45:15,270614,5849.000,4041.000,3977.000,221.000,-405.000,722.000,0.000,0.000,0
2026-01-31 15:45:15,270654,5927.000,3982.000,4094.000,-259.000,-174.000,344.000,0.000,0.000,0
2026-01-31 15:45:15,270694,4554.000,4014.000,5077.000,646.000,-149.000,-238.000,0.000,0.000,0
2026-01-31 15:45:15,270734,4206.000,6291.000,6188.000,367.000,-344.000,-312.000,0.000,0.000,0
2026-01-31 15:45:15,270774,5111.000,5266.000,5787.000,-1810.000,-757.000,-109.000,0.000,0.000,0
2026-01-31 15:45:15,270814,3441.000,5765.000,5629.000,-2263.000,-691.000,-475.000,0.000,0.000,0
2026-01-31 15:45:15,270854,4882.000,4850.000,4017.000,-2042.000,-1015.000,80.000,0.000,0.000,0
2026-01-31 15:45:15,270894,2614.000,4955.000,4164.000,-1516.000,-916.000,-271.000,0.000,0.000,0
2026-01-31 15:45:15,270937,3563.000,5031.000,6778.000,-1335.000,442.000,-1946.000,0.000,0.000,0
2026-01-31 15:45:15,270977,2179.000,5699.000,5784.000,-492.000,111.000,-674.000,0.000,0.000,0
2026-01-31 15:45:15,271014,3132.000,4130.000,4689.000,-714.000,136.000,-633.000,0.000,0.000,0
2026-01-31 15:45:15,271054,4602.000,3979.000,4541.000,100.000,529.000,-574.000,0.000,0.000,0
2026-01-31 15:45:15,271094,3277.000,3618.000,4925.000,1503.000,103.000,-158.000,0.000,0.000,0
2026-01-31 15:45:15,271134,9706.000,4931.000,5782.000,1728.000,72.000,-821.000,0.000,0.000,0
2026-01-31 15:45:15,271174,8173.000,2345.000,5019.000,-281.000,1800.000,-4032.000,0.000,0.000,0
2026-01-31 15:45:15,271214,-3021.000,5470.000,4895.000,294.000,1058.000,-2594.000,0.000,0.000,0
2026-01-31 15:45:15,271254,17136.000,6590.000,8163.000,958.000,2462.000,-5235.000,0.000,0.000,0
2026-01-31 15:45:16,271294,4126.000,5316.000,6765.000,1659.000,4493.000,-7212.000,0.000,0.000,0
2026-01-31 15:45:16,271334,-11094.000,5676.000,6726.000,41.000,784.000,-2877.000,0.000,0.000,0
2026-01-31 15:45:16,271374,-691.000,5686.000,5173.000,-495.000,123.000,193.000,0.000,0.000,0
2026-01-31 15:45:16,271414,3800.000,2429.000,2935.000,-1613.000,-1092.000,2542.000,0.000,0.000,0
2026-01-31 15:45:16,271454,-4963.000,2365.000,4044.000,-493.000,-4370.000,6168.000,0.000,0.000,0
2026-01-31 15:45:16,271494,5022.000,4508.000,6012.000,921.000,-3991.000,7751.000,0.000,0.000,0
2026-01-31 15:45:16,271534,7932.000,2160.000,5269.000,1342.000,-2368.000,4407.000,0.000,0.000,0
2026-01-31 15:45:16,271574,14059.000,1608.000,4460.000,5406.000,1482.000,-1680.000,0.000,0.000,0
2026-01-31 15:45:16,271614,-3220.000,9310.000,9998.000,-821.000,-1025.000,622.000,0.000,0.000,0
2026-01-31 15:45:16,271654,8744.000,3257.000,4054.000,-398.000,-724.000,1221.000,0.000,0.000,0
2026-01-31 15:45:16,271694,6358.000,6164.000,4447.000,4907.000,-1257.000,1490.000,0.000,0.000,0
2026-01-31 15:45:16,271734,6120.000,5101.000,5933.000,654.000,-729.000,1771.000,0.000,0.000,0
2026-01-31 15:45:16,271774,3198.000,2786.000,4361.000,468.000,-1261.000,2186.000,0.000,0.000,0
2026-01-31 15:45:16,271814,3040.000,2480.000,4082.000,3142.000,1244.000,448.000,0.000,0.000,0
2026-01-31 15:45:16,271854,2375.000,4763.000,3214.000,1792.000,3070.000,865.000,0.000,0.000,0
2026-01-31 15:45:16,271894,12266.000,-1134.000,1347.000,2895.000,2557.000,407.000,0.000,0.000,0
2026-01-31 15:45:16,271934,-769.000,11737.000,6707.000,4889.000,2286.000,-1805.000,0.000,0.000,0
2026-01-31 15:45:16,271974,-372.000,4775.000,5869.000,-1394.000,3465.000,-149.000,0.000,0.000,0
2026-01-31 15:45:16,272014,-3094.000,8876.000,9159.000,669.000,3459.000,-456.000,0.000,0.000,0
2026-01-31 15:45:16,272054,12855.000,246.000,3730.000,2247.000,3419.000,-496.000,0.000,0.000,0
2026-01-31 15:45:16,272094,4885.000,14042.000,6241.000,4443.000,1567.000,772.000,0.000,0.000,0
2026-01-31 15:45:16,272134,2452.000,7140.000,4060.000,-809.000,-2193.000,2133.000,0.000,0.000,0
2026-01-31 15:45:16,272174,3664.000,4093.000,2241.000,-64.000,-579.000,2085.000,0.000,0.000,0
2026-01-31 15:45:16,272214,32.000,4681.000,5425.000,4539.000,3423.000,1757.000,0.000,0.000,0
2026-01-31 15:45:16,272254,4993.000,6743.000,5006.000,4157.000,2772.000,308.000,0.000,0.000,0
2026-01-31 15:45:17,272294,4201.000,6867.000,3695.000,1868.000,1922.000,-1129.000,0.000,0.000,0
2026-01-31 15:45:17,272334,4736.000,5579.000,6075.000,-163.000,1563.000,1096.000,0.000,0.000,0
2026-01-31 15:45:17,272374,4508.000,4235.000,5488.000,1029.000,1511.000,1716.000,0.000,0.000,0
2026-01-31 15:45:17,272414,5911.000,4739.000,4018.000,2816.000,568.000,1002.000,0.000,0.000,0
2026-01-31 15:45:17,272454,4045.000,7195.000,4404.000,843.000,-231.000,1111.000,0.000,0.000,0
2026-01-31 15:45:17,272494,3396.000,4988.000,4403.000,338.000,533.000,1767.000,0.000,0.000,0
2026-01-31 15:45:17,272534,3976.000,4656.000,5068.000,1378.000,1565.000,2087.000,0.000,0.000,0
2026-01-31 15:45:17,272574,4334.000,4547.000,4496.000,880.000,2333.000,1621.000,0.000,0.000,0
2026-01-31 15:45:17,272614,4456.000,6273.000,5062.000,1545.000,2489.000,1457.000,0.000,0.000,0
2026-01-31 15:45:17,272654,4265.000,6734.000,4745.000,9.000,2677.000,1340.000,0.000,0.000,0
2026-01-31 15:45:17,272694,4365.000,5716.000,4650.000,-466.000,2453.000,2187.000,0.000,0.000,0
2026-01-31 15:45:17,272734,4057.000,5557.000,4601.000,606.000,2521.000,2402.000,0.000,0.000,0
2026-01-31 15:45:17,272774,4666.000,4646.000,4076.000,108.000,2215.000,2417.000,0.000,0.000,0
2026-01-31 15:45:17,272814,5725.000,4739.000,4009.000,601.000,1874.000,2365.000,0.000,0.000,0
2026-01-31 15:45:17,272854,4352.000,5313.000,5320.000,920.000,1711.000,2383.000,0.000,0.000,0
2026-01-31 15:45:17,272894,4831.000,3645.000,5081.000,-166.000,2027.000,2345.000,0.000,0.000,0
2026-01-31 15:45:17,272937,4857.000,4975.000,5386.000,922.000,2100.000,2266.000,0.000,0.000,0
2026-01-31 15:45:17,272976,4370.000,5665.000,5557.000,757.000,2172.000,2341.000,0.000,0.000,0
2026-01-31 15:45:17,273014,3966.000,4925.000,5175.000,280.000,2192.000,2216.000,0.000,0.000,0
2026-01-31 15:45:17,273054,5430.000,4797.000,5170.000,257.000,2082.000,2125.000,0.000,0.000,0
2026-01-31 15:45:17,273094,3882.000,5102.000,5370.000,625.000,2106.000,2545.000,0.000,0.000,0
2026-01-31 15:45:17,273134,4846.000,4825.000,5153.000,596.000,2138.000,2110.000,0.000,0.000,0
2026-01-31 15:45:17,273174,3380.000,5431.000,5777.000,221.000,2342.000,1854.000,0.000,0.000,0
2026-01-31 15:45:17,273217,4121.000,5085.000,5439.000,-322.000,1513.000,2024.000,0.000,0.000,0
2026-01-31 15:45:17,273254,3130.000,4920.000,5411.000,-516.000,1563.000,1945.000,0.000,0.000,0
2026-01-31 15:45:18,273294,4006.000,5335.000,5272.000,-603.000,1331.000,1552.000,0.000,0.000,0
2026-01-31 15:45:18,273334,4820.000,4434.000,5308.000,-849.000,1422.000,1016.000,0.000,0.000,0
2026-01-31 15:45:18,273374,2809.000,5762.000,6018.000,-714.000,1200.000,766.000,0.000,0.000,0
2026-01-31 15:45:18,273414,3200.000,5131.000,5263.000,-1543.000,896.000,767.000,0.000,0.000,0
2026-01-31 15:45:18,273454,3784.000,4812.000,5694.000,-1512.000,529.000,473.000,0.000,0.000,0
2026-01-31 15:45:18,273494,3625.000,4207.000,5331.000,-2350.000,428.000,-227.000,0.000,0.000,0
2026-01-31 15:45:18,273534,4969.000,4310.000,4771.000,-1818.000,42.000,-458.000,0.000,0.000,0
2026-01-31 15:45:18,273574,4713.000,3722.000,4616.000,-594.000,124.000,-610.000,0.000,0.000,0
2026-01-31 15:45:18,273614,2747.000,4690.000,6134.000,-945.000,290.000,-562.000,0.000,0.000,0
2026-01-31 15:45:18,273654,3437.000,4799.000,5648.000,-1425.000,-158.000,19.000,0.000,0.000,0
2026-01-31 15:45:18,273694,5819.000,4504.000,4608.000,-289.000,-121.000,-1175.000,0.000,0.000,0
2026-01-31 15:45:18,273734,3921.000,4275.000,4958.000,-1056.000,-225.000,-649.000,0.000,0.000,0
2026-01-31 15:45:18,273774,4834.000,4265.000,5137.000,-21.000,-259.000,-919.000,0.000,0.000,0
2026-01-31 15:45:18,273814,4002.000,4182.000,5822.000,-167.000,-55.000,-1350.000,0.000,0.000,0
2026-01-31 15:45:18,273854,4406.000,3869.000,5763.000,-451.000,420.000,-1508.000,0.000,0.000,0
2026-01-31 15:45:18,273894,2368.000,5064.000,6107.000,-343.000,-220.000,-1238.000,0.000,0.000,0
2026-01-31 15:45:18,273934,4151.000,6303.000,5979.000,-1028.000,-475.000,-932.000,0.000,0.000,0
2026-01-31 15:45:18,273974,4272.000,4492.000,5409.000,-1375.000,-210.000,-1142.000,0.000,0.000,0
2026-01-31 15:45:18,274014,2804.000,4279.000,5622.000,-992.000,-346.000,-632.000,0.000,0.000,0
2026-01-31 15:45:18,274054,2673.000,4310.000,5145.000,-1091.000,-380.000,-460.000,0.000,0.000,0
2026-01-31 15:45:18,274094,3493.000,5014.000,5198.000,-1768.000,-688.000,-85.000,0.000,0.000,0
2026-01-31 15:45:18,274134,2120.000,4647.000,6588.000,-2852.000,-774.000,82.000,0.000,0.000,0
2026-01-31 15:45:18,274174,3364.000,5753.000,6067.000,-3024.000,-1079.000,183.000,0.000,0.000,0
2026-01-31 15:45:18,274214,4004.000,5038.000,5712.000,-3546.000,-1075.000,-241.000,0.000,0.000,0
2026-01-31 15:45:18,274254,4485.000,4464.000,5575.000,-3612.000,-1169.000,-607.000,0.000,0.000,0
2026-01-31 15:45:19,274294,4323.000,4498.000,4791.000,-3014.000,-751.000,-1287.000,0.000,0.000,0
2026-01-31 15:45:19,274334,3741.000,3822.000,4583.000,-2028.000,-584.000,-1002.000,0.000,0.000,0
2026-01-31 15:45:19,274374,5393.000,4809.000,4706.000,534.000,162.000,-2041.000,0.000,0.000,0
2026-01-31 15:45:19,274414,3076.000,5508.000,5898.000,-727.000,76.000,-2690.000,0.000,0.000,0
2026-01-31 15:45:19,274454,5166.000,4266.000,5202.000,-2486.000,-532.000,-2138.000,0.000,0.000,0
2026-01-31 15:45:19,274494,7384.000,4632.000,6273.000,-1398.000,-267.000,-3476.000,0.000,0.000,0
2026-01-31 15:45:19,274534,3649.000,4570.000,6115.000,-1372.000,-797.000,-2808.000,0.000,0.000,0
2026-01-31 15:45:19,274574,4384.000,4040.000,4980.000,-1242.000,-1388.000,-2028.000,0.000,0.000,0
2026-01-31 15:45:19,274614,4637.000,3504.000,4641.000,-1327.000,-1374.000,-1485.000,0.000,0.000,0
2026-01-31 15:45:19,274654,6494.000,3157.000,5759.000,-403.000,-282.000,-1898.000,0.000,0.000,0
2026-01-31 15:45:19,274694,1518.000,4151.000,6724.000,557.000,-546.000,-1478.000,0.000,0.000,0
2026-01-31 15:45:19,274734,5429.000,3897.000,5979.000,-352.000,-773.000,-1304.000,0.000,0.000,0
2026-01-31 15:45:19,274774,1458.000,5187.000,6756.000,-1282.000,-1364.000,-389.000,0.000,0.000,0
2026-01-31 15:45:19,274814,3848.000,5508.000,4979.000,-1511.000,-1823.000,-650.000,0.000,0.000,0
2026-01-31 15:45:19,274854,5973.000,5124.000,5051.000,-2600.000,-1649.000,-846.000,0.000,0.000,0
2026-01-31 15:45:19,274894,1499.000,4643.000,4815.000,-3641.000,-1311.000,-911.000,0.000,0.000,0
2026-01-31 15:45:19,274934,7246.000,4985.000,4717.000,-882.000,-1242.000,-1858.000,0.000,0.000,0
2026-01-31 15:45:19,274975,6764.000,2447.000,5360.000,-1449.000,-362.000,-2077.000,0.000,0.000,0
2026-01-31 15:45:19,275014,2638.000,5654.000,6786.000,805.000,-745.000,-1666.000,0.000,0.000,0
2026-01-31 15:45:19,275054,6342.000,4156.000,5546.000,-1512.000,-686.000,-3037.000,0.000,0.000,0
2026-01-31 15:45:19,275094,5205.000,4040.000,5678.000,-1659.000,-626.000,-2221.000,0.000,0.000,0
2026-01-31 15:45:19,275134,851.000,3748.000,5657.000,-2122.000,-278.000,-2637.000,0.000,0.000,0
2026-01-31 15:45:19,275174,7860.000,4608.000,4935.000,-55.000,140.000,-2906.000,0.000,0.000,0
2026-01-31 15:45:19,275217,3692.000,5144.000,6196.000,875.000,118.000,-2929.000,0.000,0.000,0
2026-01-31 15:45:19,275254,2966.000,5219.000,6916.000,1033.000,-112.000,-2294.000,0.000,0.000,0
2026-01-31 15:45:20,275294,7945.000,2974.000,4929.000,490.000,374.000,-2186.000,0.000,0.000,0
2026-01-31 15:45:20,275334,-552.000,3747.000,6136.000,794.000,-344.000,-1245.000,0.000,0.000,0
2026-01-31 15:45:20,275374,5904.000,6303.000,6357.000,2288.000,-695.000,-326.000,0.000,0.000,0
2026-01-31 15:45:20,275414,1706.000,2697.000,6586.000,-2817.000,-1541.000,-69.000,0.000,0.000,0
2026-01-31 15:45:20,275454,7724.000,4597.000,5566.000,-72.000,-792.000,1440.000,0.000,0.000,0
2026-01-31 15:45:20,275494,1531.000,4927.000,6326.000,-2744.000,-1945.000,-1357.000,0.000,0.000,0
2026-01-31 15:45:20,275534,5098.000,6868.000,5600.000,-1944.000,-1192.000,130.000,0.000,0.000,0
2026-01-31 15:45:20,275574,2761.000,2638.000,5905.000,-3753.000,-615.000,-360.000,0.000,0.000,0
2026-01-31 15:45:20,275614,10036.000,2401.000,5495.000,2815.000,859.000,-686.000,0.000,0.000,0
2026-01-31 15:45:20,275654,-4105.000,6464.000,7037.000,652.000,-1632.000,1181.000,0.000,0.000,0
2026-01-31 15:45:20,275694,6636.000,209.000,3658.000,-4494.000,-702.000,-550.000,0.000,0.000,0
2026-01-31 15:45:20,275734,1135.000,5671.000,7415.000,-163.000,-1728.000,2185.000,0.000,0.000,0
2026-01-31 15:45:20,275774,8881.000,-553.000,3347.000,-986.000,1906.000,-4959.000,0.000,0.000,0
2026-01-31 15:45:20,275814,-232.000,5056.000,7783.000,1477.000,-315.000,1426.000,0.000,0.000,0
2026-01-31 15:45:20,275854,10959.000,3893.000,6973.000,499.000,1909.000,-3347.000,0.000,0.000,0
2026-01-31 15:45:20,275894,-3229.000,2001.000,4440.000,-2268.000,-96.000,343.000,0.000,0.000,0
2026-01-31 15:45:20,275934,5820.000,7233.000,6896.000,1204.000,-2068.000,-665.000,0.000,0.000,0
2026-01-31 15:45:20,275974,5871.000,3367.000,4713.000,-4507.000,-1176.000,-359.000,0.000,0.000,0
